instruction_mouse.x,instruction_mouse.y,instruction_mouse.leftButton,instruction_mouse.midButton,instruction_mouse.rightButton,instruction_mouse.clicked_name,introduce_general.thisRepN,introduce_general.thisTrialN,introduce_general.thisN,introduce_general.thisIndex,introduce_general.ran,thisInstruction,participant,session,game version,date,expName,psychopyVersion,OS,frameRate,PROLIFIC PID,STUDY ID,SESSION ID,move_resp.keys,move_resp.rt,end_resp.keys,phase,condition,trial_num,time_limit,completion_time,left_right_steps,number_of_obsticle_blocks,number_of_tree_blocks,quest_complete,responsivity_summary,av_inter_brainslug_intervals,proportion_jitter,jitter_direction_proportion_right,calibration_phase.thisRepN,calibration_phase.thisTrialN,calibration_phase.thisN,calibration_phase.thisIndex,calibration_phase.ran,BlockLabel,nObsticles,backgroundImage,phaseLabel,n_side_steps,success_im,gameover_im,success_condition,introduce_learning_or_choice.thisRepN,introduce_learning_or_choice.thisTrialN,introduce_learning_or_choice.thisN,introduce_learning_or_choice.thisIndex,introduce_learning_or_choice.ran,choice_resp.keys,chosen_quest,unchosen_quest,choice_resp_3afc.keys,choice_resp_3afc.rt,unchosen_quests,forced_choice_trial.thisRepN,forced_choice_trial.thisTrialN,forced_choice_trial.thisN,forced_choice_trial.thisIndex,forced_choice_trial.ran,enjoyment_slider.response,enjoyment_slider.rt,effort_slider.response,effort_slider.rt,show_loop2.thisRepN,show_loop2.thisTrialN,show_loop2.thisN,show_loop2.thisIndex,show_loop2.ran,trials_per_block.thisRepN,trials_per_block.thisTrialN,trials_per_block.thisN,trials_per_block.thisIndex,trials_per_block.ran,decision_phase_AFC.thisRepN,decision_phase_AFC.thisTrialN,decision_phase_AFC.thisN,decision_phase_AFC.thisIndex,decision_phase_AFC.ran,blockN,BlockLabel1,questIm1,BlockLabel2,questIm2,BlockLabel3,questIm3,quest_condition,showForcedChoice.thisRepN,showForcedChoice.thisTrialN,showForcedChoice.thisN,showForcedChoice.thisIndex,showForcedChoice.ran
0.376851852,-0.407407407,1,0,0,instruction_button,0,0,0,0,1,images/instructions_part1_LSM_taskversion1/Slide1.JPG,57b18b64f6b9390001af1e05,001,3,2025-04-15_07h08.26.086,avatar_quest_3AFC_legacy,2022.1.3,Win32,59.52380952,57b18b64f6b9390001af1e05,67fe37cb3bd870bba73819bd,67fe491c3e55fc59c12a3636,,,,,,,,,,,,,,,,,,,,,,,,,,,,,,,,,,,,,,,,,,,,,,,,,,,,,,,,,,,,,,,,,,,,,,,,,,,,,
0.357407407,-0.401851852,1,0,0,instruction_button,0,1,1,1,1,images/instructions_part1_LSM_taskversion1/Slide2.JPG,57b18b64f6b9390001af1e05,001,3,2025-04-15_07h08.26.086,avatar_quest_3AFC_legacy,2022.1.3,Win32,59.52380952,57b18b64f6b9390001af1e05,67fe37cb3bd870bba73819bd,67fe491c3e55fc59c12a3636,,,,,,,,,,,,,,,,,,,,,,,,,,,,,,,,,,,,,,,,,,,,,,,,,,,,,,,,,,,,,,,,,,,,,,,,,,,,,
0.440740741,-0.411111111,1,0,0,instruction_button,0,2,2,2,1,images/instructions_part1_LSM_taskversion1/Slide3.JPG,57b18b64f6b9390001af1e05,001,3,2025-04-15_07h08.26.086,avatar_quest_3AFC_legacy,2022.1.3,Win32,59.52380952,57b18b64f6b9390001af1e05,67fe37cb3bd870bba73819bd,67fe491c3e55fc59c12a3636,,,,,,,,,,,,,,,,,,,,,,,,,,,,,,,,,,,,,,,,,,,,,,,,,,,,,,,,,,,,,,,,,,,,,,,,,,,,,
0.407407407,-0.397222222,1,0,0,instruction_button,0,3,3,3,1,images/instructions_part1_LSM_taskversion1/Slide3.5.JPG,57b18b64f6b9390001af1e05,001,3,2025-04-15_07h08.26.086,avatar_quest_3AFC_legacy,2022.1.3,Win32,59.52380952,57b18b64f6b9390001af1e05,67fe37cb3bd870bba73819bd,67fe491c3e55fc59c12a3636,,,,,,,,,,,,,,,,,,,,,,,,,,,,,,,,,,,,,,,,,,,,,,,,,,,,,,,,,,,,,,,,,,,,,,,,,,,,,
0.407407407,-0.396296296,1,0,0,instruction_button,0,4,4,4,1,images/instructions_part1_LSM_taskversion1/Slide4.JPG,57b18b64f6b9390001af1e05,001,3,2025-04-15_07h08.26.086,avatar_quest_3AFC_legacy,2022.1.3,Win32,59.52380952,57b18b64f6b9390001af1e05,67fe37cb3bd870bba73819bd,67fe491c3e55fc59c12a3636,,,,,,,,,,,,,,,,,,,,,,,,,,,,,,,,,,,,,,,,,,,,,,,,,,,,,,,,,,,,,,,,,,,,,,,,,,,,,
0.458333333,-0.414814815,1,0,0,instruction_button,0,5,5,5,1,images/instructions_part1_LSM_taskversion1/Slide6.5.JPG,57b18b64f6b9390001af1e05,001,3,2025-04-15_07h08.26.086,avatar_quest_3AFC_legacy,2022.1.3,Win32,59.52380952,57b18b64f6b9390001af1e05,67fe37cb3bd870bba73819bd,67fe491c3e55fc59c12a3636,,,,,,,,,,,,,,,,,,,,,,,,,,,,,,,,,,,,,,,,,,,,,,,,,,,,,,,,,,,,,,,,,,,,,,,,,,,,,
,,,,,,,,,,,,57b18b64f6b9390001af1e05,001,3,2025-04-15_07h08.26.086,avatar_quest_3AFC_legacy,2022.1.3,Win32,59.52380952,57b18b64f6b9390001af1e05,67fe37cb3bd870bba73819bd,67fe491c3e55fc59c12a3636,"[""left"",""left"",""left"",""right"",""right""]","[10.353300000011927,11.21180000001192,11.602000000000004,12.008599999964247,12.830000000000013]",,calibration,No Brainslug No Barriers No Money,1,100,12.937,5,0,458,TRUE,na,na,na,na,0,0,0,0,1,No Brainslug No Barriers No Money,0,images/assets/snowy_original.jpg,calibration,10,images/assets/success.jpg,images/assets/gameover.jpg,never,,,,,,,,,,,,,,,,,,,,,,,,,,,,,,,,,,,,,,,,,,,,,,,,
,,,,,,,,,,,,57b18b64f6b9390001af1e05,001,3,2025-04-15_07h08.26.086,avatar_quest_3AFC_legacy,2022.1.3,Win32,59.52380952,57b18b64f6b9390001af1e05,67fe37cb3bd870bba73819bd,67fe491c3e55fc59c12a3636,"[""left"",""left"",""right"",""right"",""right"",""right"",""up"",""left"",""left"",""up"",""right"",""right""]","[2.198600000023845,2.7414000000357532,3.3338000000119337,3.673000000000002,4.091900000035764,4.637200000047699,5.404200000047695,6.113200000047698,6.670400000035755,6.953900000035759,7.340300000011922,7.798600000023839]",,calibration,No Brainslug No Barriers No Money,2,100,8.323,9,0,180,TRUE,na,na,na,na,0,1,1,2,1,No Brainslug No Barriers No Money,0,images/assets/snowy_original.jpg,calibration,10,images/assets/success.jpg,images/assets/gameover.jpg,never,,,,,,,,,,,,,,,,,,,,,,,,,,,,,,,,,,,,,,,,,,,,,,,,
,,,,,,,,,,,,57b18b64f6b9390001af1e05,001,3,2025-04-15_07h08.26.086,avatar_quest_3AFC_legacy,2022.1.3,Win32,59.52380952,57b18b64f6b9390001af1e05,67fe37cb3bd870bba73819bd,67fe491c3e55fc59c12a3636,"[""left"",""left"",""left"",""left"",""left"",""left""]","[0.9890000000000043,2.7477999999523206,3.2222999999523267,3.6228999999761697,4.498899999976146,4.806399999976151]",,calibration,No Brainslug No Barriers No Money,3,100,5.3203,3,0,0,TRUE,na,na,na,na,0,2,2,1,1,No Brainslug No Barriers No Money,0,images/assets/snowy_original.jpg,calibration,10,images/assets/success.jpg,images/assets/gameover.jpg,never,,,,,,,,,,,,,,,,,,,,,,,,,,,,,,,,,,,,,,,,,,,,,,,,
0.499074074,-0.407407407,1,0,0,instruction_button,,,,,,images/instructions_part2_LSM_taskversion3.jpg,57b18b64f6b9390001af1e05,001,3,2025-04-15_07h08.26.086,avatar_quest_3AFC_legacy,2022.1.3,Win32,59.52380952,57b18b64f6b9390001af1e05,67fe37cb3bd870bba73819bd,67fe491c3e55fc59c12a3636,,,,,,,,,,,,,,,,,,,,,,,,,,,,,,0,0,0,0,1,,,,,,,,,,,,,,,,,,,,,,,,,,,,,,,,,,,,,,,,,,,
,,,,,,,,,,,,57b18b64f6b9390001af1e05,001,3,2025-04-15_07h08.26.086,avatar_quest_3AFC_legacy,2022.1.3,Win32,59.52380952,57b18b64f6b9390001af1e05,67fe37cb3bd870bba73819bd,67fe491c3e55fc59c12a3636,,,,,,,,,,,,,,,,,,,,,,No Brainslug No Barriers No Money,0,images/assets/snowy_original.jpg,learning,10,images/assets/success.jpg,images/assets/gameover.jpg,,,,,,,,With Brainslug Difficult 2 With Money,With Brainslug Difficult 1 No Money,right,7.4652,"[""With Brainslug Difficult 1 No Money"",""With Brainslug Difficult 2 No Money""]",0,0,0,10,1,,,,,,,,,,,,,,,,,,,,,,,,,,,,,,,,
,,,,,,,,,,,,57b18b64f6b9390001af1e05,001,3,2025-04-15_07h08.26.086,avatar_quest_3AFC_legacy,2022.1.3,Win32,59.52380952,57b18b64f6b9390001af1e05,67fe37cb3bd870bba73819bd,67fe491c3e55fc59c12a3636,,,,,,,,,,,,,,,,,,,,,,With Brainslug Difficult 1 With Money,6,images/assets/snowy_money.jpg,learning,20,images/assets/success_money.jpg,images/assets/gameover.jpg,,,,,,,,,,,,,0,1,1,0,1,,,,,,,,,,,,,,,,,,,,,,,,,,,,,,,,
,,,,,,,,,,,,57b18b64f6b9390001af1e05,001,3,2025-04-15_07h08.26.086,avatar_quest_3AFC_legacy,2022.1.3,Win32,59.52380952,57b18b64f6b9390001af1e05,67fe37cb3bd870bba73819bd,67fe491c3e55fc59c12a3636,,,,,,,,,,,,,,,,,,,,,,With Brainslug Difficult 2 No Money,12,images/assets/snowy_original.jpg,learning,20,images/assets/success.jpg,images/assets/gameover.jpg,,,,,,,,,,,,,0,2,2,3,1,,,,,,,,,,,,,,,,,,,,,,,,,,,,,,,,
,,,,,,,,,,,,57b18b64f6b9390001af1e05,001,3,2025-04-15_07h08.26.086,avatar_quest_3AFC_legacy,2022.1.3,Win32,59.52380952,57b18b64f6b9390001af1e05,67fe37cb3bd870bba73819bd,67fe491c3e55fc59c12a3636,,,,,,,,,,,,,,,,,,,,,,No Brainslug Difficult 2 No Money,12,images/assets/snowy_original.jpg,learning,20,images/assets/success.jpg,images/assets/gameover.jpg,,,,,,,,,,,,,0,3,3,8,1,,,,,,,,,,,,,,,,,,,,,,,,,,,,,,,,
,,,,,,,,,,,,57b18b64f6b9390001af1e05,001,3,2025-04-15_07h08.26.086,avatar_quest_3AFC_legacy,2022.1.3,Win32,59.52380952,57b18b64f6b9390001af1e05,67fe37cb3bd870bba73819bd,67fe491c3e55fc59c12a3636,,,,,,,,,,,,,,,,,,,,,,With Brainslug No Barriers No Money,0,images/assets/snowy_original.jpg,learning,10,images/assets/success.jpg,images/assets/gameover.jpg,,,,,,,,,,,,,0,4,4,5,1,,,,,,,,,,,,,,,,,,,,,,,,,,,,,,,,
,,,,,,,,,,,,57b18b64f6b9390001af1e05,001,3,2025-04-15_07h08.26.086,avatar_quest_3AFC_legacy,2022.1.3,Win32,59.52380952,57b18b64f6b9390001af1e05,67fe37cb3bd870bba73819bd,67fe491c3e55fc59c12a3636,,,,,,,,,,,,,,,,,,,,,,With Brainslug No Barriers With Money,0,images/assets/snowy_money.jpg,learning,10,images/assets/success_money.jpg,images/assets/gameover.jpg,,,,,,,,,,,,,0,5,5,4,1,,,,,,,,,,,,,,,,,,,,,,,,,,,,,,,,
,,,,,,,,,,,,57b18b64f6b9390001af1e05,001,3,2025-04-15_07h08.26.086,avatar_quest_3AFC_legacy,2022.1.3,Win32,59.52380952,57b18b64f6b9390001af1e05,67fe37cb3bd870bba73819bd,67fe491c3e55fc59c12a3636,,,,,,,,,,,,,,,,,,,,,,No Brainslug No Barriers With Money,0,images/assets/snowy_money.jpg,learning,10,images/assets/success_money.jpg,images/assets/gameover.jpg,,,,,,,,,,,,,0,6,6,9,1,,,,,,,,,,,,,,,,,,,,,,,,,,,,,,,,
,,,,,,,,,,,,57b18b64f6b9390001af1e05,001,3,2025-04-15_07h08.26.086,avatar_quest_3AFC_legacy,2022.1.3,Win32,59.52380952,57b18b64f6b9390001af1e05,67fe37cb3bd870bba73819bd,67fe491c3e55fc59c12a3636,,,,,,,,,,,,,,,,,,,,,,With Brainslug Difficult 1 No Money,6,images/assets/snowy_original.jpg,learning,20,images/assets/success.jpg,images/assets/gameover.jpg,,,,,,,,,,,,,0,7,7,1,1,,,,,,,,,,,,,,,,,,,,,,,,,,,,,,,,
,,,,,,,,,,,,57b18b64f6b9390001af1e05,001,3,2025-04-15_07h08.26.086,avatar_quest_3AFC_legacy,2022.1.3,Win32,59.52380952,57b18b64f6b9390001af1e05,67fe37cb3bd870bba73819bd,67fe491c3e55fc59c12a3636,"[""left"",""left"",""left"",""left"",""right"",""right"",""left"",""left"",""right"",""right"",""left"",""left"",""right"",""right"",""left"",""left"",""up"",""left"",""left"",""up"",""right"",""up""]","[2.391600000023857,2.875100000023849,3.7003999999761845,4.042899999976157,4.994100000023877,5.427699999988079,6.011699999988082,6.328600000023869,6.8626000000238605,7.179500000000019,7.863499999999988,8.81439999997616,9.214800000011905,9.615300000011928,10.065800000011905,10.299000000000035,11.333600000023864,11.783800000011922,12.067800000011914,12.40119999998808,12.985199999988083,13.168999999999983]",,calibration,With Brainslug Difficult 2 With Money,4,13.29015,13.3016,9,9,0,FALSE,na,na,na,na,,,,,,,,,,,,,,,,,,,,,,,,,,,,,,,,,,0,0,0,0,1,,,,,,,,,,,,,,,,,,,,,,,
,,,,,,,,,,,,57b18b64f6b9390001af1e05,001,3,2025-04-15_07h08.26.086,avatar_quest_3AFC_legacy,2022.1.3,Win32,59.52380952,57b18b64f6b9390001af1e05,67fe37cb3bd870bba73819bd,67fe491c3e55fc59c12a3636,,,,,,,,,,,,,,,,,,,,,,With Brainslug Difficult 2 With Money,12,images/assets/snowy_money.jpg,learning,20,images/assets/success_money.jpg,images/assets/gameover.jpg,,,,,,,,,,,,,0,8,8,2,1,,,,,,,,,,,,,,,,,,,,,,,,,,,,,,,,
,,,,,,,,,,,,57b18b64f6b9390001af1e05,001,3,2025-04-15_07h08.26.086,avatar_quest_3AFC_legacy,2022.1.3,Win32,59.52380952,57b18b64f6b9390001af1e05,67fe37cb3bd870bba73819bd,67fe491c3e55fc59c12a3636,,,,,,,,,,,,,,,,,,,,,,No Brainslug Difficult 2 With Money,12,images/assets/snowy_money.jpg,learning,20,images/assets/success_money.jpg,images/assets/gameover.jpg,,,,,,,,,,,,,0,9,9,7,1,,,,,,,,,,,,,,,,,,,,,,,,,,,,,,,,
,,,,,,,,,,,,57b18b64f6b9390001af1e05,001,3,2025-04-15_07h08.26.086,avatar_quest_3AFC_legacy,2022.1.3,Win32,59.52380952,57b18b64f6b9390001af1e05,67fe37cb3bd870bba73819bd,67fe491c3e55fc59c12a3636,,,,,,,,,,,,,,,,,,,,,,No Brainslug Difficult 1 No Money,6,images/assets/snowy_original.jpg,learning,20,images/assets/success.jpg,images/assets/gameover.jpg,,,,,,,,,,,,,0,10,10,6,1,,,,,,,,,,,,,,,,,,,,,,,,,,,,,,,,
,,,,,,,,,,,,57b18b64f6b9390001af1e05,001,3,2025-04-15_07h08.26.086,avatar_quest_3AFC_legacy,2022.1.3,Win32,59.52380952,57b18b64f6b9390001af1e05,67fe37cb3bd870bba73819bd,67fe491c3e55fc59c12a3636,,,,,,,,,,,,,,,,,,,,,,,,,,,,,,,,,,,,,,,,,,,,,,,,,,,,,,,0,0,0,0,1,,,,,,,,,,,,,,,,,,
,,,,,,,,,,,,57b18b64f6b9390001af1e05,001,3,2025-04-15_07h08.26.086,avatar_quest_3AFC_legacy,2022.1.3,Win32,59.52380952,57b18b64f6b9390001af1e05,67fe37cb3bd870bba73819bd,67fe491c3e55fc59c12a3636,,,,,,,,,,,,,,,,,,,,,,No Brainslug Difficult 2 With Money,12,images/assets/snowy_money.jpg,learning,20,images/assets/success_money.jpg,images/assets/gameover.jpg,,,,,,,,With Brainslug Difficult 2 No Money,With Brainslug Difficult 1 No Money,down,8.9063,"[""With Brainslug Difficult 1 No Money"",""With Brainslug Difficult 2 With Money""]",0,0,0,7,1,,,,,,,,,,,,,,,,,,,,,,,,,,,,,,,,
,,,,,,,,,,,,57b18b64f6b9390001af1e05,001,3,2025-04-15_07h08.26.086,avatar_quest_3AFC_legacy,2022.1.3,Win32,59.52380952,57b18b64f6b9390001af1e05,67fe37cb3bd870bba73819bd,67fe491c3e55fc59c12a3636,"[""right"",""left"",""left"",""right"",""right"",""right"",""right"",""left"",""right"",""right"",""right"",""right"",""right"",""left"",""right""]","[1.0329999999999586,1.4543999999761468,2.782199999988052,3.571800000011933,4.130999999999972,4.925100000023804,5.625999999999976,6.643699999988087,7.444199999988086,9.1296000000238,9.729999999999961,10.163699999988069,10.630800000011902,11.365100000023801,12.39910000002385]",,calibration,With Brainslug Difficult 2 No Money,5,13.29015,13.3015,5,6,0,FALSE,na,na,na,na,,,,,,,,,,,,,,,,,,,,,,,,,,,,,,,,,,0,0,0,0,1,,,,,,,,,,,,,,,,,,,,,,,
,,,,,,,,,,,,57b18b64f6b9390001af1e05,001,3,2025-04-15_07h08.26.086,avatar_quest_3AFC_legacy,2022.1.3,Win32,59.52380952,57b18b64f6b9390001af1e05,67fe37cb3bd870bba73819bd,67fe491c3e55fc59c12a3636,,,,,,,,,,,,,,,,,,,,,,With Brainslug Difficult 2 No Money,12,images/assets/snowy_original.jpg,learning,20,images/assets/success.jpg,images/assets/gameover.jpg,,,,,,,,,,,,,0,1,1,3,1,,,,,,,,,,,,,,,,,,,,,,,,,,,,,,,,
,,,,,,,,,,,,57b18b64f6b9390001af1e05,001,3,2025-04-15_07h08.26.086,avatar_quest_3AFC_legacy,2022.1.3,Win32,59.52380952,57b18b64f6b9390001af1e05,67fe37cb3bd870bba73819bd,67fe491c3e55fc59c12a3636,,,,,,,,,,,,,,,,,,,,,,No Brainslug Difficult 2 No Money,12,images/assets/snowy_original.jpg,learning,20,images/assets/success.jpg,images/assets/gameover.jpg,,,,,,,,,,,,,0,2,2,8,1,,,,,,,,,,,,,,,,,,,,,,,,,,,,,,,,
,,,,,,,,,,,,57b18b64f6b9390001af1e05,001,3,2025-04-15_07h08.26.086,avatar_quest_3AFC_legacy,2022.1.3,Win32,59.52380952,57b18b64f6b9390001af1e05,67fe37cb3bd870bba73819bd,67fe491c3e55fc59c12a3636,,,,,,,,,,,,,,,,,,,,,,No Brainslug Difficult 1 No Money,6,images/assets/snowy_original.jpg,learning,20,images/assets/success.jpg,images/assets/gameover.jpg,,,,,,,,,,,,,0,3,3,6,1,,,,,,,,,,,,,,,,,,,,,,,,,,,,,,,,
,,,,,,,,,,,,57b18b64f6b9390001af1e05,001,3,2025-04-15_07h08.26.086,avatar_quest_3AFC_legacy,2022.1.3,Win32,59.52380952,57b18b64f6b9390001af1e05,67fe37cb3bd870bba73819bd,67fe491c3e55fc59c12a3636,,,,,,,,,,,,,,,,,,,,,,No Brainslug No Barriers No Money,0,images/assets/snowy_original.jpg,learning,10,images/assets/success.jpg,images/assets/gameover.jpg,,,,,,,,,,,,,0,4,4,10,1,,,,,,,,,,,,,,,,,,,,,,,,,,,,,,,,
,,,,,,,,,,,,57b18b64f6b9390001af1e05,001,3,2025-04-15_07h08.26.086,avatar_quest_3AFC_legacy,2022.1.3,Win32,59.52380952,57b18b64f6b9390001af1e05,67fe37cb3bd870bba73819bd,67fe491c3e55fc59c12a3636,,,,,,,,,,,,,,,,,,,,,,With Brainslug No Barriers No Money,0,images/assets/snowy_original.jpg,learning,10,images/assets/success.jpg,images/assets/gameover.jpg,,,,,,,,,,,,,0,5,5,5,1,,,,,,,,,,,,,,,,,,,,,,,,,,,,,,,,
,,,,,,,,,,,,57b18b64f6b9390001af1e05,001,3,2025-04-15_07h08.26.086,avatar_quest_3AFC_legacy,2022.1.3,Win32,59.52380952,57b18b64f6b9390001af1e05,67fe37cb3bd870bba73819bd,67fe491c3e55fc59c12a3636,,,,,,,,,,,,,,,,,,,,,,With Brainslug Difficult 2 With Money,12,images/assets/snowy_money.jpg,learning,20,images/assets/success_money.jpg,images/assets/gameover.jpg,,,,,,,,,,,,,0,6,6,2,1,,,,,,,,,,,,,,,,,,,,,,,,,,,,,,,,
,,,,,,,,,,,,57b18b64f6b9390001af1e05,001,3,2025-04-15_07h08.26.086,avatar_quest_3AFC_legacy,2022.1.3,Win32,59.52380952,57b18b64f6b9390001af1e05,67fe37cb3bd870bba73819bd,67fe491c3e55fc59c12a3636,,,,,,,,,,,,,,,,,,,,,,With Brainslug Difficult 1 No Money,6,images/assets/snowy_original.jpg,learning,20,images/assets/success.jpg,images/assets/gameover.jpg,,,,,,,,,,,,,0,7,7,1,1,,,,,,,,,,,,,,,,,,,,,,,,,,,,,,,,
,,,,,,,,,,,,57b18b64f6b9390001af1e05,001,3,2025-04-15_07h08.26.086,avatar_quest_3AFC_legacy,2022.1.3,Win32,59.52380952,57b18b64f6b9390001af1e05,67fe37cb3bd870bba73819bd,67fe491c3e55fc59c12a3636,,,,,,,,,,,,,,,,,,,,,,No Brainslug No Barriers With Money,0,images/assets/snowy_money.jpg,learning,10,images/assets/success_money.jpg,images/assets/gameover.jpg,,,,,,,,,,,,,0,8,8,9,1,,,,,,,,,,,,,,,,,,,,,,,,,,,,,,,,
,,,,,,,,,,,,57b18b64f6b9390001af1e05,001,3,2025-04-15_07h08.26.086,avatar_quest_3AFC_legacy,2022.1.3,Win32,59.52380952,57b18b64f6b9390001af1e05,67fe37cb3bd870bba73819bd,67fe491c3e55fc59c12a3636,,,,,,,,,,,,,,,,,,,,,,With Brainslug Difficult 1 With Money,6,images/assets/snowy_money.jpg,learning,20,images/assets/success_money.jpg,images/assets/gameover.jpg,,,,,,,,,,,,,0,9,9,0,1,,,,,,,,,,,,,,,,,,,,,,,,,,,,,,,,
,,,,,,,,,,,,57b18b64f6b9390001af1e05,001,3,2025-04-15_07h08.26.086,avatar_quest_3AFC_legacy,2022.1.3,Win32,59.52380952,57b18b64f6b9390001af1e05,67fe37cb3bd870bba73819bd,67fe491c3e55fc59c12a3636,,,,,,,,,,,,,,,,,,,,,,With Brainslug No Barriers With Money,0,images/assets/snowy_money.jpg,learning,10,images/assets/success_money.jpg,images/assets/gameover.jpg,,,,,,,,,,,,,0,10,10,4,1,,,,,,,,,,,,,,,,,,,,,,,,,,,,,,,,
,,,,,,,,,,,,57b18b64f6b9390001af1e05,001,3,2025-04-15_07h08.26.086,avatar_quest_3AFC_legacy,2022.1.3,Win32,59.52380952,57b18b64f6b9390001af1e05,67fe37cb3bd870bba73819bd,67fe491c3e55fc59c12a3636,,,,,,,,,,,,,,,,,,,,,,,,,,,,,,,,,,,,,,,,,,,,,,,,,,,,,,,1,0,1,0,1,,,,,,,,,,,,,,,,,,
,,,,,,,,,,,,57b18b64f6b9390001af1e05,001,3,2025-04-15_07h08.26.086,avatar_quest_3AFC_legacy,2022.1.3,Win32,59.52380952,57b18b64f6b9390001af1e05,67fe37cb3bd870bba73819bd,67fe491c3e55fc59c12a3636,,,,,,,,,,,,,,,,,,,,,,No Brainslug No Barriers No Money,0,images/assets/snowy_original.jpg,learning,10,images/assets/success.jpg,images/assets/gameover.jpg,,,,,,,,With Brainslug Difficult 1 No Money,With Brainslug Difficult 1 No Money,left,4.7636,"[""With Brainslug Difficult 2 No Money"",""With Brainslug Difficult 2 With Money""]",0,0,0,10,1,,,,,,,,,,,,,,,,,,,,,,,,,,,,,,,,
,,,,,,,,,,,,57b18b64f6b9390001af1e05,001,3,2025-04-15_07h08.26.086,avatar_quest_3AFC_legacy,2022.1.3,Win32,59.52380952,57b18b64f6b9390001af1e05,67fe37cb3bd870bba73819bd,67fe491c3e55fc59c12a3636,,,,,,,,,,,,,,,,,,,,,,With Brainslug Difficult 1 With Money,6,images/assets/snowy_money.jpg,learning,20,images/assets/success_money.jpg,images/assets/gameover.jpg,,,,,,,,,,,,,0,1,1,0,1,,,,,,,,,,,,,,,,,,,,,,,,,,,,,,,,
,,,,,,,,,,,,57b18b64f6b9390001af1e05,001,3,2025-04-15_07h08.26.086,avatar_quest_3AFC_legacy,2022.1.3,Win32,59.52380952,57b18b64f6b9390001af1e05,67fe37cb3bd870bba73819bd,67fe491c3e55fc59c12a3636,,,,,,,,,,,,,,,,,,,,,,With Brainslug No Barriers With Money,0,images/assets/snowy_money.jpg,learning,10,images/assets/success_money.jpg,images/assets/gameover.jpg,,,,,,,,,,,,,0,2,2,4,1,,,,,,,,,,,,,,,,,,,,,,,,,,,,,,,,
,,,,,,,,,,,,57b18b64f6b9390001af1e05,001,3,2025-04-15_07h08.26.086,avatar_quest_3AFC_legacy,2022.1.3,Win32,59.52380952,57b18b64f6b9390001af1e05,67fe37cb3bd870bba73819bd,67fe491c3e55fc59c12a3636,,,,,,,,,,,,,,,,,,,,,,With Brainslug No Barriers No Money,0,images/assets/snowy_original.jpg,learning,10,images/assets/success.jpg,images/assets/gameover.jpg,,,,,,,,,,,,,0,3,3,5,1,,,,,,,,,,,,,,,,,,,,,,,,,,,,,,,,
,,,,,,,,,,,,57b18b64f6b9390001af1e05,001,3,2025-04-15_07h08.26.086,avatar_quest_3AFC_legacy,2022.1.3,Win32,59.52380952,57b18b64f6b9390001af1e05,67fe37cb3bd870bba73819bd,67fe491c3e55fc59c12a3636,,,,,,,,,,,,,,,,,,,,,,No Brainslug Difficult 2 No Money,12,images/assets/snowy_original.jpg,learning,20,images/assets/success.jpg,images/assets/gameover.jpg,,,,,,,,,,,,,0,4,4,8,1,,,,,,,,,,,,,,,,,,,,,,,,,,,,,,,,
,,,,,,,,,,,,57b18b64f6b9390001af1e05,001,3,2025-04-15_07h08.26.086,avatar_quest_3AFC_legacy,2022.1.3,Win32,59.52380952,57b18b64f6b9390001af1e05,67fe37cb3bd870bba73819bd,67fe491c3e55fc59c12a3636,,,,,,,,,,,,,,,,,,,,,,No Brainslug Difficult 2 With Money,12,images/assets/snowy_money.jpg,learning,20,images/assets/success_money.jpg,images/assets/gameover.jpg,,,,,,,,,,,,,0,5,5,7,1,,,,,,,,,,,,,,,,,,,,,,,,,,,,,,,,
,,,,,,,,,,,,57b18b64f6b9390001af1e05,001,3,2025-04-15_07h08.26.086,avatar_quest_3AFC_legacy,2022.1.3,Win32,59.52380952,57b18b64f6b9390001af1e05,67fe37cb3bd870bba73819bd,67fe491c3e55fc59c12a3636,,,,,,,,,,,,,,,,,,,,,,No Brainslug Difficult 1 No Money,6,images/assets/snowy_original.jpg,learning,20,images/assets/success.jpg,images/assets/gameover.jpg,,,,,,,,,,,,,0,6,6,6,1,,,,,,,,,,,,,,,,,,,,,,,,,,,,,,,,
,,,,,,,,,,,,57b18b64f6b9390001af1e05,001,3,2025-04-15_07h08.26.086,avatar_quest_3AFC_legacy,2022.1.3,Win32,59.52380952,57b18b64f6b9390001af1e05,67fe37cb3bd870bba73819bd,67fe491c3e55fc59c12a3636,"[""right"",""up"",""right"",""right"",""right"",""left"",""down"",""down"",""right"",""up"",""right""]","[2.292800000011937,4.544600000023877,6.346200000047702,6.830800000011948,7.297500000000014,7.964700000047685,9.132300000011924,10.083700000047713,11.134700000047701,11.768200000047727,12.936000000000035]",,calibration,With Brainslug Difficult 1 No Money,6,13.29015,13.2963,2,1,0,FALSE,na,na,na,na,,,,,,,,,,,,,,,,,,,,,,,,,,,,,,,,,,0,0,0,0,1,,,,,,,,,,,,,,,,,,,,,,,
,,,,,,,,,,,,57b18b64f6b9390001af1e05,001,3,2025-04-15_07h08.26.086,avatar_quest_3AFC_legacy,2022.1.3,Win32,59.52380952,57b18b64f6b9390001af1e05,67fe37cb3bd870bba73819bd,67fe491c3e55fc59c12a3636,,,,,,,,,,,,,,,,,,,,,,With Brainslug Difficult 1 No Money,6,images/assets/snowy_original.jpg,learning,20,images/assets/success.jpg,images/assets/gameover.jpg,,,,,,,,,,,,,0,7,7,1,1,,,,,,,,,,,,,,,,,,,,,,,,,,,,,,,,
,,,,,,,,,,,,57b18b64f6b9390001af1e05,001,3,2025-04-15_07h08.26.086,avatar_quest_3AFC_legacy,2022.1.3,Win32,59.52380952,57b18b64f6b9390001af1e05,67fe37cb3bd870bba73819bd,67fe491c3e55fc59c12a3636,,,,,,,,,,,,,,,,,,,,,,With Brainslug Difficult 2 With Money,12,images/assets/snowy_money.jpg,learning,20,images/assets/success_money.jpg,images/assets/gameover.jpg,,,,,,,,,,,,,0,8,8,2,1,,,,,,,,,,,,,,,,,,,,,,,,,,,,,,,,
,,,,,,,,,,,,57b18b64f6b9390001af1e05,001,3,2025-04-15_07h08.26.086,avatar_quest_3AFC_legacy,2022.1.3,Win32,59.52380952,57b18b64f6b9390001af1e05,67fe37cb3bd870bba73819bd,67fe491c3e55fc59c12a3636,,,,,,,,,,,,,,,,,,,,,,No Brainslug No Barriers With Money,0,images/assets/snowy_money.jpg,learning,10,images/assets/success_money.jpg,images/assets/gameover.jpg,,,,,,,,,,,,,0,9,9,9,1,,,,,,,,,,,,,,,,,,,,,,,,,,,,,,,,
,,,,,,,,,,,,57b18b64f6b9390001af1e05,001,3,2025-04-15_07h08.26.086,avatar_quest_3AFC_legacy,2022.1.3,Win32,59.52380952,57b18b64f6b9390001af1e05,67fe37cb3bd870bba73819bd,67fe491c3e55fc59c12a3636,,,,,,,,,,,,,,,,,,,,,,With Brainslug Difficult 2 No Money,12,images/assets/snowy_original.jpg,learning,20,images/assets/success.jpg,images/assets/gameover.jpg,,,,,,,,,,,,,0,10,10,3,1,,,,,,,,,,,,,,,,,,,,,,,,,,,,,,,,
,,,,,,,,,,,,57b18b64f6b9390001af1e05,001,3,2025-04-15_07h08.26.086,avatar_quest_3AFC_legacy,2022.1.3,Win32,59.52380952,57b18b64f6b9390001af1e05,67fe37cb3bd870bba73819bd,67fe491c3e55fc59c12a3636,,,,,,,,,,,,,,,,,,,,,,,,,,,,,,,,,,,,,,,,,,,,,,,,,,,,,,,2,0,2,0,1,,,,,,,,,,,,,,,,,,
,,,,,,,,,,,,57b18b64f6b9390001af1e05,001,3,2025-04-15_07h08.26.086,avatar_quest_3AFC_legacy,2022.1.3,Win32,59.52380952,57b18b64f6b9390001af1e05,67fe37cb3bd870bba73819bd,67fe491c3e55fc59c12a3636,,,,,,,,,,,,,,,,,,,,,,With Brainslug Difficult 2 With Money,12,images/assets/snowy_money.jpg,learning,20,images/assets/success_money.jpg,images/assets/gameover.jpg,,,,,,,,With Brainslug Difficult 2 No Money,With Brainslug Difficult 1 No Money,down,1.6723,"[""With Brainslug Difficult 1 No Money"",""With Brainslug Difficult 2 With Money""]",0,0,0,2,1,,,,,,,,,,,,,,,,,,,,,,,,,,,,,,,,
,,,,,,,,,,,,57b18b64f6b9390001af1e05,001,3,2025-04-15_07h08.26.086,avatar_quest_3AFC_legacy,2022.1.3,Win32,59.52380952,57b18b64f6b9390001af1e05,67fe37cb3bd870bba73819bd,67fe491c3e55fc59c12a3636,,,,,,,,,,,,,,,,,,,,,,No Brainslug No Barriers No Money,0,images/assets/snowy_original.jpg,learning,10,images/assets/success.jpg,images/assets/gameover.jpg,,,,,,,,,,,,,0,1,1,10,1,,,,,,,,,,,,,,,,,,,,,,,,,,,,,,,,
,,,,,,,,,,,,57b18b64f6b9390001af1e05,001,3,2025-04-15_07h08.26.086,avatar_quest_3AFC_legacy,2022.1.3,Win32,59.52380952,57b18b64f6b9390001af1e05,67fe37cb3bd870bba73819bd,67fe491c3e55fc59c12a3636,,,,,,,,,,,,,,,,,,,,,,With Brainslug No Barriers No Money,0,images/assets/snowy_original.jpg,learning,10,images/assets/success.jpg,images/assets/gameover.jpg,,,,,,,,,,,,,0,2,2,5,1,,,,,,,,,,,,,,,,,,,,,,,,,,,,,,,,
,,,,,,,,,,,,57b18b64f6b9390001af1e05,001,3,2025-04-15_07h08.26.086,avatar_quest_3AFC_legacy,2022.1.3,Win32,59.52380952,57b18b64f6b9390001af1e05,67fe37cb3bd870bba73819bd,67fe491c3e55fc59c12a3636,,,,,,,,,,,,,,,,,,,,,,No Brainslug Difficult 1 No Money,6,images/assets/snowy_original.jpg,learning,20,images/assets/success.jpg,images/assets/gameover.jpg,,,,,,,,,,,,,0,3,3,6,1,,,,,,,,,,,,,,,,,,,,,,,,,,,,,,,,
,,,,,,,,,,,,57b18b64f6b9390001af1e05,001,3,2025-04-15_07h08.26.086,avatar_quest_3AFC_legacy,2022.1.3,Win32,59.52380952,57b18b64f6b9390001af1e05,67fe37cb3bd870bba73819bd,67fe491c3e55fc59c12a3636,,,,,,,,,,,,,,,,,,,,,,No Brainslug Difficult 2 With Money,12,images/assets/snowy_money.jpg,learning,20,images/assets/success_money.jpg,images/assets/gameover.jpg,,,,,,,,,,,,,0,4,4,7,1,,,,,,,,,,,,,,,,,,,,,,,,,,,,,,,,
,,,,,,,,,,,,57b18b64f6b9390001af1e05,001,3,2025-04-15_07h08.26.086,avatar_quest_3AFC_legacy,2022.1.3,Win32,59.52380952,57b18b64f6b9390001af1e05,67fe37cb3bd870bba73819bd,67fe491c3e55fc59c12a3636,,,,,,,,,,,,,,,,,,,,,,With Brainslug No Barriers With Money,0,images/assets/snowy_money.jpg,learning,10,images/assets/success_money.jpg,images/assets/gameover.jpg,,,,,,,,,,,,,0,5,5,4,1,,,,,,,,,,,,,,,,,,,,,,,,,,,,,,,,
,,,,,,,,,,,,57b18b64f6b9390001af1e05,001,3,2025-04-15_07h08.26.086,avatar_quest_3AFC_legacy,2022.1.3,Win32,59.52380952,57b18b64f6b9390001af1e05,67fe37cb3bd870bba73819bd,67fe491c3e55fc59c12a3636,,,,,,,,,,,,,,,,,,,,,,No Brainslug Difficult 2 No Money,12,images/assets/snowy_original.jpg,learning,20,images/assets/success.jpg,images/assets/gameover.jpg,,,,,,,,,,,,,0,6,6,8,1,,,,,,,,,,,,,,,,,,,,,,,,,,,,,,,,
,,,,,,,,,,,,57b18b64f6b9390001af1e05,001,3,2025-04-15_07h08.26.086,avatar_quest_3AFC_legacy,2022.1.3,Win32,59.52380952,57b18b64f6b9390001af1e05,67fe37cb3bd870bba73819bd,67fe491c3e55fc59c12a3636,"[""right"",""left"",""right"",""right"",""right"",""right"",""left"",""right"",""right"",""right"",""right"",""right"",""left"",""left"",""left"",""right"",""right"",""right"",""right"",""right"",""left"",""left"",""left"",""left""]","[0.7014000000357328,2.1358000000118977,2.452800000011905,3.1399999999999864,3.3866000000238046,3.937900000035768,4.554400000035741,5.6895000000000095,5.95610000002381,6.091300000011927,6.339900000035755,6.673100000023851,7.47569999998808,7.857900000035727,9.276800000011917,9.826199999988035,10.283300000011877,10.79480000001189,11.22769999998809,11.544900000035739,11.879300000011881,12.180499999999995,12.484999999999957,12.796199999988062]",,calibration,With Brainslug Difficult 2 No Money,7,13.29015,13.2965,13,6,0,FALSE,na,na,na,na,,,,,,,,,,,,,,,,,,,,,,,,,,,,,,,,,,0,0,0,0,1,,,,,,,,,,,,,,,,,,,,,,,
,,,,,,,,,,,,57b18b64f6b9390001af1e05,001,3,2025-04-15_07h08.26.086,avatar_quest_3AFC_legacy,2022.1.3,Win32,59.52380952,57b18b64f6b9390001af1e05,67fe37cb3bd870bba73819bd,67fe491c3e55fc59c12a3636,,,,,,,,,,,,,,,,,,,,,,With Brainslug Difficult 2 No Money,12,images/assets/snowy_original.jpg,learning,20,images/assets/success.jpg,images/assets/gameover.jpg,,,,,,,,,,,,,0,7,7,3,1,,,,,,,,,,,,,,,,,,,,,,,,,,,,,,,,
,,,,,,,,,,,,57b18b64f6b9390001af1e05,001,3,2025-04-15_07h08.26.086,avatar_quest_3AFC_legacy,2022.1.3,Win32,59.52380952,57b18b64f6b9390001af1e05,67fe37cb3bd870bba73819bd,67fe491c3e55fc59c12a3636,,,,,,,,,,,,,,,,,,,,,,With Brainslug Difficult 1 No Money,6,images/assets/snowy_original.jpg,learning,20,images/assets/success.jpg,images/assets/gameover.jpg,,,,,,,,,,,,,0,8,8,1,1,,,,,,,,,,,,,,,,,,,,,,,,,,,,,,,,
,,,,,,,,,,,,57b18b64f6b9390001af1e05,001,3,2025-04-15_07h08.26.086,avatar_quest_3AFC_legacy,2022.1.3,Win32,59.52380952,57b18b64f6b9390001af1e05,67fe37cb3bd870bba73819bd,67fe491c3e55fc59c12a3636,,,,,,,,,,,,,,,,,,,,,,With Brainslug Difficult 1 With Money,6,images/assets/snowy_money.jpg,learning,20,images/assets/success_money.jpg,images/assets/gameover.jpg,,,,,,,,,,,,,0,9,9,0,1,,,,,,,,,,,,,,,,,,,,,,,,,,,,,,,,
,,,,,,,,,,,,57b18b64f6b9390001af1e05,001,3,2025-04-15_07h08.26.086,avatar_quest_3AFC_legacy,2022.1.3,Win32,59.52380952,57b18b64f6b9390001af1e05,67fe37cb3bd870bba73819bd,67fe491c3e55fc59c12a3636,,,,,,,,,,,,,,,,,,,,,,No Brainslug No Barriers With Money,0,images/assets/snowy_money.jpg,learning,10,images/assets/success_money.jpg,images/assets/gameover.jpg,,,,,,,,,,,,,0,10,10,9,1,,,,,,,,,,,,,,,,,,,,,,,,,,,,,,,,
,,,,,,,,,,,,57b18b64f6b9390001af1e05,001,3,2025-04-15_07h08.26.086,avatar_quest_3AFC_legacy,2022.1.3,Win32,59.52380952,57b18b64f6b9390001af1e05,67fe37cb3bd870bba73819bd,67fe491c3e55fc59c12a3636,,,,,,,,,,,,,,,,,,,,,,,,,,,,,,,,,,,,,,,,,,,,,,,,,,,,,,,3,0,3,0,1,,,,,,,,,,,,,,,,,,
,,,,,,,,,,,,57b18b64f6b9390001af1e05,001,3,2025-04-15_07h08.26.086,avatar_quest_3AFC_legacy,2022.1.3,Win32,59.52380952,57b18b64f6b9390001af1e05,67fe37cb3bd870bba73819bd,67fe491c3e55fc59c12a3636,,,,,,,,,,,,,,,,,,,,,,No Brainslug Difficult 2 With Money,12,images/assets/snowy_money.jpg,learning,20,images/assets/success_money.jpg,images/assets/gameover.jpg,,,,,,,,With Brainslug Difficult 2 With Money,With Brainslug Difficult 1 No Money,right,2.1334,"[""With Brainslug Difficult 1 No Money"",""With Brainslug Difficult 2 No Money""]",0,0,0,7,1,,,,,,,,,,,,,,,,,,,,,,,,,,,,,,,,
,,,,,,,,,,,,57b18b64f6b9390001af1e05,001,3,2025-04-15_07h08.26.086,avatar_quest_3AFC_legacy,2022.1.3,Win32,59.52380952,57b18b64f6b9390001af1e05,67fe37cb3bd870bba73819bd,67fe491c3e55fc59c12a3636,,,,,,,,,,,,,,,,,,,,,,With Brainslug Difficult 1 No Money,6,images/assets/snowy_original.jpg,learning,20,images/assets/success.jpg,images/assets/gameover.jpg,,,,,,,,,,,,,0,1,1,1,1,,,,,,,,,,,,,,,,,,,,,,,,,,,,,,,,
,,,,,,,,,,,,57b18b64f6b9390001af1e05,001,3,2025-04-15_07h08.26.086,avatar_quest_3AFC_legacy,2022.1.3,Win32,59.52380952,57b18b64f6b9390001af1e05,67fe37cb3bd870bba73819bd,67fe491c3e55fc59c12a3636,,,,,,,,,,,,,,,,,,,,,,No Brainslug Difficult 1 No Money,6,images/assets/snowy_original.jpg,learning,20,images/assets/success.jpg,images/assets/gameover.jpg,,,,,,,,,,,,,0,2,2,6,1,,,,,,,,,,,,,,,,,,,,,,,,,,,,,,,,
,,,,,,,,,,,,57b18b64f6b9390001af1e05,001,3,2025-04-15_07h08.26.086,avatar_quest_3AFC_legacy,2022.1.3,Win32,59.52380952,57b18b64f6b9390001af1e05,67fe37cb3bd870bba73819bd,67fe491c3e55fc59c12a3636,,,,,,,,,,,,,,,,,,,,,,With Brainslug No Barriers With Money,0,images/assets/snowy_money.jpg,learning,10,images/assets/success_money.jpg,images/assets/gameover.jpg,,,,,,,,,,,,,0,3,3,4,1,,,,,,,,,,,,,,,,,,,,,,,,,,,,,,,,
,,,,,,,,,,,,57b18b64f6b9390001af1e05,001,3,2025-04-15_07h08.26.086,avatar_quest_3AFC_legacy,2022.1.3,Win32,59.52380952,57b18b64f6b9390001af1e05,67fe37cb3bd870bba73819bd,67fe491c3e55fc59c12a3636,,,,,,,,,,,,,,,,,,,,,,No Brainslug No Barriers No Money,0,images/assets/snowy_original.jpg,learning,10,images/assets/success.jpg,images/assets/gameover.jpg,,,,,,,,,,,,,0,4,4,10,1,,,,,,,,,,,,,,,,,,,,,,,,,,,,,,,,
,,,,,,,,,,,,57b18b64f6b9390001af1e05,001,3,2025-04-15_07h08.26.086,avatar_quest_3AFC_legacy,2022.1.3,Win32,59.52380952,57b18b64f6b9390001af1e05,67fe37cb3bd870bba73819bd,67fe491c3e55fc59c12a3636,,,,,,,,,,,,,,,,,,,,,,With Brainslug Difficult 1 With Money,6,images/assets/snowy_money.jpg,learning,20,images/assets/success_money.jpg,images/assets/gameover.jpg,,,,,,,,,,,,,0,5,5,0,1,,,,,,,,,,,,,,,,,,,,,,,,,,,,,,,,
,,,,,,,,,,,,57b18b64f6b9390001af1e05,001,3,2025-04-15_07h08.26.086,avatar_quest_3AFC_legacy,2022.1.3,Win32,59.52380952,57b18b64f6b9390001af1e05,67fe37cb3bd870bba73819bd,67fe491c3e55fc59c12a3636,,,,,,,,,,,,,,,,,,,,,,No Brainslug No Barriers With Money,0,images/assets/snowy_money.jpg,learning,10,images/assets/success_money.jpg,images/assets/gameover.jpg,,,,,,,,,,,,,0,6,6,9,1,,,,,,,,,,,,,,,,,,,,,,,,,,,,,,,,
,,,,,,,,,,,,57b18b64f6b9390001af1e05,001,3,2025-04-15_07h08.26.086,avatar_quest_3AFC_legacy,2022.1.3,Win32,59.52380952,57b18b64f6b9390001af1e05,67fe37cb3bd870bba73819bd,67fe491c3e55fc59c12a3636,,,,,,,,,,,,,,,,,,,,,,With Brainslug Difficult 2 No Money,12,images/assets/snowy_original.jpg,learning,20,images/assets/success.jpg,images/assets/gameover.jpg,,,,,,,,,,,,,0,7,7,3,1,,,,,,,,,,,,,,,,,,,,,,,,,,,,,,,,
,,,,,,,,,,,,57b18b64f6b9390001af1e05,001,3,2025-04-15_07h08.26.086,avatar_quest_3AFC_legacy,2022.1.3,Win32,59.52380952,57b18b64f6b9390001af1e05,67fe37cb3bd870bba73819bd,67fe491c3e55fc59c12a3636,,,,,,,,,,,,,,,,,,,,,,With Brainslug No Barriers No Money,0,images/assets/snowy_original.jpg,learning,10,images/assets/success.jpg,images/assets/gameover.jpg,,,,,,,,,,,,,0,8,8,5,1,,,,,,,,,,,,,,,,,,,,,,,,,,,,,,,,
,,,,,,,,,,,,57b18b64f6b9390001af1e05,001,3,2025-04-15_07h08.26.086,avatar_quest_3AFC_legacy,2022.1.3,Win32,59.52380952,57b18b64f6b9390001af1e05,67fe37cb3bd870bba73819bd,67fe491c3e55fc59c12a3636,"[""left"",""left"",""right"",""right"",""right"",""right"",""right"",""left"",""right"",""right"",""right"",""right"",""right"",""right"",""right"",""left"",""left"",""left"",""left"",""left"",""right"",""right"",""left"",""left"",""left"",""right"",""right""]","[0.6413999999761586,0.9770999999641958,1.6993999999761513,1.9761999999880686,2.3258000000118955,2.960599999964245,3.302500000000009,3.993800000011902,4.55030000001193,4.829300000011926,5.262599999964209,5.529599999964205,6.030300000011891,6.7309999999999945,7.063699999988046,7.515199999988056,7.967699999988042,8.170300000011878,8.699099999964233,9.67330000001192,10.735699999988071,11.170500000000004,11.452099999964219,11.802199999988034,12.053099999964218,12.327800000011905,12.690199999988067]",,calibration,With Brainslug Difficult 2 With Money,8,13.29015,13.296,16,8,0,FALSE,na,na,na,na,,,,,,,,,,,,,,,,,,,,,,,,,,,,,,,,,,0,0,0,0,1,,,,,,,,,,,,,,,,,,,,,,,
,,,,,,,,,,,,57b18b64f6b9390001af1e05,001,3,2025-04-15_07h08.26.086,avatar_quest_3AFC_legacy,2022.1.3,Win32,59.52380952,57b18b64f6b9390001af1e05,67fe37cb3bd870bba73819bd,67fe491c3e55fc59c12a3636,,,,,,,,,,,,,,,,,,,,,,With Brainslug Difficult 2 With Money,12,images/assets/snowy_money.jpg,learning,20,images/assets/success_money.jpg,images/assets/gameover.jpg,,,,,,,,,,,,,0,9,9,2,1,,,,,,,,,,,,,,,,,,,,,,,,,,,,,,,,
,,,,,,,,,,,,57b18b64f6b9390001af1e05,001,3,2025-04-15_07h08.26.086,avatar_quest_3AFC_legacy,2022.1.3,Win32,59.52380952,57b18b64f6b9390001af1e05,67fe37cb3bd870bba73819bd,67fe491c3e55fc59c12a3636,,,,,,,,,,,,,,,,,,,,,,No Brainslug Difficult 2 No Money,12,images/assets/snowy_original.jpg,learning,20,images/assets/success.jpg,images/assets/gameover.jpg,,,,,,,,,,,,,0,10,10,8,1,,,,,,,,,,,,,,,,,,,,,,,,,,,,,,,,
,,,,,,,,,,,,57b18b64f6b9390001af1e05,001,3,2025-04-15_07h08.26.086,avatar_quest_3AFC_legacy,2022.1.3,Win32,59.52380952,57b18b64f6b9390001af1e05,67fe37cb3bd870bba73819bd,67fe491c3e55fc59c12a3636,,,,,,,,,,,,,,,,,,,,,,,,,,,,,,,,,,,,,,,,,,,,,,,,,,,,,,,4,0,4,0,1,,,,,,,,,,,,,,,,,,
,,,,,,,,,,,,57b18b64f6b9390001af1e05,001,3,2025-04-15_07h08.26.086,avatar_quest_3AFC_legacy,2022.1.3,Win32,59.52380952,57b18b64f6b9390001af1e05,67fe37cb3bd870bba73819bd,67fe491c3e55fc59c12a3636,,,,,,,,,,,,,,,,,,,,,,With Brainslug Difficult 1 No Money,6,images/assets/snowy_original.jpg,learning,20,images/assets/success.jpg,images/assets/gameover.jpg,,,,,,,,With Brainslug Difficult 2 No Money,With Brainslug Difficult 1 No Money,down,2.6622,"[""With Brainslug Difficult 1 No Money"",""With Brainslug Difficult 2 With Money""]",0,0,0,1,1,,,,,,,,,,,,,,,,,,,,,,,,,,,,,,,,
,,,,,,,,,,,,57b18b64f6b9390001af1e05,001,3,2025-04-15_07h08.26.086,avatar_quest_3AFC_legacy,2022.1.3,Win32,59.52380952,57b18b64f6b9390001af1e05,67fe37cb3bd870bba73819bd,67fe491c3e55fc59c12a3636,,,,,,,,,,,,,,,,,,,,,,With Brainslug No Barriers With Money,0,images/assets/snowy_money.jpg,learning,10,images/assets/success_money.jpg,images/assets/gameover.jpg,,,,,,,,,,,,,0,1,1,4,1,,,,,,,,,,,,,,,,,,,,,,,,,,,,,,,,
,,,,,,,,,,,,57b18b64f6b9390001af1e05,001,3,2025-04-15_07h08.26.086,avatar_quest_3AFC_legacy,2022.1.3,Win32,59.52380952,57b18b64f6b9390001af1e05,67fe37cb3bd870bba73819bd,67fe491c3e55fc59c12a3636,,,,,,,,,,,,,,,,,,,,,,With Brainslug Difficult 2 With Money,12,images/assets/snowy_money.jpg,learning,20,images/assets/success_money.jpg,images/assets/gameover.jpg,,,,,,,,,,,,,0,2,2,2,1,,,,,,,,,,,,,,,,,,,,,,,,,,,,,,,,
,,,,,,,,,,,,57b18b64f6b9390001af1e05,001,3,2025-04-15_07h08.26.086,avatar_quest_3AFC_legacy,2022.1.3,Win32,59.52380952,57b18b64f6b9390001af1e05,67fe37cb3bd870bba73819bd,67fe491c3e55fc59c12a3636,,,,,,,,,,,,,,,,,,,,,,No Brainslug No Barriers With Money,0,images/assets/snowy_money.jpg,learning,10,images/assets/success_money.jpg,images/assets/gameover.jpg,,,,,,,,,,,,,0,3,3,9,1,,,,,,,,,,,,,,,,,,,,,,,,,,,,,,,,
,,,,,,,,,,,,57b18b64f6b9390001af1e05,001,3,2025-04-15_07h08.26.086,avatar_quest_3AFC_legacy,2022.1.3,Win32,59.52380952,57b18b64f6b9390001af1e05,67fe37cb3bd870bba73819bd,67fe491c3e55fc59c12a3636,,,,,,,,,,,,,,,,,,,,,,No Brainslug Difficult 2 No Money,12,images/assets/snowy_original.jpg,learning,20,images/assets/success.jpg,images/assets/gameover.jpg,,,,,,,,,,,,,0,4,4,8,1,,,,,,,,,,,,,,,,,,,,,,,,,,,,,,,,
,,,,,,,,,,,,57b18b64f6b9390001af1e05,001,3,2025-04-15_07h08.26.086,avatar_quest_3AFC_legacy,2022.1.3,Win32,59.52380952,57b18b64f6b9390001af1e05,67fe37cb3bd870bba73819bd,67fe491c3e55fc59c12a3636,,,,,,,,,,,,,,,,,,,,,,No Brainslug Difficult 2 With Money,12,images/assets/snowy_money.jpg,learning,20,images/assets/success_money.jpg,images/assets/gameover.jpg,,,,,,,,,,,,,0,5,5,7,1,,,,,,,,,,,,,,,,,,,,,,,,,,,,,,,,
,,,,,,,,,,,,57b18b64f6b9390001af1e05,001,3,2025-04-15_07h08.26.086,avatar_quest_3AFC_legacy,2022.1.3,Win32,59.52380952,57b18b64f6b9390001af1e05,67fe37cb3bd870bba73819bd,67fe491c3e55fc59c12a3636,,,,,,,,,,,,,,,,,,,,,,No Brainslug No Barriers No Money,0,images/assets/snowy_original.jpg,learning,10,images/assets/success.jpg,images/assets/gameover.jpg,,,,,,,,,,,,,0,6,6,10,1,,,,,,,,,,,,,,,,,,,,,,,,,,,,,,,,
,,,,,,,,,,,,57b18b64f6b9390001af1e05,001,3,2025-04-15_07h08.26.086,avatar_quest_3AFC_legacy,2022.1.3,Win32,59.52380952,57b18b64f6b9390001af1e05,67fe37cb3bd870bba73819bd,67fe491c3e55fc59c12a3636,,,,,,,,,,,,,,,,,,,,,,With Brainslug Difficult 1 With Money,6,images/assets/snowy_money.jpg,learning,20,images/assets/success_money.jpg,images/assets/gameover.jpg,,,,,,,,,,,,,0,7,7,0,1,,,,,,,,,,,,,,,,,,,,,,,,,,,,,,,,
,,,,,,,,,,,,57b18b64f6b9390001af1e05,001,3,2025-04-15_07h08.26.086,avatar_quest_3AFC_legacy,2022.1.3,Win32,59.52380952,57b18b64f6b9390001af1e05,67fe37cb3bd870bba73819bd,67fe491c3e55fc59c12a3636,,,,,,,,,,,,,,,,,,,,,,With Brainslug No Barriers No Money,0,images/assets/snowy_original.jpg,learning,10,images/assets/success.jpg,images/assets/gameover.jpg,,,,,,,,,,,,,0,8,8,5,1,,,,,,,,,,,,,,,,,,,,,,,,,,,,,,,,
,,,,,,,,,,,,57b18b64f6b9390001af1e05,001,3,2025-04-15_07h08.26.086,avatar_quest_3AFC_legacy,2022.1.3,Win32,59.52380952,57b18b64f6b9390001af1e05,67fe37cb3bd870bba73819bd,67fe491c3e55fc59c12a3636,,,,,,,,,,,,,,,,,,,,,,No Brainslug Difficult 1 No Money,6,images/assets/snowy_original.jpg,learning,20,images/assets/success.jpg,images/assets/gameover.jpg,,,,,,,,,,,,,0,9,9,6,1,,,,,,,,,,,,,,,,,,,,,,,,,,,,,,,,
,,,,,,,,,,,,57b18b64f6b9390001af1e05,001,3,2025-04-15_07h08.26.086,avatar_quest_3AFC_legacy,2022.1.3,Win32,59.52380952,57b18b64f6b9390001af1e05,67fe37cb3bd870bba73819bd,67fe491c3e55fc59c12a3636,"[""left"",""left"",""right"",""right"",""right"",""right"",""right"",""right"",""right"",""left"",""left"",""right"",""left""]","[0.5421999999880427,0.8923000000119146,1.5098000000119214,4.980199999988088,5.480500000000006,7.165699999988078,7.632999999999981,8.38349999999997,8.967499999999973,9.851499999999987,10.585899999976164,11.936800000011885,13.05480000001188]",,calibration,With Brainslug Difficult 2 No Money,9,13.29015,13.3014,5,3,0,FALSE,na,na,na,na,,,,,,,,,,,,,,,,,,,,,,,,,,,,,,,,,,0,0,0,0,1,,,,,,,,,,,,,,,,,,,,,,,
,,,,,,,,,,,,57b18b64f6b9390001af1e05,001,3,2025-04-15_07h08.26.086,avatar_quest_3AFC_legacy,2022.1.3,Win32,59.52380952,57b18b64f6b9390001af1e05,67fe37cb3bd870bba73819bd,67fe491c3e55fc59c12a3636,,,,,,,,,,,,,,,,,,,,,,With Brainslug Difficult 2 No Money,12,images/assets/snowy_original.jpg,learning,20,images/assets/success.jpg,images/assets/gameover.jpg,,,,,,,,,,,,,0,10,10,3,1,,,,,,,,,,,,,,,,,,,,,,,,,,,,,,,,
,,,,,,,,,,,,57b18b64f6b9390001af1e05,001,3,2025-04-15_07h08.26.086,avatar_quest_3AFC_legacy,2022.1.3,Win32,59.52380952,57b18b64f6b9390001af1e05,67fe37cb3bd870bba73819bd,67fe491c3e55fc59c12a3636,,,,,,,,,,,,,,,,,,,,,,,,,,,,,,,,,,,,,,,,,,,,,,,,,,,,,,,5,0,5,0,1,,,,,,,,,,,,,,,,,,
,,,,,,,,,,,,57b18b64f6b9390001af1e05,001,3,2025-04-15_07h08.26.086,avatar_quest_3AFC_legacy,2022.1.3,Win32,59.52380952,57b18b64f6b9390001af1e05,67fe37cb3bd870bba73819bd,67fe491c3e55fc59c12a3636,,,,,,,,,,,,,,,,,,,,,,With Brainslug No Barriers No Money,0,images/assets/snowy_original.jpg,learning,10,images/assets/success.jpg,images/assets/gameover.jpg,,,,,,,,With Brainslug Difficult 1 No Money,With Brainslug Difficult 1 No Money,left,2.4023,"[""With Brainslug Difficult 2 No Money"",""With Brainslug Difficult 2 With Money""]",0,0,0,5,1,,,,,,,,,,,,,,,,,,,,,,,,,,,,,,,,
,,,,,,,,,,,,57b18b64f6b9390001af1e05,001,3,2025-04-15_07h08.26.086,avatar_quest_3AFC_legacy,2022.1.3,Win32,59.52380952,57b18b64f6b9390001af1e05,67fe37cb3bd870bba73819bd,67fe491c3e55fc59c12a3636,,,,,,,,,,,,,,,,,,,,,,No Brainslug No Barriers With Money,0,images/assets/snowy_money.jpg,learning,10,images/assets/success_money.jpg,images/assets/gameover.jpg,,,,,,,,,,,,,0,1,1,9,1,,,,,,,,,,,,,,,,,,,,,,,,,,,,,,,,
,,,,,,,,,,,,57b18b64f6b9390001af1e05,001,3,2025-04-15_07h08.26.086,avatar_quest_3AFC_legacy,2022.1.3,Win32,59.52380952,57b18b64f6b9390001af1e05,67fe37cb3bd870bba73819bd,67fe491c3e55fc59c12a3636,,,,,,,,,,,,,,,,,,,,,,With Brainslug No Barriers With Money,0,images/assets/snowy_money.jpg,learning,10,images/assets/success_money.jpg,images/assets/gameover.jpg,,,,,,,,,,,,,0,2,2,4,1,,,,,,,,,,,,,,,,,,,,,,,,,,,,,,,,
,,,,,,,,,,,,57b18b64f6b9390001af1e05,001,3,2025-04-15_07h08.26.086,avatar_quest_3AFC_legacy,2022.1.3,Win32,59.52380952,57b18b64f6b9390001af1e05,67fe37cb3bd870bba73819bd,67fe491c3e55fc59c12a3636,,,,,,,,,,,,,,,,,,,,,,With Brainslug Difficult 2 No Money,12,images/assets/snowy_original.jpg,learning,20,images/assets/success.jpg,images/assets/gameover.jpg,,,,,,,,,,,,,0,3,3,3,1,,,,,,,,,,,,,,,,,,,,,,,,,,,,,,,,
,,,,,,,,,,,,57b18b64f6b9390001af1e05,001,3,2025-04-15_07h08.26.086,avatar_quest_3AFC_legacy,2022.1.3,Win32,59.52380952,57b18b64f6b9390001af1e05,67fe37cb3bd870bba73819bd,67fe491c3e55fc59c12a3636,,,,,,,,,,,,,,,,,,,,,,No Brainslug Difficult 1 No Money,6,images/assets/snowy_original.jpg,learning,20,images/assets/success.jpg,images/assets/gameover.jpg,,,,,,,,,,,,,0,4,4,6,1,,,,,,,,,,,,,,,,,,,,,,,,,,,,,,,,
,,,,,,,,,,,,57b18b64f6b9390001af1e05,001,3,2025-04-15_07h08.26.086,avatar_quest_3AFC_legacy,2022.1.3,Win32,59.52380952,57b18b64f6b9390001af1e05,67fe37cb3bd870bba73819bd,67fe491c3e55fc59c12a3636,,,,,,,,,,,,,,,,,,,,,,No Brainslug Difficult 2 No Money,12,images/assets/snowy_original.jpg,learning,20,images/assets/success.jpg,images/assets/gameover.jpg,,,,,,,,,,,,,0,5,5,8,1,,,,,,,,,,,,,,,,,,,,,,,,,,,,,,,,
,,,,,,,,,,,,57b18b64f6b9390001af1e05,001,3,2025-04-15_07h08.26.086,avatar_quest_3AFC_legacy,2022.1.3,Win32,59.52380952,57b18b64f6b9390001af1e05,67fe37cb3bd870bba73819bd,67fe491c3e55fc59c12a3636,,,,,,,,,,,,,,,,,,,,,,With Brainslug Difficult 1 With Money,6,images/assets/snowy_money.jpg,learning,20,images/assets/success_money.jpg,images/assets/gameover.jpg,,,,,,,,,,,,,0,6,6,0,1,,,,,,,,,,,,,,,,,,,,,,,,,,,,,,,,
,,,,,,,,,,,,57b18b64f6b9390001af1e05,001,3,2025-04-15_07h08.26.086,avatar_quest_3AFC_legacy,2022.1.3,Win32,59.52380952,57b18b64f6b9390001af1e05,67fe37cb3bd870bba73819bd,67fe491c3e55fc59c12a3636,,,,,,,,,,,,,,,,,,,,,,No Brainslug Difficult 2 With Money,12,images/assets/snowy_money.jpg,learning,20,images/assets/success_money.jpg,images/assets/gameover.jpg,,,,,,,,,,,,,0,7,7,7,1,,,,,,,,,,,,,,,,,,,,,,,,,,,,,,,,
,,,,,,,,,,,,57b18b64f6b9390001af1e05,001,3,2025-04-15_07h08.26.086,avatar_quest_3AFC_legacy,2022.1.3,Win32,59.52380952,57b18b64f6b9390001af1e05,67fe37cb3bd870bba73819bd,67fe491c3e55fc59c12a3636,"[""left"",""left"",""right"",""right"",""right"",""right"",""left"",""left"",""left"",""left"",""left"",""left"",""left"",""right"",""right"",""right"",""right"",""left"",""left"",""left"",""left"",""left"",""left"",""left"",""left"",""left"",""left""]","[0.5588000000119564,1.0593000000119446,1.5598000000119328,1.8102000000477005,2.0196000000238428,2.319500000000005,2.6542000000476946,2.9219000000357482,3.0876000000238264,3.238600000023837,3.42140000003576,3.738600000023837,3.9881000000238487,4.305999999999983,4.523500000000013,4.7232000000477115,4.982700000047714,5.357200000047669,5.575700000047675,5.791100000023846,5.9578000000119005,6.2239999999999895,6.442100000023856,6.675400000035779,7.024400000035769,7.392600000023833,7.65940000003576]",,calibration,With Brainslug Difficult 1 No Money,10,13.29015,8.2248,11,4,0,TRUE,na,na,na,na,,,,,,,,,,,,,,,,,,,,,,,,,,,,,,,,,,0,0,0,0,1,,,,,,,,,,,,,,,,,,,,,,,
,,,,,,,,,,,,57b18b64f6b9390001af1e05,001,3,2025-04-15_07h08.26.086,avatar_quest_3AFC_legacy,2022.1.3,Win32,59.52380952,57b18b64f6b9390001af1e05,67fe37cb3bd870bba73819bd,67fe491c3e55fc59c12a3636,,,,,,,,,,,,,,,,,,,,,,With Brainslug Difficult 1 No Money,6,images/assets/snowy_original.jpg,learning,20,images/assets/success.jpg,images/assets/gameover.jpg,,,,,,,,,,,,,0,8,8,1,1,,,,,,,,,,,,,,,,,,,,,,,,,,,,,,,,
,,,,,,,,,,,,57b18b64f6b9390001af1e05,001,3,2025-04-15_07h08.26.086,avatar_quest_3AFC_legacy,2022.1.3,Win32,59.52380952,57b18b64f6b9390001af1e05,67fe37cb3bd870bba73819bd,67fe491c3e55fc59c12a3636,,,,,,,,,,,,,,,,,,,,,,No Brainslug No Barriers No Money,0,images/assets/snowy_original.jpg,learning,10,images/assets/success.jpg,images/assets/gameover.jpg,,,,,,,,,,,,,0,9,9,10,1,,,,,,,,,,,,,,,,,,,,,,,,,,,,,,,,
,,,,,,,,,,,,57b18b64f6b9390001af1e05,001,3,2025-04-15_07h08.26.086,avatar_quest_3AFC_legacy,2022.1.3,Win32,59.52380952,57b18b64f6b9390001af1e05,67fe37cb3bd870bba73819bd,67fe491c3e55fc59c12a3636,,,,,,,,,,,,,,,,,,,,,,With Brainslug Difficult 2 With Money,12,images/assets/snowy_money.jpg,learning,20,images/assets/success_money.jpg,images/assets/gameover.jpg,,,,,,,,,,,,,0,10,10,2,1,,,,,,,,,,,,,,,,,,,,,,,,,,,,,,,,
,,,,,,,,,,,,57b18b64f6b9390001af1e05,001,3,2025-04-15_07h08.26.086,avatar_quest_3AFC_legacy,2022.1.3,Win32,59.52380952,57b18b64f6b9390001af1e05,67fe37cb3bd870bba73819bd,67fe491c3e55fc59c12a3636,,,,,,,,,,,,,,,,,,,,,,,,,,,,,,,,,,,,,,,,,,,,,,,,,,,,,,,6,0,6,0,1,,,,,,,,,,,,,,,,,,
,,,,,,,,,,,,57b18b64f6b9390001af1e05,001,3,2025-04-15_07h08.26.086,avatar_quest_3AFC_legacy,2022.1.3,Win32,59.52380952,57b18b64f6b9390001af1e05,67fe37cb3bd870bba73819bd,67fe491c3e55fc59c12a3636,,,,,,,,,,,,,,,,,,,,,,No Brainslug No Barriers With Money,0,images/assets/snowy_money.jpg,learning,10,images/assets/success_money.jpg,images/assets/gameover.jpg,,,,,,,,With Brainslug Difficult 1 No Money,With Brainslug Difficult 1 No Money,left,2.0991,"[""With Brainslug Difficult 2 No Money"",""With Brainslug Difficult 2 With Money""]",0,0,0,9,1,,,,,,,,,,,,,,,,,,,,,,,,,,,,,,,,
,,,,,,,,,,,,57b18b64f6b9390001af1e05,001,3,2025-04-15_07h08.26.086,avatar_quest_3AFC_legacy,2022.1.3,Win32,59.52380952,57b18b64f6b9390001af1e05,67fe37cb3bd870bba73819bd,67fe491c3e55fc59c12a3636,,,,,,,,,,,,,,,,,,,,,,With Brainslug No Barriers With Money,0,images/assets/snowy_money.jpg,learning,10,images/assets/success_money.jpg,images/assets/gameover.jpg,,,,,,,,,,,,,0,1,1,4,1,,,,,,,,,,,,,,,,,,,,,,,,,,,,,,,,
,,,,,,,,,,,,57b18b64f6b9390001af1e05,001,3,2025-04-15_07h08.26.086,avatar_quest_3AFC_legacy,2022.1.3,Win32,59.52380952,57b18b64f6b9390001af1e05,67fe37cb3bd870bba73819bd,67fe491c3e55fc59c12a3636,,,,,,,,,,,,,,,,,,,,,,No Brainslug Difficult 2 With Money,12,images/assets/snowy_money.jpg,learning,20,images/assets/success_money.jpg,images/assets/gameover.jpg,,,,,,,,,,,,,0,2,2,7,1,,,,,,,,,,,,,,,,,,,,,,,,,,,,,,,,
,,,,,,,,,,,,57b18b64f6b9390001af1e05,001,3,2025-04-15_07h08.26.086,avatar_quest_3AFC_legacy,2022.1.3,Win32,59.52380952,57b18b64f6b9390001af1e05,67fe37cb3bd870bba73819bd,67fe491c3e55fc59c12a3636,,,,,,,,,,,,,,,,,,,,,,With Brainslug Difficult 2 No Money,12,images/assets/snowy_original.jpg,learning,20,images/assets/success.jpg,images/assets/gameover.jpg,,,,,,,,,,,,,0,3,3,3,1,,,,,,,,,,,,,,,,,,,,,,,,,,,,,,,,
,,,,,,,,,,,,57b18b64f6b9390001af1e05,001,3,2025-04-15_07h08.26.086,avatar_quest_3AFC_legacy,2022.1.3,Win32,59.52380952,57b18b64f6b9390001af1e05,67fe37cb3bd870bba73819bd,67fe491c3e55fc59c12a3636,,,,,,,,,,,,,,,,,,,,,,No Brainslug Difficult 2 No Money,12,images/assets/snowy_original.jpg,learning,20,images/assets/success.jpg,images/assets/gameover.jpg,,,,,,,,,,,,,0,4,4,8,1,,,,,,,,,,,,,,,,,,,,,,,,,,,,,,,,
,,,,,,,,,,,,57b18b64f6b9390001af1e05,001,3,2025-04-15_07h08.26.086,avatar_quest_3AFC_legacy,2022.1.3,Win32,59.52380952,57b18b64f6b9390001af1e05,67fe37cb3bd870bba73819bd,67fe491c3e55fc59c12a3636,"[""left"",""left"",""left"",""right"",""right"",""right"",""right"",""right"",""left"",""left"",""left"",""right"",""right"",""right"",""right"",""right"",""left"",""left"",""left"",""left"",""left"",""left""]","[0.5158999999761704,0.6931000000238328,0.8433000000119364,1.277100000023836,1.4603999999761754,1.610600000023851,1.7773000000119055,1.9111999999880709,2.4279999999999973,2.611499999999978,2.778500000000008,3.0286999999880777,3.228600000023846,3.4123000000118964,3.579100000023857,3.762699999988058,3.996399999976177,4.196399999976165,4.350300000011941,4.480100000023867,4.630100000023845,4.880300000011914]",,calibration,With Brainslug Difficult 1 No Money,11,13.29015,5.3599,14,0,0,TRUE,na,na,na,na,,,,,,,,,,,,,,,,,,,,,,,,,,,,,,,,,,0,0,0,0,1,,,,,,,,,,,,,,,,,,,,,,,
,,,,,,,,,,,,57b18b64f6b9390001af1e05,001,3,2025-04-15_07h08.26.086,avatar_quest_3AFC_legacy,2022.1.3,Win32,59.52380952,57b18b64f6b9390001af1e05,67fe37cb3bd870bba73819bd,67fe491c3e55fc59c12a3636,,,,,,,,,,,,,,,,,,,,,,With Brainslug Difficult 1 No Money,6,images/assets/snowy_original.jpg,learning,20,images/assets/success.jpg,images/assets/gameover.jpg,,,,,,,,,,,,,0,5,5,1,1,,,,,,,,,,,,,,,,,,,,,,,,,,,,,,,,
,,,,,,,,,,,,57b18b64f6b9390001af1e05,001,3,2025-04-15_07h08.26.086,avatar_quest_3AFC_legacy,2022.1.3,Win32,59.52380952,57b18b64f6b9390001af1e05,67fe37cb3bd870bba73819bd,67fe491c3e55fc59c12a3636,,,,,,,,,,,,,,,,,,,,,,With Brainslug Difficult 1 With Money,6,images/assets/snowy_money.jpg,learning,20,images/assets/success_money.jpg,images/assets/gameover.jpg,,,,,,,,,,,,,0,6,6,0,1,,,,,,,,,,,,,,,,,,,,,,,,,,,,,,,,
,,,,,,,,,,,,57b18b64f6b9390001af1e05,001,3,2025-04-15_07h08.26.086,avatar_quest_3AFC_legacy,2022.1.3,Win32,59.52380952,57b18b64f6b9390001af1e05,67fe37cb3bd870bba73819bd,67fe491c3e55fc59c12a3636,,,,,,,,,,,,,,,,,,,,,,No Brainslug No Barriers No Money,0,images/assets/snowy_original.jpg,learning,10,images/assets/success.jpg,images/assets/gameover.jpg,,,,,,,,,,,,,0,7,7,10,1,,,,,,,,,,,,,,,,,,,,,,,,,,,,,,,,
,,,,,,,,,,,,57b18b64f6b9390001af1e05,001,3,2025-04-15_07h08.26.086,avatar_quest_3AFC_legacy,2022.1.3,Win32,59.52380952,57b18b64f6b9390001af1e05,67fe37cb3bd870bba73819bd,67fe491c3e55fc59c12a3636,,,,,,,,,,,,,,,,,,,,,,With Brainslug No Barriers No Money,0,images/assets/snowy_original.jpg,learning,10,images/assets/success.jpg,images/assets/gameover.jpg,,,,,,,,,,,,,0,8,8,5,1,,,,,,,,,,,,,,,,,,,,,,,,,,,,,,,,
,,,,,,,,,,,,57b18b64f6b9390001af1e05,001,3,2025-04-15_07h08.26.086,avatar_quest_3AFC_legacy,2022.1.3,Win32,59.52380952,57b18b64f6b9390001af1e05,67fe37cb3bd870bba73819bd,67fe491c3e55fc59c12a3636,,,,,,,,,,,,,,,,,,,,,,No Brainslug Difficult 1 No Money,6,images/assets/snowy_original.jpg,learning,20,images/assets/success.jpg,images/assets/gameover.jpg,,,,,,,,,,,,,0,9,9,6,1,,,,,,,,,,,,,,,,,,,,,,,,,,,,,,,,
,,,,,,,,,,,,57b18b64f6b9390001af1e05,001,3,2025-04-15_07h08.26.086,avatar_quest_3AFC_legacy,2022.1.3,Win32,59.52380952,57b18b64f6b9390001af1e05,67fe37cb3bd870bba73819bd,67fe491c3e55fc59c12a3636,,,,,,,,,,,,,,,,,,,,,,With Brainslug Difficult 2 With Money,12,images/assets/snowy_money.jpg,learning,20,images/assets/success_money.jpg,images/assets/gameover.jpg,,,,,,,,,,,,,0,10,10,2,1,,,,,,,,,,,,,,,,,,,,,,,,,,,,,,,,
,,,,,,,,,,,,57b18b64f6b9390001af1e05,001,3,2025-04-15_07h08.26.086,avatar_quest_3AFC_legacy,2022.1.3,Win32,59.52380952,57b18b64f6b9390001af1e05,67fe37cb3bd870bba73819bd,67fe491c3e55fc59c12a3636,,,,,,,,,,,,,,,,,,,,,,,,,,,,,,,,,,,,,,,,,,,,,,,,,,,,,,,7,0,7,0,1,,,,,,,,,,,,,,,,,,
,,,,,,,,,,,,57b18b64f6b9390001af1e05,001,3,2025-04-15_07h08.26.086,avatar_quest_3AFC_legacy,2022.1.3,Win32,59.52380952,57b18b64f6b9390001af1e05,67fe37cb3bd870bba73819bd,67fe491c3e55fc59c12a3636,,,,,,,,,,,,,,,,,,,,,,No Brainslug No Barriers With Money,0,images/assets/snowy_money.jpg,learning,10,images/assets/success_money.jpg,images/assets/gameover.jpg,,,,,,,,With Brainslug Difficult 2 No Money,With Brainslug Difficult 1 No Money,down,1.3025,"[""With Brainslug Difficult 1 No Money"",""With Brainslug Difficult 2 With Money""]",0,0,0,9,1,,,,,,,,,,,,,,,,,,,,,,,,,,,,,,,,
,,,,,,,,,,,,57b18b64f6b9390001af1e05,001,3,2025-04-15_07h08.26.086,avatar_quest_3AFC_legacy,2022.1.3,Win32,59.52380952,57b18b64f6b9390001af1e05,67fe37cb3bd870bba73819bd,67fe491c3e55fc59c12a3636,,,,,,,,,,,,,,,,,,,,,,With Brainslug Difficult 2 With Money,12,images/assets/snowy_money.jpg,learning,20,images/assets/success_money.jpg,images/assets/gameover.jpg,,,,,,,,,,,,,0,1,1,2,1,,,,,,,,,,,,,,,,,,,,,,,,,,,,,,,,
,,,,,,,,,,,,57b18b64f6b9390001af1e05,001,3,2025-04-15_07h08.26.086,avatar_quest_3AFC_legacy,2022.1.3,Win32,59.52380952,57b18b64f6b9390001af1e05,67fe37cb3bd870bba73819bd,67fe491c3e55fc59c12a3636,"[""left"",""left"",""left"",""right"",""right"",""right"",""right"",""left"",""left"",""left"",""left"",""left"",""left"",""right"",""right"",""left"",""left"",""right"",""right"",""right"",""right"",""right"",""right"",""left"",""left"",""left"",""right"",""left"",""left"",""right"",""right"",""left"",""left"",""left"",""left"",""left"",""left"",""right"",""right"",""right""]","[0.4614000000357237,0.6609000000357241,0.8271999999880677,1.0626999999880695,1.2451000000237968,1.4029999999999632,1.552800000011871,1.8369000000357119,2.053699999988055,2.2041999999880773,2.3876000000238378,2.6881000000238373,2.887999999999977,3.371900000035737,3.5888000000118723,3.772400000035759,4.089300000011917,4.272900000035747,4.556499999999971,4.906800000011913,5.390400000035754,5.941300000011893,6.574999999999989,6.925400000035722,7.175800000011918,7.342199999988054,7.609300000011899,8.34319999998803,8.593699999988075,8.894199999988075,9.160699999988026,9.477900000035731,9.744699999988029,10.061900000035735,10.278699999988078,10.428900000035753,10.562300000011874,10.745699999988062,11.379900000035718,11.630100000023845]",,calibration,With Brainslug Difficult 2 No Money,12,13.29015,13.3013,17,9,0,FALSE,na,na,na,na,,,,,,,,,,,,,,,,,,,,,,,,,,,,,,,,,,0,0,0,0,1,,,,,,,,,,,,,,,,,,,,,,,
,,,,,,,,,,,,57b18b64f6b9390001af1e05,001,3,2025-04-15_07h08.26.086,avatar_quest_3AFC_legacy,2022.1.3,Win32,59.52380952,57b18b64f6b9390001af1e05,67fe37cb3bd870bba73819bd,67fe491c3e55fc59c12a3636,,,,,,,,,,,,,,,,,,,,,,With Brainslug Difficult 2 No Money,12,images/assets/snowy_original.jpg,learning,20,images/assets/success.jpg,images/assets/gameover.jpg,,,,,,,,,,,,,0,2,2,3,1,,,,,,,,,,,,,,,,,,,,,,,,,,,,,,,,
,,,,,,,,,,,,57b18b64f6b9390001af1e05,001,3,2025-04-15_07h08.26.086,avatar_quest_3AFC_legacy,2022.1.3,Win32,59.52380952,57b18b64f6b9390001af1e05,67fe37cb3bd870bba73819bd,67fe491c3e55fc59c12a3636,,,,,,,,,,,,,,,,,,,,,,No Brainslug No Barriers No Money,0,images/assets/snowy_original.jpg,learning,10,images/assets/success.jpg,images/assets/gameover.jpg,,,,,,,,,,,,,0,3,3,10,1,,,,,,,,,,,,,,,,,,,,,,,,,,,,,,,,
,,,,,,,,,,,,57b18b64f6b9390001af1e05,001,3,2025-04-15_07h08.26.086,avatar_quest_3AFC_legacy,2022.1.3,Win32,59.52380952,57b18b64f6b9390001af1e05,67fe37cb3bd870bba73819bd,67fe491c3e55fc59c12a3636,,,,,,,,,,,,,,,,,,,,,,No Brainslug Difficult 2 With Money,12,images/assets/snowy_money.jpg,learning,20,images/assets/success_money.jpg,images/assets/gameover.jpg,,,,,,,,,,,,,0,4,4,7,1,,,,,,,,,,,,,,,,,,,,,,,,,,,,,,,,
,,,,,,,,,,,,57b18b64f6b9390001af1e05,001,3,2025-04-15_07h08.26.086,avatar_quest_3AFC_legacy,2022.1.3,Win32,59.52380952,57b18b64f6b9390001af1e05,67fe37cb3bd870bba73819bd,67fe491c3e55fc59c12a3636,,,,,,,,,,,,,,,,,,,,,,With Brainslug Difficult 1 No Money,6,images/assets/snowy_original.jpg,learning,20,images/assets/success.jpg,images/assets/gameover.jpg,,,,,,,,,,,,,0,5,5,1,1,,,,,,,,,,,,,,,,,,,,,,,,,,,,,,,,
,,,,,,,,,,,,57b18b64f6b9390001af1e05,001,3,2025-04-15_07h08.26.086,avatar_quest_3AFC_legacy,2022.1.3,Win32,59.52380952,57b18b64f6b9390001af1e05,67fe37cb3bd870bba73819bd,67fe491c3e55fc59c12a3636,,,,,,,,,,,,,,,,,,,,,,With Brainslug No Barriers With Money,0,images/assets/snowy_money.jpg,learning,10,images/assets/success_money.jpg,images/assets/gameover.jpg,,,,,,,,,,,,,0,6,6,4,1,,,,,,,,,,,,,,,,,,,,,,,,,,,,,,,,
,,,,,,,,,,,,57b18b64f6b9390001af1e05,001,3,2025-04-15_07h08.26.086,avatar_quest_3AFC_legacy,2022.1.3,Win32,59.52380952,57b18b64f6b9390001af1e05,67fe37cb3bd870bba73819bd,67fe491c3e55fc59c12a3636,,,,,,,,,,,,,,,,,,,,,,With Brainslug Difficult 1 With Money,6,images/assets/snowy_money.jpg,learning,20,images/assets/success_money.jpg,images/assets/gameover.jpg,,,,,,,,,,,,,0,7,7,0,1,,,,,,,,,,,,,,,,,,,,,,,,,,,,,,,,
,,,,,,,,,,,,57b18b64f6b9390001af1e05,001,3,2025-04-15_07h08.26.086,avatar_quest_3AFC_legacy,2022.1.3,Win32,59.52380952,57b18b64f6b9390001af1e05,67fe37cb3bd870bba73819bd,67fe491c3e55fc59c12a3636,,,,,,,,,,,,,,,,,,,,,,With Brainslug No Barriers No Money,0,images/assets/snowy_original.jpg,learning,10,images/assets/success.jpg,images/assets/gameover.jpg,,,,,,,,,,,,,0,8,8,5,1,,,,,,,,,,,,,,,,,,,,,,,,,,,,,,,,
,,,,,,,,,,,,57b18b64f6b9390001af1e05,001,3,2025-04-15_07h08.26.086,avatar_quest_3AFC_legacy,2022.1.3,Win32,59.52380952,57b18b64f6b9390001af1e05,67fe37cb3bd870bba73819bd,67fe491c3e55fc59c12a3636,,,,,,,,,,,,,,,,,,,,,,No Brainslug Difficult 2 No Money,12,images/assets/snowy_original.jpg,learning,20,images/assets/success.jpg,images/assets/gameover.jpg,,,,,,,,,,,,,0,9,9,8,1,,,,,,,,,,,,,,,,,,,,,,,,,,,,,,,,
,,,,,,,,,,,,57b18b64f6b9390001af1e05,001,3,2025-04-15_07h08.26.086,avatar_quest_3AFC_legacy,2022.1.3,Win32,59.52380952,57b18b64f6b9390001af1e05,67fe37cb3bd870bba73819bd,67fe491c3e55fc59c12a3636,,,,,,,,,,,,,,,,,,,,,,No Brainslug Difficult 1 No Money,6,images/assets/snowy_original.jpg,learning,20,images/assets/success.jpg,images/assets/gameover.jpg,,,,,,,,,,,,,0,10,10,6,1,,,,,,,,,,,,,,,,,,,,,,,,,,,,,,,,
,,,,,,,,,,,,57b18b64f6b9390001af1e05,001,3,2025-04-15_07h08.26.086,avatar_quest_3AFC_legacy,2022.1.3,Win32,59.52380952,57b18b64f6b9390001af1e05,67fe37cb3bd870bba73819bd,67fe491c3e55fc59c12a3636,,,,,,,,,,,,,,,,,,,,,,,,,,,,,,,,,,,,,,,,,,,,,,,,,,,,,,,8,0,8,0,1,,,,,,,,,,,,,,,,,,
,,,,,,,,,,,,57b18b64f6b9390001af1e05,001,3,2025-04-15_07h08.26.086,avatar_quest_3AFC_legacy,2022.1.3,Win32,59.52380952,57b18b64f6b9390001af1e05,67fe37cb3bd870bba73819bd,67fe491c3e55fc59c12a3636,,,,,,,,,,,,,,,,,,,,,,With Brainslug No Barriers With Money,0,images/assets/snowy_money.jpg,learning,10,images/assets/success_money.jpg,images/assets/gameover.jpg,,,,,,,,With Brainslug Difficult 1 No Money,With Brainslug Difficult 1 No Money,left,1.0706,"[""With Brainslug Difficult 2 No Money"",""With Brainslug Difficult 2 With Money""]",0,0,0,4,1,,,,,,,,,,,,,,,,,,,,,,,,,,,,,,,,
,,,,,,,,,,,,57b18b64f6b9390001af1e05,001,3,2025-04-15_07h08.26.086,avatar_quest_3AFC_legacy,2022.1.3,Win32,59.52380952,57b18b64f6b9390001af1e05,67fe37cb3bd870bba73819bd,67fe491c3e55fc59c12a3636,,,,,,,,,,,,,,,,,,,,,,No Brainslug Difficult 1 No Money,6,images/assets/snowy_original.jpg,learning,20,images/assets/success.jpg,images/assets/gameover.jpg,,,,,,,,,,,,,0,1,1,6,1,,,,,,,,,,,,,,,,,,,,,,,,,,,,,,,,
,,,,,,,,,,,,57b18b64f6b9390001af1e05,001,3,2025-04-15_07h08.26.086,avatar_quest_3AFC_legacy,2022.1.3,Win32,59.52380952,57b18b64f6b9390001af1e05,67fe37cb3bd870bba73819bd,67fe491c3e55fc59c12a3636,"[""left"",""left"",""left"",""right"",""right"",""right"",""left"",""left"",""right"",""right"",""left"",""right"",""right"",""left"",""left"",""left"",""right"",""right"",""right"",""right"",""left"",""left""]","[0.6339999999999577,0.8184999999999718,1.0187999999523072,1.2525999999642181,1.4682999999523076,1.6358999999761181,3.1558999999761568,3.3546999999880427,3.8716999999880386,4.1552999999523195,4.589199999988068,5.089399999976138,5.324599999964221,5.557099999964237,5.807999999999993,5.990199999988079,6.329599999964216,6.557299999952306,6.806499999999971,7.208699999988028,7.824999999999989,8.04269999998803]",,calibration,With Brainslug Difficult 1 No Money,13,13.29015,8.6913,13,4,0,TRUE,na,na,na,na,,,,,,,,,,,,,,,,,,,,,,,,,,,,,,,,,,0,0,0,0,1,,,,,,,,,,,,,,,,,,,,,,,
,,,,,,,,,,,,57b18b64f6b9390001af1e05,001,3,2025-04-15_07h08.26.086,avatar_quest_3AFC_legacy,2022.1.3,Win32,59.52380952,57b18b64f6b9390001af1e05,67fe37cb3bd870bba73819bd,67fe491c3e55fc59c12a3636,,,,,,,,,,,,,,,,,,,,,,With Brainslug Difficult 1 No Money,6,images/assets/snowy_original.jpg,learning,20,images/assets/success.jpg,images/assets/gameover.jpg,,,,,,,,,,,,,0,2,2,1,1,,,,,,,,,,,,,,,,,,,,,,,,,,,,,,,,
,,,,,,,,,,,,57b18b64f6b9390001af1e05,001,3,2025-04-15_07h08.26.086,avatar_quest_3AFC_legacy,2022.1.3,Win32,59.52380952,57b18b64f6b9390001af1e05,67fe37cb3bd870bba73819bd,67fe491c3e55fc59c12a3636,,,,,,,,,,,,,,,,,,,,,,No Brainslug Difficult 2 With Money,12,images/assets/snowy_money.jpg,learning,20,images/assets/success_money.jpg,images/assets/gameover.jpg,,,,,,,,,,,,,0,3,3,7,1,,,,,,,,,,,,,,,,,,,,,,,,,,,,,,,,
,,,,,,,,,,,,57b18b64f6b9390001af1e05,001,3,2025-04-15_07h08.26.086,avatar_quest_3AFC_legacy,2022.1.3,Win32,59.52380952,57b18b64f6b9390001af1e05,67fe37cb3bd870bba73819bd,67fe491c3e55fc59c12a3636,,,,,,,,,,,,,,,,,,,,,,No Brainslug Difficult 2 No Money,12,images/assets/snowy_original.jpg,learning,20,images/assets/success.jpg,images/assets/gameover.jpg,,,,,,,,,,,,,0,4,4,8,1,,,,,,,,,,,,,,,,,,,,,,,,,,,,,,,,
,,,,,,,,,,,,57b18b64f6b9390001af1e05,001,3,2025-04-15_07h08.26.086,avatar_quest_3AFC_legacy,2022.1.3,Win32,59.52380952,57b18b64f6b9390001af1e05,67fe37cb3bd870bba73819bd,67fe491c3e55fc59c12a3636,,,,,,,,,,,,,,,,,,,,,,With Brainslug Difficult 1 With Money,6,images/assets/snowy_money.jpg,learning,20,images/assets/success_money.jpg,images/assets/gameover.jpg,,,,,,,,,,,,,0,5,5,0,1,,,,,,,,,,,,,,,,,,,,,,,,,,,,,,,,
,,,,,,,,,,,,57b18b64f6b9390001af1e05,001,3,2025-04-15_07h08.26.086,avatar_quest_3AFC_legacy,2022.1.3,Win32,59.52380952,57b18b64f6b9390001af1e05,67fe37cb3bd870bba73819bd,67fe491c3e55fc59c12a3636,,,,,,,,,,,,,,,,,,,,,,No Brainslug No Barriers With Money,0,images/assets/snowy_money.jpg,learning,10,images/assets/success_money.jpg,images/assets/gameover.jpg,,,,,,,,,,,,,0,6,6,9,1,,,,,,,,,,,,,,,,,,,,,,,,,,,,,,,,
,,,,,,,,,,,,57b18b64f6b9390001af1e05,001,3,2025-04-15_07h08.26.086,avatar_quest_3AFC_legacy,2022.1.3,Win32,59.52380952,57b18b64f6b9390001af1e05,67fe37cb3bd870bba73819bd,67fe491c3e55fc59c12a3636,,,,,,,,,,,,,,,,,,,,,,With Brainslug No Barriers No Money,0,images/assets/snowy_original.jpg,learning,10,images/assets/success.jpg,images/assets/gameover.jpg,,,,,,,,,,,,,0,7,7,5,1,,,,,,,,,,,,,,,,,,,,,,,,,,,,,,,,
,,,,,,,,,,,,57b18b64f6b9390001af1e05,001,3,2025-04-15_07h08.26.086,avatar_quest_3AFC_legacy,2022.1.3,Win32,59.52380952,57b18b64f6b9390001af1e05,67fe37cb3bd870bba73819bd,67fe491c3e55fc59c12a3636,,,,,,,,,,,,,,,,,,,,,,No Brainslug No Barriers No Money,0,images/assets/snowy_original.jpg,learning,10,images/assets/success.jpg,images/assets/gameover.jpg,,,,,,,,,,,,,0,8,8,10,1,,,,,,,,,,,,,,,,,,,,,,,,,,,,,,,,
,,,,,,,,,,,,57b18b64f6b9390001af1e05,001,3,2025-04-15_07h08.26.086,avatar_quest_3AFC_legacy,2022.1.3,Win32,59.52380952,57b18b64f6b9390001af1e05,67fe37cb3bd870bba73819bd,67fe491c3e55fc59c12a3636,,,,,,,,,,,,,,,,,,,,,,With Brainslug Difficult 2 No Money,12,images/assets/snowy_original.jpg,learning,20,images/assets/success.jpg,images/assets/gameover.jpg,,,,,,,,,,,,,0,9,9,3,1,,,,,,,,,,,,,,,,,,,,,,,,,,,,,,,,
,,,,,,,,,,,,57b18b64f6b9390001af1e05,001,3,2025-04-15_07h08.26.086,avatar_quest_3AFC_legacy,2022.1.3,Win32,59.52380952,57b18b64f6b9390001af1e05,67fe37cb3bd870bba73819bd,67fe491c3e55fc59c12a3636,,,,,,,,,,,,,,,,,,,,,,With Brainslug Difficult 2 With Money,12,images/assets/snowy_money.jpg,learning,20,images/assets/success_money.jpg,images/assets/gameover.jpg,,,,,,,,,,,,,0,10,10,2,1,,,,,,,,,,,,,,,,,,,,,,,,,,,,,,,,
,,,,,,,,,,,,57b18b64f6b9390001af1e05,001,3,2025-04-15_07h08.26.086,avatar_quest_3AFC_legacy,2022.1.3,Win32,59.52380952,57b18b64f6b9390001af1e05,67fe37cb3bd870bba73819bd,67fe491c3e55fc59c12a3636,,,,,,,,,,,,,,,,,,,,,,,,,,,,,,,,,,,,,,,,,,,,,,,,,,,,,,,9,0,9,0,1,,,,,,,,,,,,,,,,,,
,,,,,,,,,,,,57b18b64f6b9390001af1e05,001,3,2025-04-15_07h08.26.086,avatar_quest_3AFC_legacy,2022.1.3,Win32,59.52380952,57b18b64f6b9390001af1e05,67fe37cb3bd870bba73819bd,67fe491c3e55fc59c12a3636,,,,,,,,,,,,,,,,,,,,,,With Brainslug Difficult 2 With Money,12,images/assets/snowy_money.jpg,learning,20,images/assets/success_money.jpg,images/assets/gameover.jpg,,,,,,,,With Brainslug Difficult 1 No Money,With Brainslug Difficult 1 No Money,left,0.6954,"[""With Brainslug Difficult 2 No Money"",""With Brainslug Difficult 2 With Money""]",0,0,0,2,1,,,,,,,,,,,,,,,,,,,,,,,,,,,,,,,,
,,,,,,,,,,,,57b18b64f6b9390001af1e05,001,3,2025-04-15_07h08.26.086,avatar_quest_3AFC_legacy,2022.1.3,Win32,59.52380952,57b18b64f6b9390001af1e05,67fe37cb3bd870bba73819bd,67fe491c3e55fc59c12a3636,,,,,,,,,,,,,,,,,,,,,,No Brainslug Difficult 2 No Money,12,images/assets/snowy_original.jpg,learning,20,images/assets/success.jpg,images/assets/gameover.jpg,,,,,,,,,,,,,0,1,1,8,1,,,,,,,,,,,,,,,,,,,,,,,,,,,,,,,,
,,,,,,,,,,,,57b18b64f6b9390001af1e05,001,3,2025-04-15_07h08.26.086,avatar_quest_3AFC_legacy,2022.1.3,Win32,59.52380952,57b18b64f6b9390001af1e05,67fe37cb3bd870bba73819bd,67fe491c3e55fc59c12a3636,"[""left"",""left"",""left"",""left"",""right"",""right"",""right"",""left"",""left"",""left"",""right"",""right"",""right"",""right"",""right"",""right"",""left"",""left"",""left"",""left"",""left"",""left"",""left""]","[0.5073000000119237,0.6998000000119191,1.06639999997617,1.3668000000119491,1.6668999999761809,1.9351000000238514,2.151699999988068,2.3866000000238614,2.6023999999761713,2.7681999999880986,3.21939999997619,3.4368000000119423,3.5881000000238714,3.919600000023877,4.171699999988107,4.537699999988092,5.138199999988103,5.388100000023883,5.571600000023864,5.739100000023882,6.03819999998808,6.505800000011959,6.756000000000029]",,calibration,With Brainslug Difficult 1 No Money,14,13.29015,7.1568,13,2,0,TRUE,na,na,na,na,,,,,,,,,,,,,,,,,,,,,,,,,,,,,,,,,,0,0,0,0,1,,,,,,,,,,,,,,,,,,,,,,,
,,,,,,,,,,,,57b18b64f6b9390001af1e05,001,3,2025-04-15_07h08.26.086,avatar_quest_3AFC_legacy,2022.1.3,Win32,59.52380952,57b18b64f6b9390001af1e05,67fe37cb3bd870bba73819bd,67fe491c3e55fc59c12a3636,,,,,,,,,,,,,,,,,,,,,,With Brainslug Difficult 1 No Money,6,images/assets/snowy_original.jpg,learning,20,images/assets/success.jpg,images/assets/gameover.jpg,,,,,,,,,,,,,0,2,2,1,1,,,,,,,,,,,,,,,,,,,,,,,,,,,,,,,,
,,,,,,,,,,,,57b18b64f6b9390001af1e05,001,3,2025-04-15_07h08.26.086,avatar_quest_3AFC_legacy,2022.1.3,Win32,59.52380952,57b18b64f6b9390001af1e05,67fe37cb3bd870bba73819bd,67fe491c3e55fc59c12a3636,,,,,,,,,,,,,,,,,,,,,,No Brainslug Difficult 1 No Money,6,images/assets/snowy_original.jpg,learning,20,images/assets/success.jpg,images/assets/gameover.jpg,,,,,,,,,,,,,0,3,3,6,1,,,,,,,,,,,,,,,,,,,,,,,,,,,,,,,,
,,,,,,,,,,,,57b18b64f6b9390001af1e05,001,3,2025-04-15_07h08.26.086,avatar_quest_3AFC_legacy,2022.1.3,Win32,59.52380952,57b18b64f6b9390001af1e05,67fe37cb3bd870bba73819bd,67fe491c3e55fc59c12a3636,,,,,,,,,,,,,,,,,,,,,,With Brainslug Difficult 2 No Money,12,images/assets/snowy_original.jpg,learning,20,images/assets/success.jpg,images/assets/gameover.jpg,,,,,,,,,,,,,0,4,4,3,1,,,,,,,,,,,,,,,,,,,,,,,,,,,,,,,,
,,,,,,,,,,,,57b18b64f6b9390001af1e05,001,3,2025-04-15_07h08.26.086,avatar_quest_3AFC_legacy,2022.1.3,Win32,59.52380952,57b18b64f6b9390001af1e05,67fe37cb3bd870bba73819bd,67fe491c3e55fc59c12a3636,,,,,,,,,,,,,,,,,,,,,,With Brainslug No Barriers No Money,0,images/assets/snowy_original.jpg,learning,10,images/assets/success.jpg,images/assets/gameover.jpg,,,,,,,,,,,,,0,5,5,5,1,,,,,,,,,,,,,,,,,,,,,,,,,,,,,,,,
,,,,,,,,,,,,57b18b64f6b9390001af1e05,001,3,2025-04-15_07h08.26.086,avatar_quest_3AFC_legacy,2022.1.3,Win32,59.52380952,57b18b64f6b9390001af1e05,67fe37cb3bd870bba73819bd,67fe491c3e55fc59c12a3636,,,,,,,,,,,,,,,,,,,,,,With Brainslug No Barriers With Money,0,images/assets/snowy_money.jpg,learning,10,images/assets/success_money.jpg,images/assets/gameover.jpg,,,,,,,,,,,,,0,6,6,4,1,,,,,,,,,,,,,,,,,,,,,,,,,,,,,,,,
,,,,,,,,,,,,57b18b64f6b9390001af1e05,001,3,2025-04-15_07h08.26.086,avatar_quest_3AFC_legacy,2022.1.3,Win32,59.52380952,57b18b64f6b9390001af1e05,67fe37cb3bd870bba73819bd,67fe491c3e55fc59c12a3636,,,,,,,,,,,,,,,,,,,,,,With Brainslug Difficult 1 With Money,6,images/assets/snowy_money.jpg,learning,20,images/assets/success_money.jpg,images/assets/gameover.jpg,,,,,,,,,,,,,0,7,7,0,1,,,,,,,,,,,,,,,,,,,,,,,,,,,,,,,,
,,,,,,,,,,,,57b18b64f6b9390001af1e05,001,3,2025-04-15_07h08.26.086,avatar_quest_3AFC_legacy,2022.1.3,Win32,59.52380952,57b18b64f6b9390001af1e05,67fe37cb3bd870bba73819bd,67fe491c3e55fc59c12a3636,,,,,,,,,,,,,,,,,,,,,,No Brainslug No Barriers With Money,0,images/assets/snowy_money.jpg,learning,10,images/assets/success_money.jpg,images/assets/gameover.jpg,,,,,,,,,,,,,0,8,8,9,1,,,,,,,,,,,,,,,,,,,,,,,,,,,,,,,,
,,,,,,,,,,,,57b18b64f6b9390001af1e05,001,3,2025-04-15_07h08.26.086,avatar_quest_3AFC_legacy,2022.1.3,Win32,59.52380952,57b18b64f6b9390001af1e05,67fe37cb3bd870bba73819bd,67fe491c3e55fc59c12a3636,,,,,,,,,,,,,,,,,,,,,,No Brainslug No Barriers No Money,0,images/assets/snowy_original.jpg,learning,10,images/assets/success.jpg,images/assets/gameover.jpg,,,,,,,,,,,,,0,9,9,10,1,,,,,,,,,,,,,,,,,,,,,,,,,,,,,,,,
,,,,,,,,,,,,57b18b64f6b9390001af1e05,001,3,2025-04-15_07h08.26.086,avatar_quest_3AFC_legacy,2022.1.3,Win32,59.52380952,57b18b64f6b9390001af1e05,67fe37cb3bd870bba73819bd,67fe491c3e55fc59c12a3636,,,,,,,,,,,,,,,,,,,,,,No Brainslug Difficult 2 With Money,12,images/assets/snowy_money.jpg,learning,20,images/assets/success_money.jpg,images/assets/gameover.jpg,,,,,,,,,,,,,0,10,10,7,1,,,,,,,,,,,,,,,,,,,,,,,,,,,,,,,,
,,,,,,,,,,,,57b18b64f6b9390001af1e05,001,3,2025-04-15_07h08.26.086,avatar_quest_3AFC_legacy,2022.1.3,Win32,59.52380952,57b18b64f6b9390001af1e05,67fe37cb3bd870bba73819bd,67fe491c3e55fc59c12a3636,,,,,,,,,,,,,,,,,,,,,,,,,,,,,,,,,,,,,,,,,,,,,,,,,,,,,,,10,0,10,0,1,,,,,,,,,,,,,,,,,,
,,,,,,,,,,,,57b18b64f6b9390001af1e05,001,3,2025-04-15_07h08.26.086,avatar_quest_3AFC_legacy,2022.1.3,Win32,59.52380952,57b18b64f6b9390001af1e05,67fe37cb3bd870bba73819bd,67fe491c3e55fc59c12a3636,,,,,,,,,,,,,,,,,,,,,,No Brainslug Difficult 2 With Money,12,images/assets/snowy_money.jpg,learning,20,images/assets/success_money.jpg,images/assets/gameover.jpg,,,,,,,,With Brainslug Difficult 1 No Money,With Brainslug Difficult 1 No Money,left,2.7259,"[""With Brainslug Difficult 2 No Money"",""With Brainslug Difficult 2 With Money""]",0,0,0,7,1,,,,,,,,,,,,,,,,,,,,,,,,,,,,,,,,
,,,,,,,,,,,,57b18b64f6b9390001af1e05,001,3,2025-04-15_07h08.26.086,avatar_quest_3AFC_legacy,2022.1.3,Win32,59.52380952,57b18b64f6b9390001af1e05,67fe37cb3bd870bba73819bd,67fe491c3e55fc59c12a3636,"[""left"",""left"",""right"",""right"",""left"",""left"",""left"",""left"",""left"",""left"",""left"",""left"",""left"",""left"",""left"",""left"",""left"",""right"",""left"",""left"",""left"",""left""]","[0.5486999999881164,1.0010000000000332,1.3991999999881273,1.63279999995234,2.149799999952336,2.8410999999642854,3.208099999964247,3.4582999999523167,3.7583999999761772,4.0421999999880995,4.376000000000033,4.692799999952342,4.959699999988118,5.226899999976183,5.527000000000044,5.760299999952338,6.0110999999642445,6.895299999952329,7.412399999976174,7.712500000000034,7.862599999964232,8.196500000000015]",,calibration,With Brainslug Difficult 1 No Money,15,13.29015,8.6298,8,3,0,TRUE,na,na,na,na,,,,,,,,,,,,,,,,,,,,,,,,,,,,,,,,,,0,0,0,0,1,,,,,,,,,,,,,,,,,,,,,,,
,,,,,,,,,,,,57b18b64f6b9390001af1e05,001,3,2025-04-15_07h08.26.086,avatar_quest_3AFC_legacy,2022.1.3,Win32,59.52380952,57b18b64f6b9390001af1e05,67fe37cb3bd870bba73819bd,67fe491c3e55fc59c12a3636,,,,,,,,,,,,,,,,,,,,,,With Brainslug Difficult 1 No Money,6,images/assets/snowy_original.jpg,learning,20,images/assets/success.jpg,images/assets/gameover.jpg,,,,,,,,,,,,,0,1,1,1,1,,,,,,,,,,,,,,,,,,,,,,,,,,,,,,,,
,,,,,,,,,,,,57b18b64f6b9390001af1e05,001,3,2025-04-15_07h08.26.086,avatar_quest_3AFC_legacy,2022.1.3,Win32,59.52380952,57b18b64f6b9390001af1e05,67fe37cb3bd870bba73819bd,67fe491c3e55fc59c12a3636,,,,,,,,,,,,,,,,,,,,,,No Brainslug No Barriers With Money,0,images/assets/snowy_money.jpg,learning,10,images/assets/success_money.jpg,images/assets/gameover.jpg,,,,,,,,,,,,,0,2,2,9,1,,,,,,,,,,,,,,,,,,,,,,,,,,,,,,,,
,,,,,,,,,,,,57b18b64f6b9390001af1e05,001,3,2025-04-15_07h08.26.086,avatar_quest_3AFC_legacy,2022.1.3,Win32,59.52380952,57b18b64f6b9390001af1e05,67fe37cb3bd870bba73819bd,67fe491c3e55fc59c12a3636,,,,,,,,,,,,,,,,,,,,,,With Brainslug No Barriers No Money,0,images/assets/snowy_original.jpg,learning,10,images/assets/success.jpg,images/assets/gameover.jpg,,,,,,,,,,,,,0,3,3,5,1,,,,,,,,,,,,,,,,,,,,,,,,,,,,,,,,
,,,,,,,,,,,,57b18b64f6b9390001af1e05,001,3,2025-04-15_07h08.26.086,avatar_quest_3AFC_legacy,2022.1.3,Win32,59.52380952,57b18b64f6b9390001af1e05,67fe37cb3bd870bba73819bd,67fe491c3e55fc59c12a3636,,,,,,,,,,,,,,,,,,,,,,With Brainslug Difficult 2 With Money,12,images/assets/snowy_money.jpg,learning,20,images/assets/success_money.jpg,images/assets/gameover.jpg,,,,,,,,,,,,,0,4,4,2,1,,,,,,,,,,,,,,,,,,,,,,,,,,,,,,,,
,,,,,,,,,,,,57b18b64f6b9390001af1e05,001,3,2025-04-15_07h08.26.086,avatar_quest_3AFC_legacy,2022.1.3,Win32,59.52380952,57b18b64f6b9390001af1e05,67fe37cb3bd870bba73819bd,67fe491c3e55fc59c12a3636,,,,,,,,,,,,,,,,,,,,,,No Brainslug Difficult 2 No Money,12,images/assets/snowy_original.jpg,learning,20,images/assets/success.jpg,images/assets/gameover.jpg,,,,,,,,,,,,,0,5,5,8,1,,,,,,,,,,,,,,,,,,,,,,,,,,,,,,,,
,,,,,,,,,,,,57b18b64f6b9390001af1e05,001,3,2025-04-15_07h08.26.086,avatar_quest_3AFC_legacy,2022.1.3,Win32,59.52380952,57b18b64f6b9390001af1e05,67fe37cb3bd870bba73819bd,67fe491c3e55fc59c12a3636,,,,,,,,,,,,,,,,,,,,,,With Brainslug Difficult 1 With Money,6,images/assets/snowy_money.jpg,learning,20,images/assets/success_money.jpg,images/assets/gameover.jpg,,,,,,,,,,,,,0,6,6,0,1,,,,,,,,,,,,,,,,,,,,,,,,,,,,,,,,
,,,,,,,,,,,,57b18b64f6b9390001af1e05,001,3,2025-04-15_07h08.26.086,avatar_quest_3AFC_legacy,2022.1.3,Win32,59.52380952,57b18b64f6b9390001af1e05,67fe37cb3bd870bba73819bd,67fe491c3e55fc59c12a3636,,,,,,,,,,,,,,,,,,,,,,No Brainslug Difficult 1 No Money,6,images/assets/snowy_original.jpg,learning,20,images/assets/success.jpg,images/assets/gameover.jpg,,,,,,,,,,,,,0,7,7,6,1,,,,,,,,,,,,,,,,,,,,,,,,,,,,,,,,
,,,,,,,,,,,,57b18b64f6b9390001af1e05,001,3,2025-04-15_07h08.26.086,avatar_quest_3AFC_legacy,2022.1.3,Win32,59.52380952,57b18b64f6b9390001af1e05,67fe37cb3bd870bba73819bd,67fe491c3e55fc59c12a3636,,,,,,,,,,,,,,,,,,,,,,With Brainslug No Barriers With Money,0,images/assets/snowy_money.jpg,learning,10,images/assets/success_money.jpg,images/assets/gameover.jpg,,,,,,,,,,,,,0,8,8,4,1,,,,,,,,,,,,,,,,,,,,,,,,,,,,,,,,
,,,,,,,,,,,,57b18b64f6b9390001af1e05,001,3,2025-04-15_07h08.26.086,avatar_quest_3AFC_legacy,2022.1.3,Win32,59.52380952,57b18b64f6b9390001af1e05,67fe37cb3bd870bba73819bd,67fe491c3e55fc59c12a3636,,,,,,,,,,,,,,,,,,,,,,No Brainslug No Barriers No Money,0,images/assets/snowy_original.jpg,learning,10,images/assets/success.jpg,images/assets/gameover.jpg,,,,,,,,,,,,,0,9,9,10,1,,,,,,,,,,,,,,,,,,,,,,,,,,,,,,,,
,,,,,,,,,,,,57b18b64f6b9390001af1e05,001,3,2025-04-15_07h08.26.086,avatar_quest_3AFC_legacy,2022.1.3,Win32,59.52380952,57b18b64f6b9390001af1e05,67fe37cb3bd870bba73819bd,67fe491c3e55fc59c12a3636,,,,,,,,,,,,,,,,,,,,,,With Brainslug Difficult 2 No Money,12,images/assets/snowy_original.jpg,learning,20,images/assets/success.jpg,images/assets/gameover.jpg,,,,,,,,,,,,,0,10,10,3,1,,,,,,,,,,,,,,,,,,,,,,,,,,,,,,,,
,,,,,,,,,,,,57b18b64f6b9390001af1e05,001,3,2025-04-15_07h08.26.086,avatar_quest_3AFC_legacy,2022.1.3,Win32,59.52380952,57b18b64f6b9390001af1e05,67fe37cb3bd870bba73819bd,67fe491c3e55fc59c12a3636,,,,,,,,,,,,,,,,,,,,,,,,,,,,,,,,,,,,,,,,,,,,,,,,,,,,,,,11,0,11,0,1,,,,,,,,,,,,,,,,,,
,,,,,,,,,,,,57b18b64f6b9390001af1e05,001,3,2025-04-15_07h08.26.086,avatar_quest_3AFC_legacy,2022.1.3,Win32,59.52380952,57b18b64f6b9390001af1e05,67fe37cb3bd870bba73819bd,67fe491c3e55fc59c12a3636,,,,,,,,,,,,,,,,,,,,,,,,,,,,,,,,,,,,,,,,,,,,,,,,,,,,,,,,,,,,0,0,0,0,1,1,With Brainslug Difficult 1 No Money,images/assets/With Brainslug Difficult 1 No Money.png,With Brainslug Difficult 2 No Money,images/assets/With Brainslug Difficult 2 No Money.png,With Brainslug Difficult 2 With Money,images/assets/With Brainslug Difficult 2 With Money.png,Achievement vs. money,,,,,
,,,,,,,,,,,,57b18b64f6b9390001af1e05,001,3,2025-04-15_07h08.26.086,avatar_quest_3AFC_legacy,2022.1.3,Win32,59.52380952,57b18b64f6b9390001af1e05,67fe37cb3bd870bba73819bd,67fe491c3e55fc59c12a3636,,,,,,,,,,,,,,,,,,,,,,With Brainslug Difficult 1 With Money,6,images/assets/snowy_money.jpg,learning,20,images/assets/success_money.jpg,images/assets/gameover.jpg,,,,,,,,No Brainslug Difficult 1 No Money,No Brainslug No Barriers No Money,down,2.2684,"[""No Brainslug No Barriers No Money"",""No Brainslug No Barriers With Money""]",0,0,0,0,1,,,,,,,,,,,,,,,,,,,,,,,,,,,,,,,,
,,,,,,,,,,,,57b18b64f6b9390001af1e05,001,3,2025-04-15_07h08.26.086,avatar_quest_3AFC_legacy,2022.1.3,Win32,59.52380952,57b18b64f6b9390001af1e05,67fe37cb3bd870bba73819bd,67fe491c3e55fc59c12a3636,,,,,,,,,,,,,,,,,,,,,,No Brainslug No Barriers With Money,0,images/assets/snowy_money.jpg,learning,10,images/assets/success_money.jpg,images/assets/gameover.jpg,,,,,,,,,,,,,0,1,1,9,1,,,,,,,,,,,,,,,,,,,,,,,,,,,,,,,,
,,,,,,,,,,,,57b18b64f6b9390001af1e05,001,3,2025-04-15_07h08.26.086,avatar_quest_3AFC_legacy,2022.1.3,Win32,59.52380952,57b18b64f6b9390001af1e05,67fe37cb3bd870bba73819bd,67fe491c3e55fc59c12a3636,,,,,,,,,,,,,,,,,,,,,,No Brainslug Difficult 2 With Money,12,images/assets/snowy_money.jpg,learning,20,images/assets/success_money.jpg,images/assets/gameover.jpg,,,,,,,,,,,,,0,2,2,7,1,,,,,,,,,,,,,,,,,,,,,,,,,,,,,,,,
,,,,,,,,,,,,57b18b64f6b9390001af1e05,001,3,2025-04-15_07h08.26.086,avatar_quest_3AFC_legacy,2022.1.3,Win32,59.52380952,57b18b64f6b9390001af1e05,67fe37cb3bd870bba73819bd,67fe491c3e55fc59c12a3636,"[""left"",""left"",""right"",""right"",""right"",""left"",""left"",""left"",""right"",""right"",""right"",""left"",""left"",""left"",""left"",""right"",""right""]","[0.4386999999881027,0.7746000000238382,1.3996999999880586,1.8016999999881023,2.024499999999989,2.3251000000238378,2.5445000000000277,2.7036000000238687,3.2079000000357496,3.436699999988093,3.737000000000023,3.9951000000238537,4.223199999988083,4.404699999988111,4.590800000011939,4.871199999988107,5.14540000003575]",,calibration,No Brainslug Difficult 1 No Money,16,13.29015,5.3383,17,0,0,TRUE,na,na,na,na,,,,,,,,,,,,,,,,,,,,,,,,,,,,,,,,,,0,0,0,0,1,,,,,,,,,,,,,,,,,,,,,,,
,,,,,,,,,,,,57b18b64f6b9390001af1e05,001,3,2025-04-15_07h08.26.086,avatar_quest_3AFC_legacy,2022.1.3,Win32,59.52380952,57b18b64f6b9390001af1e05,67fe37cb3bd870bba73819bd,67fe491c3e55fc59c12a3636,,,,,,,,,,,,,,,,,,,,,,No Brainslug Difficult 1 No Money,6,images/assets/snowy_original.jpg,learning,20,images/assets/success.jpg,images/assets/gameover.jpg,,,,,,,,,,,,,0,3,3,6,1,,,,,,,,,,,,,,,,,,,,,,,,,,,,,,,,
,,,,,,,,,,,,57b18b64f6b9390001af1e05,001,3,2025-04-15_07h08.26.086,avatar_quest_3AFC_legacy,2022.1.3,Win32,59.52380952,57b18b64f6b9390001af1e05,67fe37cb3bd870bba73819bd,67fe491c3e55fc59c12a3636,,,,,,,,,,,,,,,,,,,,,,With Brainslug Difficult 2 With Money,12,images/assets/snowy_money.jpg,learning,20,images/assets/success_money.jpg,images/assets/gameover.jpg,,,,,,,,,,,,,0,4,4,2,1,,,,,,,,,,,,,,,,,,,,,,,,,,,,,,,,
,,,,,,,,,,,,57b18b64f6b9390001af1e05,001,3,2025-04-15_07h08.26.086,avatar_quest_3AFC_legacy,2022.1.3,Win32,59.52380952,57b18b64f6b9390001af1e05,67fe37cb3bd870bba73819bd,67fe491c3e55fc59c12a3636,,,,,,,,,,,,,,,,,,,,,,No Brainslug Difficult 2 No Money,12,images/assets/snowy_original.jpg,learning,20,images/assets/success.jpg,images/assets/gameover.jpg,,,,,,,,,,,,,0,5,5,8,1,,,,,,,,,,,,,,,,,,,,,,,,,,,,,,,,
,,,,,,,,,,,,57b18b64f6b9390001af1e05,001,3,2025-04-15_07h08.26.086,avatar_quest_3AFC_legacy,2022.1.3,Win32,59.52380952,57b18b64f6b9390001af1e05,67fe37cb3bd870bba73819bd,67fe491c3e55fc59c12a3636,,,,,,,,,,,,,,,,,,,,,,With Brainslug Difficult 2 No Money,12,images/assets/snowy_original.jpg,learning,20,images/assets/success.jpg,images/assets/gameover.jpg,,,,,,,,,,,,,0,6,6,3,1,,,,,,,,,,,,,,,,,,,,,,,,,,,,,,,,
,,,,,,,,,,,,57b18b64f6b9390001af1e05,001,3,2025-04-15_07h08.26.086,avatar_quest_3AFC_legacy,2022.1.3,Win32,59.52380952,57b18b64f6b9390001af1e05,67fe37cb3bd870bba73819bd,67fe491c3e55fc59c12a3636,,,,,,,,,,,,,,,,,,,,,,No Brainslug No Barriers No Money,0,images/assets/snowy_original.jpg,learning,10,images/assets/success.jpg,images/assets/gameover.jpg,,,,,,,,,,,,,0,7,7,10,1,,,,,,,,,,,,,,,,,,,,,,,,,,,,,,,,
,,,,,,,,,,,,57b18b64f6b9390001af1e05,001,3,2025-04-15_07h08.26.086,avatar_quest_3AFC_legacy,2022.1.3,Win32,59.52380952,57b18b64f6b9390001af1e05,67fe37cb3bd870bba73819bd,67fe491c3e55fc59c12a3636,,,,,,,,,,,,,,,,,,,,,,With Brainslug Difficult 1 No Money,6,images/assets/snowy_original.jpg,learning,20,images/assets/success.jpg,images/assets/gameover.jpg,,,,,,,,,,,,,0,8,8,1,1,,,,,,,,,,,,,,,,,,,,,,,,,,,,,,,,
,,,,,,,,,,,,57b18b64f6b9390001af1e05,001,3,2025-04-15_07h08.26.086,avatar_quest_3AFC_legacy,2022.1.3,Win32,59.52380952,57b18b64f6b9390001af1e05,67fe37cb3bd870bba73819bd,67fe491c3e55fc59c12a3636,,,,,,,,,,,,,,,,,,,,,,With Brainslug No Barriers With Money,0,images/assets/snowy_money.jpg,learning,10,images/assets/success_money.jpg,images/assets/gameover.jpg,,,,,,,,,,,,,0,9,9,4,1,,,,,,,,,,,,,,,,,,,,,,,,,,,,,,,,
,,,,,,,,,,,,57b18b64f6b9390001af1e05,001,3,2025-04-15_07h08.26.086,avatar_quest_3AFC_legacy,2022.1.3,Win32,59.52380952,57b18b64f6b9390001af1e05,67fe37cb3bd870bba73819bd,67fe491c3e55fc59c12a3636,,,,,,,,,,,,,,,,,,,,,,With Brainslug No Barriers No Money,0,images/assets/snowy_original.jpg,learning,10,images/assets/success.jpg,images/assets/gameover.jpg,,,,,,,,,,,,,0,10,10,5,1,,,,,,,,,,,,,,,,,,,,,,,,,,,,,,,,
,,,,,,,,,,,,57b18b64f6b9390001af1e05,001,3,2025-04-15_07h08.26.086,avatar_quest_3AFC_legacy,2022.1.3,Win32,59.52380952,57b18b64f6b9390001af1e05,67fe37cb3bd870bba73819bd,67fe491c3e55fc59c12a3636,,,,,,,,,,,,,,,,,,,,,,,,,,,,,,,,,,,,,,,,,,,,,,,,,,,,,,,0,0,0,0,1,,,,,,,,,,,,,,,,,,
,,,,,,,,,,,,57b18b64f6b9390001af1e05,001,3,2025-04-15_07h08.26.086,avatar_quest_3AFC_legacy,2022.1.3,Win32,59.52380952,57b18b64f6b9390001af1e05,67fe37cb3bd870bba73819bd,67fe491c3e55fc59c12a3636,,,,,,,,,,,,,,,,,,,,,,With Brainslug Difficult 1 No Money,6,images/assets/snowy_original.jpg,learning,20,images/assets/success.jpg,images/assets/gameover.jpg,,,,,,,,No Brainslug No Barriers With Money,No Brainslug No Barriers No Money,right,3.0796,"[""No Brainslug No Barriers No Money"",""No Brainslug Difficult 1 No Money""]",0,0,0,1,1,,,,,,,,,,,,,,,,,,,,,,,,,,,,,,,,
,,,,,,,,,,,,57b18b64f6b9390001af1e05,001,3,2025-04-15_07h08.26.086,avatar_quest_3AFC_legacy,2022.1.3,Win32,59.52380952,57b18b64f6b9390001af1e05,67fe37cb3bd870bba73819bd,67fe491c3e55fc59c12a3636,"[""left"",""left"",""right"",""right"",""left"",""left"",""right"",""right"",""left"",""right"",""left""]","[0.809100000023875,1.05210000002387,1.6353999999761868,2.069399999976156,2.4006000000238714,2.628399999976182,2.9903000000119278,3.587899999976173,3.9703999999761663,4.474399999976185,4.8559999999999945]",,calibration,No Brainslug No Barriers With Money,17,10.63212,5.555,11,0,23,TRUE,na,na,na,na,,,,,,,,,,,,,,,,,,,,,,,,,,,,,,,,,,0,0,0,0,1,,,,,,,,,,,,,,,,,,,,,,,
,,,,,,,,,,,,57b18b64f6b9390001af1e05,001,3,2025-04-15_07h08.26.086,avatar_quest_3AFC_legacy,2022.1.3,Win32,59.52380952,57b18b64f6b9390001af1e05,67fe37cb3bd870bba73819bd,67fe491c3e55fc59c12a3636,,,,,,,,,,,,,,,,,,,,,,No Brainslug No Barriers With Money,0,images/assets/snowy_money.jpg,learning,10,images/assets/success_money.jpg,images/assets/gameover.jpg,,,,,,,,,,,,,0,1,1,9,1,,,,,,,,,,,,,,,,,,,,,,,,,,,,,,,,
,,,,,,,,,,,,57b18b64f6b9390001af1e05,001,3,2025-04-15_07h08.26.086,avatar_quest_3AFC_legacy,2022.1.3,Win32,59.52380952,57b18b64f6b9390001af1e05,67fe37cb3bd870bba73819bd,67fe491c3e55fc59c12a3636,,,,,,,,,,,,,,,,,,,,,,No Brainslug Difficult 1 No Money,6,images/assets/snowy_original.jpg,learning,20,images/assets/success.jpg,images/assets/gameover.jpg,,,,,,,,,,,,,0,2,2,6,1,,,,,,,,,,,,,,,,,,,,,,,,,,,,,,,,
,,,,,,,,,,,,57b18b64f6b9390001af1e05,001,3,2025-04-15_07h08.26.086,avatar_quest_3AFC_legacy,2022.1.3,Win32,59.52380952,57b18b64f6b9390001af1e05,67fe37cb3bd870bba73819bd,67fe491c3e55fc59c12a3636,,,,,,,,,,,,,,,,,,,,,,With Brainslug No Barriers No Money,0,images/assets/snowy_original.jpg,learning,10,images/assets/success.jpg,images/assets/gameover.jpg,,,,,,,,,,,,,0,3,3,5,1,,,,,,,,,,,,,,,,,,,,,,,,,,,,,,,,
,,,,,,,,,,,,57b18b64f6b9390001af1e05,001,3,2025-04-15_07h08.26.086,avatar_quest_3AFC_legacy,2022.1.3,Win32,59.52380952,57b18b64f6b9390001af1e05,67fe37cb3bd870bba73819bd,67fe491c3e55fc59c12a3636,,,,,,,,,,,,,,,,,,,,,,No Brainslug Difficult 2 No Money,12,images/assets/snowy_original.jpg,learning,20,images/assets/success.jpg,images/assets/gameover.jpg,,,,,,,,,,,,,0,4,4,8,1,,,,,,,,,,,,,,,,,,,,,,,,,,,,,,,,
,,,,,,,,,,,,57b18b64f6b9390001af1e05,001,3,2025-04-15_07h08.26.086,avatar_quest_3AFC_legacy,2022.1.3,Win32,59.52380952,57b18b64f6b9390001af1e05,67fe37cb3bd870bba73819bd,67fe491c3e55fc59c12a3636,,,,,,,,,,,,,,,,,,,,,,With Brainslug Difficult 1 With Money,6,images/assets/snowy_money.jpg,learning,20,images/assets/success_money.jpg,images/assets/gameover.jpg,,,,,,,,,,,,,0,5,5,0,1,,,,,,,,,,,,,,,,,,,,,,,,,,,,,,,,
,,,,,,,,,,,,57b18b64f6b9390001af1e05,001,3,2025-04-15_07h08.26.086,avatar_quest_3AFC_legacy,2022.1.3,Win32,59.52380952,57b18b64f6b9390001af1e05,67fe37cb3bd870bba73819bd,67fe491c3e55fc59c12a3636,,,,,,,,,,,,,,,,,,,,,,No Brainslug No Barriers No Money,0,images/assets/snowy_original.jpg,learning,10,images/assets/success.jpg,images/assets/gameover.jpg,,,,,,,,,,,,,0,6,6,10,1,,,,,,,,,,,,,,,,,,,,,,,,,,,,,,,,
,,,,,,,,,,,,57b18b64f6b9390001af1e05,001,3,2025-04-15_07h08.26.086,avatar_quest_3AFC_legacy,2022.1.3,Win32,59.52380952,57b18b64f6b9390001af1e05,67fe37cb3bd870bba73819bd,67fe491c3e55fc59c12a3636,,,,,,,,,,,,,,,,,,,,,,No Brainslug Difficult 2 With Money,12,images/assets/snowy_money.jpg,learning,20,images/assets/success_money.jpg,images/assets/gameover.jpg,,,,,,,,,,,,,0,7,7,7,1,,,,,,,,,,,,,,,,,,,,,,,,,,,,,,,,
,,,,,,,,,,,,57b18b64f6b9390001af1e05,001,3,2025-04-15_07h08.26.086,avatar_quest_3AFC_legacy,2022.1.3,Win32,59.52380952,57b18b64f6b9390001af1e05,67fe37cb3bd870bba73819bd,67fe491c3e55fc59c12a3636,,,,,,,,,,,,,,,,,,,,,,With Brainslug Difficult 2 With Money,12,images/assets/snowy_money.jpg,learning,20,images/assets/success_money.jpg,images/assets/gameover.jpg,,,,,,,,,,,,,0,8,8,2,1,,,,,,,,,,,,,,,,,,,,,,,,,,,,,,,,
,,,,,,,,,,,,57b18b64f6b9390001af1e05,001,3,2025-04-15_07h08.26.086,avatar_quest_3AFC_legacy,2022.1.3,Win32,59.52380952,57b18b64f6b9390001af1e05,67fe37cb3bd870bba73819bd,67fe491c3e55fc59c12a3636,,,,,,,,,,,,,,,,,,,,,,With Brainslug Difficult 2 No Money,12,images/assets/snowy_original.jpg,learning,20,images/assets/success.jpg,images/assets/gameover.jpg,,,,,,,,,,,,,0,9,9,3,1,,,,,,,,,,,,,,,,,,,,,,,,,,,,,,,,
,,,,,,,,,,,,57b18b64f6b9390001af1e05,001,3,2025-04-15_07h08.26.086,avatar_quest_3AFC_legacy,2022.1.3,Win32,59.52380952,57b18b64f6b9390001af1e05,67fe37cb3bd870bba73819bd,67fe491c3e55fc59c12a3636,,,,,,,,,,,,,,,,,,,,,,With Brainslug No Barriers With Money,0,images/assets/snowy_money.jpg,learning,10,images/assets/success_money.jpg,images/assets/gameover.jpg,,,,,,,,,,,,,0,10,10,4,1,,,,,,,,,,,,,,,,,,,,,,,,,,,,,,,,
,,,,,,,,,,,,57b18b64f6b9390001af1e05,001,3,2025-04-15_07h08.26.086,avatar_quest_3AFC_legacy,2022.1.3,Win32,59.52380952,57b18b64f6b9390001af1e05,67fe37cb3bd870bba73819bd,67fe491c3e55fc59c12a3636,,,,,,,,,,,,,,,,,,,,,,,,,,,,,,,,,,,,,,,,,,,,,,,,,,,,,,,1,0,1,0,1,,,,,,,,,,,,,,,,,,
,,,,,,,,,,,,57b18b64f6b9390001af1e05,001,3,2025-04-15_07h08.26.086,avatar_quest_3AFC_legacy,2022.1.3,Win32,59.52380952,57b18b64f6b9390001af1e05,67fe37cb3bd870bba73819bd,67fe491c3e55fc59c12a3636,,,,,,,,,,,,,,,,,,,,,,No Brainslug Difficult 1 No Money,6,images/assets/snowy_original.jpg,learning,20,images/assets/success.jpg,images/assets/gameover.jpg,,,,,,,,No Brainslug No Barriers With Money,No Brainslug No Barriers No Money,right,3.02,"[""No Brainslug No Barriers No Money"",""No Brainslug Difficult 1 No Money""]",0,0,0,6,1,,,,,,,,,,,,,,,,,,,,,,,,,,,,,,,,
,,,,,,,,,,,,57b18b64f6b9390001af1e05,001,3,2025-04-15_07h08.26.086,avatar_quest_3AFC_legacy,2022.1.3,Win32,59.52380952,57b18b64f6b9390001af1e05,67fe37cb3bd870bba73819bd,67fe491c3e55fc59c12a3636,,,,,,,,,,,,,,,,,,,,,,With Brainslug No Barriers With Money,0,images/assets/snowy_money.jpg,learning,10,images/assets/success_money.jpg,images/assets/gameover.jpg,,,,,,,,,,,,,0,1,1,4,1,,,,,,,,,,,,,,,,,,,,,,,,,,,,,,,,
,,,,,,,,,,,,57b18b64f6b9390001af1e05,001,3,2025-04-15_07h08.26.086,avatar_quest_3AFC_legacy,2022.1.3,Win32,59.52380952,57b18b64f6b9390001af1e05,67fe37cb3bd870bba73819bd,67fe491c3e55fc59c12a3636,,,,,,,,,,,,,,,,,,,,,,With Brainslug Difficult 2 With Money,12,images/assets/snowy_money.jpg,learning,20,images/assets/success_money.jpg,images/assets/gameover.jpg,,,,,,,,,,,,,0,2,2,2,1,,,,,,,,,,,,,,,,,,,,,,,,,,,,,,,,
,,,,,,,,,,,,57b18b64f6b9390001af1e05,001,3,2025-04-15_07h08.26.086,avatar_quest_3AFC_legacy,2022.1.3,Win32,59.52380952,57b18b64f6b9390001af1e05,67fe37cb3bd870bba73819bd,67fe491c3e55fc59c12a3636,,,,,,,,,,,,,,,,,,,,,,With Brainslug Difficult 1 With Money,6,images/assets/snowy_money.jpg,learning,20,images/assets/success_money.jpg,images/assets/gameover.jpg,,,,,,,,,,,,,0,3,3,0,1,,,,,,,,,,,,,,,,,,,,,,,,,,,,,,,,
,,,,,,,,,,,,57b18b64f6b9390001af1e05,001,3,2025-04-15_07h08.26.086,avatar_quest_3AFC_legacy,2022.1.3,Win32,59.52380952,57b18b64f6b9390001af1e05,67fe37cb3bd870bba73819bd,67fe491c3e55fc59c12a3636,,,,,,,,,,,,,,,,,,,,,,With Brainslug Difficult 2 No Money,12,images/assets/snowy_original.jpg,learning,20,images/assets/success.jpg,images/assets/gameover.jpg,,,,,,,,,,,,,0,4,4,3,1,,,,,,,,,,,,,,,,,,,,,,,,,,,,,,,,
,,,,,,,,,,,,57b18b64f6b9390001af1e05,001,3,2025-04-15_07h08.26.086,avatar_quest_3AFC_legacy,2022.1.3,Win32,59.52380952,57b18b64f6b9390001af1e05,67fe37cb3bd870bba73819bd,67fe491c3e55fc59c12a3636,,,,,,,,,,,,,,,,,,,,,,With Brainslug No Barriers No Money,0,images/assets/snowy_original.jpg,learning,10,images/assets/success.jpg,images/assets/gameover.jpg,,,,,,,,,,,,,0,5,5,5,1,,,,,,,,,,,,,,,,,,,,,,,,,,,,,,,,
,,,,,,,,,,,,57b18b64f6b9390001af1e05,001,3,2025-04-15_07h08.26.086,avatar_quest_3AFC_legacy,2022.1.3,Win32,59.52380952,57b18b64f6b9390001af1e05,67fe37cb3bd870bba73819bd,67fe491c3e55fc59c12a3636,,,,,,,,,,,,,,,,,,,,,,No Brainslug Difficult 2 No Money,12,images/assets/snowy_original.jpg,learning,20,images/assets/success.jpg,images/assets/gameover.jpg,,,,,,,,,,,,,0,6,6,8,1,,,,,,,,,,,,,,,,,,,,,,,,,,,,,,,,
,,,,,,,,,,,,57b18b64f6b9390001af1e05,001,3,2025-04-15_07h08.26.086,avatar_quest_3AFC_legacy,2022.1.3,Win32,59.52380952,57b18b64f6b9390001af1e05,67fe37cb3bd870bba73819bd,67fe491c3e55fc59c12a3636,"[""left""]",[1.5431000000238555],,calibration,No Brainslug No Barriers With Money,18,10.63212,5.2881,1,0,0,TRUE,na,na,na,na,,,,,,,,,,,,,,,,,,,,,,,,,,,,,,,,,,0,0,0,0,1,,,,,,,,,,,,,,,,,,,,,,,
,,,,,,,,,,,,57b18b64f6b9390001af1e05,001,3,2025-04-15_07h08.26.086,avatar_quest_3AFC_legacy,2022.1.3,Win32,59.52380952,57b18b64f6b9390001af1e05,67fe37cb3bd870bba73819bd,67fe491c3e55fc59c12a3636,,,,,,,,,,,,,,,,,,,,,,No Brainslug No Barriers With Money,0,images/assets/snowy_money.jpg,learning,10,images/assets/success_money.jpg,images/assets/gameover.jpg,,,,,,,,,,,,,0,7,7,9,1,,,,,,,,,,,,,,,,,,,,,,,,,,,,,,,,
,,,,,,,,,,,,57b18b64f6b9390001af1e05,001,3,2025-04-15_07h08.26.086,avatar_quest_3AFC_legacy,2022.1.3,Win32,59.52380952,57b18b64f6b9390001af1e05,67fe37cb3bd870bba73819bd,67fe491c3e55fc59c12a3636,,,,,,,,,,,,,,,,,,,,,,With Brainslug Difficult 1 No Money,6,images/assets/snowy_original.jpg,learning,20,images/assets/success.jpg,images/assets/gameover.jpg,,,,,,,,,,,,,0,8,8,1,1,,,,,,,,,,,,,,,,,,,,,,,,,,,,,,,,
,,,,,,,,,,,,57b18b64f6b9390001af1e05,001,3,2025-04-15_07h08.26.086,avatar_quest_3AFC_legacy,2022.1.3,Win32,59.52380952,57b18b64f6b9390001af1e05,67fe37cb3bd870bba73819bd,67fe491c3e55fc59c12a3636,,,,,,,,,,,,,,,,,,,,,,No Brainslug No Barriers No Money,0,images/assets/snowy_original.jpg,learning,10,images/assets/success.jpg,images/assets/gameover.jpg,,,,,,,,,,,,,0,9,9,10,1,,,,,,,,,,,,,,,,,,,,,,,,,,,,,,,,
,,,,,,,,,,,,57b18b64f6b9390001af1e05,001,3,2025-04-15_07h08.26.086,avatar_quest_3AFC_legacy,2022.1.3,Win32,59.52380952,57b18b64f6b9390001af1e05,67fe37cb3bd870bba73819bd,67fe491c3e55fc59c12a3636,,,,,,,,,,,,,,,,,,,,,,No Brainslug Difficult 2 With Money,12,images/assets/snowy_money.jpg,learning,20,images/assets/success_money.jpg,images/assets/gameover.jpg,,,,,,,,,,,,,0,10,10,7,1,,,,,,,,,,,,,,,,,,,,,,,,,,,,,,,,
,,,,,,,,,,,,57b18b64f6b9390001af1e05,001,3,2025-04-15_07h08.26.086,avatar_quest_3AFC_legacy,2022.1.3,Win32,59.52380952,57b18b64f6b9390001af1e05,67fe37cb3bd870bba73819bd,67fe491c3e55fc59c12a3636,,,,,,,,,,,,,,,,,,,,,,,,,,,,,,,,,,,,,,,,,,,,,,,,,,,,,,,2,0,2,0,1,,,,,,,,,,,,,,,,,,
,,,,,,,,,,,,57b18b64f6b9390001af1e05,001,3,2025-04-15_07h08.26.086,avatar_quest_3AFC_legacy,2022.1.3,Win32,59.52380952,57b18b64f6b9390001af1e05,67fe37cb3bd870bba73819bd,67fe491c3e55fc59c12a3636,,,,,,,,,,,,,,,,,,,,,,No Brainslug Difficult 1 No Money,6,images/assets/snowy_original.jpg,learning,20,images/assets/success.jpg,images/assets/gameover.jpg,,,,,,,,No Brainslug No Barriers With Money,No Brainslug No Barriers No Money,right,2.0145,"[""No Brainslug No Barriers No Money"",""No Brainslug Difficult 1 No Money""]",0,0,0,6,1,,,,,,,,,,,,,,,,,,,,,,,,,,,,,,,,
,,,,,,,,,,,,57b18b64f6b9390001af1e05,001,3,2025-04-15_07h08.26.086,avatar_quest_3AFC_legacy,2022.1.3,Win32,59.52380952,57b18b64f6b9390001af1e05,67fe37cb3bd870bba73819bd,67fe491c3e55fc59c12a3636,,,,,,,,,,,,,,,,,,,,,,No Brainslug No Barriers No Money,0,images/assets/snowy_original.jpg,learning,10,images/assets/success.jpg,images/assets/gameover.jpg,,,,,,,,,,,,,0,1,1,10,1,,,,,,,,,,,,,,,,,,,,,,,,,,,,,,,,
,,,,,,,,,,,,57b18b64f6b9390001af1e05,001,3,2025-04-15_07h08.26.086,avatar_quest_3AFC_legacy,2022.1.3,Win32,59.52380952,57b18b64f6b9390001af1e05,67fe37cb3bd870bba73819bd,67fe491c3e55fc59c12a3636,,,,,,,,,,,,,,,,,,,,,,With Brainslug Difficult 2 With Money,12,images/assets/snowy_money.jpg,learning,20,images/assets/success_money.jpg,images/assets/gameover.jpg,,,,,,,,,,,,,0,2,2,2,1,,,,,,,,,,,,,,,,,,,,,,,,,,,,,,,,
,,,,,,,,,,,,57b18b64f6b9390001af1e05,001,3,2025-04-15_07h08.26.086,avatar_quest_3AFC_legacy,2022.1.3,Win32,59.52380952,57b18b64f6b9390001af1e05,67fe37cb3bd870bba73819bd,67fe491c3e55fc59c12a3636,,,,,,,,,,,,,,,,,,,,,,No Brainslug Difficult 2 With Money,12,images/assets/snowy_money.jpg,learning,20,images/assets/success_money.jpg,images/assets/gameover.jpg,,,,,,,,,,,,,0,3,3,7,1,,,,,,,,,,,,,,,,,,,,,,,,,,,,,,,,
,,,,,,,,,,,,57b18b64f6b9390001af1e05,001,3,2025-04-15_07h08.26.086,avatar_quest_3AFC_legacy,2022.1.3,Win32,59.52380952,57b18b64f6b9390001af1e05,67fe37cb3bd870bba73819bd,67fe491c3e55fc59c12a3636,"[""left"",""left"",""right""]","[1.8151999999880672,2.535800000011875,2.92790000003572]",,calibration,No Brainslug No Barriers With Money,19,10.63212,5.2716,3,0,0,TRUE,na,na,na,na,,,,,,,,,,,,,,,,,,,,,,,,,,,,,,,,,,0,0,0,0,1,,,,,,,,,,,,,,,,,,,,,,,
,,,,,,,,,,,,57b18b64f6b9390001af1e05,001,3,2025-04-15_07h08.26.086,avatar_quest_3AFC_legacy,2022.1.3,Win32,59.52380952,57b18b64f6b9390001af1e05,67fe37cb3bd870bba73819bd,67fe491c3e55fc59c12a3636,,,,,,,,,,,,,,,,,,,,,,No Brainslug No Barriers With Money,0,images/assets/snowy_money.jpg,learning,10,images/assets/success_money.jpg,images/assets/gameover.jpg,,,,,,,,,,,,,0,4,4,9,1,,,,,,,,,,,,,,,,,,,,,,,,,,,,,,,,
,,,,,,,,,,,,57b18b64f6b9390001af1e05,001,3,2025-04-15_07h08.26.086,avatar_quest_3AFC_legacy,2022.1.3,Win32,59.52380952,57b18b64f6b9390001af1e05,67fe37cb3bd870bba73819bd,67fe491c3e55fc59c12a3636,,,,,,,,,,,,,,,,,,,,,,With Brainslug No Barriers No Money,0,images/assets/snowy_original.jpg,learning,10,images/assets/success.jpg,images/assets/gameover.jpg,,,,,,,,,,,,,0,5,5,5,1,,,,,,,,,,,,,,,,,,,,,,,,,,,,,,,,
,,,,,,,,,,,,57b18b64f6b9390001af1e05,001,3,2025-04-15_07h08.26.086,avatar_quest_3AFC_legacy,2022.1.3,Win32,59.52380952,57b18b64f6b9390001af1e05,67fe37cb3bd870bba73819bd,67fe491c3e55fc59c12a3636,,,,,,,,,,,,,,,,,,,,,,With Brainslug Difficult 1 No Money,6,images/assets/snowy_original.jpg,learning,20,images/assets/success.jpg,images/assets/gameover.jpg,,,,,,,,,,,,,0,6,6,1,1,,,,,,,,,,,,,,,,,,,,,,,,,,,,,,,,
,,,,,,,,,,,,57b18b64f6b9390001af1e05,001,3,2025-04-15_07h08.26.086,avatar_quest_3AFC_legacy,2022.1.3,Win32,59.52380952,57b18b64f6b9390001af1e05,67fe37cb3bd870bba73819bd,67fe491c3e55fc59c12a3636,,,,,,,,,,,,,,,,,,,,,,With Brainslug Difficult 1 With Money,6,images/assets/snowy_money.jpg,learning,20,images/assets/success_money.jpg,images/assets/gameover.jpg,,,,,,,,,,,,,0,7,7,0,1,,,,,,,,,,,,,,,,,,,,,,,,,,,,,,,,
,,,,,,,,,,,,57b18b64f6b9390001af1e05,001,3,2025-04-15_07h08.26.086,avatar_quest_3AFC_legacy,2022.1.3,Win32,59.52380952,57b18b64f6b9390001af1e05,67fe37cb3bd870bba73819bd,67fe491c3e55fc59c12a3636,,,,,,,,,,,,,,,,,,,,,,With Brainslug No Barriers With Money,0,images/assets/snowy_money.jpg,learning,10,images/assets/success_money.jpg,images/assets/gameover.jpg,,,,,,,,,,,,,0,8,8,4,1,,,,,,,,,,,,,,,,,,,,,,,,,,,,,,,,
,,,,,,,,,,,,57b18b64f6b9390001af1e05,001,3,2025-04-15_07h08.26.086,avatar_quest_3AFC_legacy,2022.1.3,Win32,59.52380952,57b18b64f6b9390001af1e05,67fe37cb3bd870bba73819bd,67fe491c3e55fc59c12a3636,,,,,,,,,,,,,,,,,,,,,,With Brainslug Difficult 2 No Money,12,images/assets/snowy_original.jpg,learning,20,images/assets/success.jpg,images/assets/gameover.jpg,,,,,,,,,,,,,0,9,9,3,1,,,,,,,,,,,,,,,,,,,,,,,,,,,,,,,,
,,,,,,,,,,,,57b18b64f6b9390001af1e05,001,3,2025-04-15_07h08.26.086,avatar_quest_3AFC_legacy,2022.1.3,Win32,59.52380952,57b18b64f6b9390001af1e05,67fe37cb3bd870bba73819bd,67fe491c3e55fc59c12a3636,,,,,,,,,,,,,,,,,,,,,,No Brainslug Difficult 2 No Money,12,images/assets/snowy_original.jpg,learning,20,images/assets/success.jpg,images/assets/gameover.jpg,,,,,,,,,,,,,0,10,10,8,1,,,,,,,,,,,,,,,,,,,,,,,,,,,,,,,,
