instruction_mouse.x,instruction_mouse.y,instruction_mouse.leftButton,instruction_mouse.midButton,instruction_mouse.rightButton,instruction_mouse.clicked_name,introduce_general.thisRepN,introduce_general.thisTrialN,introduce_general.thisN,introduce_general.thisIndex,introduce_general.ran,thisInstruction,participant,session,game version,date,expName,psychopyVersion,OS,frameRate,PROLIFIC PID,STUDY ID,SESSION ID,move_resp.keys,move_resp.rt,end_resp.keys,phase,condition,trial_num,time_limit,completion_time,left_right_steps,number_of_obsticle_blocks,number_of_tree_blocks,quest_complete,responsivity_summary,av_inter_brainslug_intervals,proportion_jitter,jitter_direction_proportion_right,calibration_phase.thisRepN,calibration_phase.thisTrialN,calibration_phase.thisN,calibration_phase.thisIndex,calibration_phase.ran,BlockLabel,nObsticles,backgroundImage,phaseLabel,n_side_steps,success_im,gameover_im,success_condition,introduce_learning_or_choice.thisRepN,introduce_learning_or_choice.thisTrialN,introduce_learning_or_choice.thisN,introduce_learning_or_choice.thisIndex,introduce_learning_or_choice.ran,choice_resp.keys,chosen_quest,unchosen_quest,choice_resp_3afc.keys,choice_resp_3afc.rt,unchosen_quests,forced_choice_trial.thisRepN,forced_choice_trial.thisTrialN,forced_choice_trial.thisN,forced_choice_trial.thisIndex,forced_choice_trial.ran,enjoyment_slider.response,enjoyment_slider.rt,effort_slider.response,effort_slider.rt,show_loop2.thisRepN,show_loop2.thisTrialN,show_loop2.thisN,show_loop2.thisIndex,show_loop2.ran,trials_per_block.thisRepN,trials_per_block.thisTrialN,trials_per_block.thisN,trials_per_block.thisIndex,trials_per_block.ran,decision_phase_AFC.thisRepN,decision_phase_AFC.thisTrialN,decision_phase_AFC.thisN,decision_phase_AFC.thisIndex,decision_phase_AFC.ran,blockN,BlockLabel1,questIm1,BlockLabel2,questIm2,BlockLabel3,questIm3,quest_condition,showForcedChoice.thisRepN,showForcedChoice.thisTrialN,showForcedChoice.thisN,showForcedChoice.thisIndex,showForcedChoice.ran
0.366666667,-0.401388889,1,0,0,instruction_button,0,0,0,0,1,images/instructions_part1_LSM_taskversion1/Slide1.JPG,592dc86c61bcd8000107c131,001,3,2025-04-15_09h41.41.470,avatar_quest_3AFC_legacy,2022.1.3,Win32,169.4915254,592dc86c61bcd8000107c131,67fe6e666cecbc9329ddf6d6,67fe6ee6b9350a8b57fc0f6b,,,,,,,,,,,,,,,,,,,,,,,,,,,,,,,,,,,,,,,,,,,,,,,,,,,,,,,,,,,,,,,,,,,,,,,,,,,,,
0.356944444,-0.408333333,1,0,0,instruction_button,0,1,1,1,1,images/instructions_part1_LSM_taskversion1/Slide2.JPG,592dc86c61bcd8000107c131,001,3,2025-04-15_09h41.41.470,avatar_quest_3AFC_legacy,2022.1.3,Win32,169.4915254,592dc86c61bcd8000107c131,67fe6e666cecbc9329ddf6d6,67fe6ee6b9350a8b57fc0f6b,,,,,,,,,,,,,,,,,,,,,,,,,,,,,,,,,,,,,,,,,,,,,,,,,,,,,,,,,,,,,,,,,,,,,,,,,,,,,
0.347916667,-0.390972222,1,0,0,instruction_button,0,2,2,2,1,images/instructions_part1_LSM_taskversion1/Slide3.JPG,592dc86c61bcd8000107c131,001,3,2025-04-15_09h41.41.470,avatar_quest_3AFC_legacy,2022.1.3,Win32,169.4915254,592dc86c61bcd8000107c131,67fe6e666cecbc9329ddf6d6,67fe6ee6b9350a8b57fc0f6b,,,,,,,,,,,,,,,,,,,,,,,,,,,,,,,,,,,,,,,,,,,,,,,,,,,,,,,,,,,,,,,,,,,,,,,,,,,,,
0.358333333,-0.399305556,1,0,0,instruction_button,0,3,3,3,1,images/instructions_part1_LSM_taskversion1/Slide3.5.JPG,592dc86c61bcd8000107c131,001,3,2025-04-15_09h41.41.470,avatar_quest_3AFC_legacy,2022.1.3,Win32,169.4915254,592dc86c61bcd8000107c131,67fe6e666cecbc9329ddf6d6,67fe6ee6b9350a8b57fc0f6b,,,,,,,,,,,,,,,,,,,,,,,,,,,,,,,,,,,,,,,,,,,,,,,,,,,,,,,,,,,,,,,,,,,,,,,,,,,,,
0.365972222,-0.395833333,1,0,0,instruction_button,0,4,4,4,1,images/instructions_part1_LSM_taskversion1/Slide4.JPG,592dc86c61bcd8000107c131,001,3,2025-04-15_09h41.41.470,avatar_quest_3AFC_legacy,2022.1.3,Win32,169.4915254,592dc86c61bcd8000107c131,67fe6e666cecbc9329ddf6d6,67fe6ee6b9350a8b57fc0f6b,,,,,,,,,,,,,,,,,,,,,,,,,,,,,,,,,,,,,,,,,,,,,,,,,,,,,,,,,,,,,,,,,,,,,,,,,,,,,
0.354166667,-0.399305556,1,0,0,instruction_button,0,5,5,5,1,images/instructions_part1_LSM_taskversion1/Slide6.5.JPG,592dc86c61bcd8000107c131,001,3,2025-04-15_09h41.41.470,avatar_quest_3AFC_legacy,2022.1.3,Win32,169.4915254,592dc86c61bcd8000107c131,67fe6e666cecbc9329ddf6d6,67fe6ee6b9350a8b57fc0f6b,,,,,,,,,,,,,,,,,,,,,,,,,,,,,,,,,,,,,,,,,,,,,,,,,,,,,,,,,,,,,,,,,,,,,,,,,,,,,
,,,,,,,,,,,,592dc86c61bcd8000107c131,001,3,2025-04-15_09h41.41.470,avatar_quest_3AFC_legacy,2022.1.3,Win32,169.4915254,592dc86c61bcd8000107c131,67fe6e666cecbc9329ddf6d6,67fe6ee6b9350a8b57fc0f6b,"[""left"",""right"",""right"",""right""]","[1.7788000000119268,3.8749000000059652,4.722800000011915,5.171200000002983]",,calibration,No Brainslug No Barriers No Money,1,100,5.3206,3,0,0,TRUE,na,na,na,na,0,0,0,2,1,No Brainslug No Barriers No Money,0,images/assets/snowy_original.jpg,calibration,10,images/assets/success.jpg,images/assets/gameover.jpg,never,,,,,,,,,,,,,,,,,,,,,,,,,,,,,,,,,,,,,,,,,,,,,,,,
,,,,,,,,,,,,592dc86c61bcd8000107c131,001,3,2025-04-15_09h41.41.470,avatar_quest_3AFC_legacy,2022.1.3,Win32,169.4915254,592dc86c61bcd8000107c131,67fe6e666cecbc9329ddf6d6,67fe6ee6b9350a8b57fc0f6b,"[""right"",""left"",""left"",""right"",""left"",""right"",""right"",""right"",""left"",""left"",""right"",""right""]","[0.16520000000298296,0.6125999999940177,0.853999999999985,1.3369000000059543,2.5204000000059636,3.6744999999999948,4.139599999994033,4.616599999994037,5.464599999994022,5.711700000002963,6.2594000000059395,6.571400000005951]",,calibration,No Brainslug No Barriers No Money,2,100,7.3475,11,0,346,TRUE,na,na,na,na,0,1,1,0,1,No Brainslug No Barriers No Money,0,images/assets/snowy_original.jpg,calibration,10,images/assets/success.jpg,images/assets/gameover.jpg,never,,,,,,,,,,,,,,,,,,,,,,,,,,,,,,,,,,,,,,,,,,,,,,,,
,,,,,,,,,,,,592dc86c61bcd8000107c131,001,3,2025-04-15_09h41.41.470,avatar_quest_3AFC_legacy,2022.1.3,Win32,169.4915254,592dc86c61bcd8000107c131,67fe6e666cecbc9329ddf6d6,67fe6ee6b9350a8b57fc0f6b,"[""left"",""right""]","[2.3573999999910598,3.880399999991056]",,calibration,No Brainslug No Barriers No Money,3,100,5.3218,2,0,0,TRUE,na,na,na,na,0,2,2,1,1,No Brainslug No Barriers No Money,0,images/assets/snowy_original.jpg,calibration,10,images/assets/success.jpg,images/assets/gameover.jpg,never,,,,,,,,,,,,,,,,,,,,,,,,,,,,,,,,,,,,,,,,,,,,,,,,
0.36875,-0.403472222,1,0,0,instruction_button,,,,,,images/instructions_part2_LSM_taskversion3.jpg,592dc86c61bcd8000107c131,001,3,2025-04-15_09h41.41.470,avatar_quest_3AFC_legacy,2022.1.3,Win32,169.4915254,592dc86c61bcd8000107c131,67fe6e666cecbc9329ddf6d6,67fe6ee6b9350a8b57fc0f6b,,,,,,,,,,,,,,,,,,,,,,,,,,,,,,0,0,0,0,1,,,,,,,,,,,,,,,,,,,,,,,,,,,,,,,,,,,,,,,,,,,
,,,,,,,,,,,,592dc86c61bcd8000107c131,001,3,2025-04-15_09h41.41.470,avatar_quest_3AFC_legacy,2022.1.3,Win32,169.4915254,592dc86c61bcd8000107c131,67fe6e666cecbc9329ddf6d6,67fe6ee6b9350a8b57fc0f6b,,,,,,,,,,,,,,,,,,,,,,With Brainslug No Barriers No Money,0,images/assets/snowy_original.jpg,learning,10,images/assets/success.jpg,images/assets/gameover.jpg,,,,,,,,With Brainslug Difficult 2 With Money,With Brainslug Difficult 1 No Money,right,2.0352,"[""With Brainslug Difficult 1 No Money"",""With Brainslug Difficult 2 No Money""]",0,0,0,5,1,,,,,,,,,,,,,,,,,,,,,,,,,,,,,,,,
,,,,,,,,,,,,592dc86c61bcd8000107c131,001,3,2025-04-15_09h41.41.470,avatar_quest_3AFC_legacy,2022.1.3,Win32,169.4915254,592dc86c61bcd8000107c131,67fe6e666cecbc9329ddf6d6,67fe6ee6b9350a8b57fc0f6b,,,,,,,,,,,,,,,,,,,,,,No Brainslug No Barriers No Money,0,images/assets/snowy_original.jpg,learning,10,images/assets/success.jpg,images/assets/gameover.jpg,,,,,,,,,,,,,0,1,1,10,1,,,,,,,,,,,,,,,,,,,,,,,,,,,,,,,,
,,,,,,,,,,,,592dc86c61bcd8000107c131,001,3,2025-04-15_09h41.41.470,avatar_quest_3AFC_legacy,2022.1.3,Win32,169.4915254,592dc86c61bcd8000107c131,67fe6e666cecbc9329ddf6d6,67fe6ee6b9350a8b57fc0f6b,,,,,,,,,,,,,,,,,,,,,,No Brainslug Difficult 1 No Money,6,images/assets/snowy_original.jpg,learning,20,images/assets/success.jpg,images/assets/gameover.jpg,,,,,,,,,,,,,0,2,2,6,1,,,,,,,,,,,,,,,,,,,,,,,,,,,,,,,,
,,,,,,,,,,,,592dc86c61bcd8000107c131,001,3,2025-04-15_09h41.41.470,avatar_quest_3AFC_legacy,2022.1.3,Win32,169.4915254,592dc86c61bcd8000107c131,67fe6e666cecbc9329ddf6d6,67fe6ee6b9350a8b57fc0f6b,,,,,,,,,,,,,,,,,,,,,,With Brainslug Difficult 1 With Money,6,images/assets/snowy_money.jpg,learning,20,images/assets/success_money.jpg,images/assets/gameover.jpg,,,,,,,,,,,,,0,3,3,0,1,,,,,,,,,,,,,,,,,,,,,,,,,,,,,,,,
,,,,,,,,,,,,592dc86c61bcd8000107c131,001,3,2025-04-15_09h41.41.470,avatar_quest_3AFC_legacy,2022.1.3,Win32,169.4915254,592dc86c61bcd8000107c131,67fe6e666cecbc9329ddf6d6,67fe6ee6b9350a8b57fc0f6b,"[""right"",""right"",""right"",""right"",""right"",""right"",""right"",""left"",""left"",""left"",""left"",""right"",""right"",""right"",""right"",""right"",""right"",""left"",""left"",""right"",""right"",""right"",""right"",""left"",""left"",""right"",""left"",""left"",""left"",""left"",""right"",""left"",""right"",""left"",""left"",""left""]","[1.6883999999910486,2.2347000000029595,2.4152999999970177,2.7942000000029736,3.0742999999970095,3.3362000000029752,3.516799999997005,3.96220000000298,4.108099999994039,4.249399999991056,4.433200000002984,4.640999999999991,4.821399999991058,4.934700000002977,5.107700000002978,5.222499999999997,5.369700000002979,5.614599999994027,5.788700000002962,5.868499999999983,6.07939999999104,6.261399999991056,6.402700000002966,6.527500000000003,6.726200000002962,6.8067999999970255,7.020899999991059,7.334599999994026,7.408700000002966,7.586599999994036,8.000599999994023,8.215099999994038,8.593500000000006,8.647299999997017,8.785399999991057,8.926599999994039]",,calibration,With Brainslug Difficult 2 With Money,4,8.99495,8.9976,15,7,0,FALSE,na,na,na,na,,,,,,,,,,,,,,,,,,,,,,,,,,,,,,,,,,0,0,0,0,1,,,,,,,,,,,,,,,,,,,,,,,
,,,,,,,,,,,,592dc86c61bcd8000107c131,001,3,2025-04-15_09h41.41.470,avatar_quest_3AFC_legacy,2022.1.3,Win32,169.4915254,592dc86c61bcd8000107c131,67fe6e666cecbc9329ddf6d6,67fe6ee6b9350a8b57fc0f6b,,,,,,,,,,,,,,,,,,,,,,With Brainslug Difficult 2 With Money,12,images/assets/snowy_money.jpg,learning,20,images/assets/success_money.jpg,images/assets/gameover.jpg,,,,,,,,,,,,,0,4,4,2,1,,,,,,,,,,,,,,,,,,,,,,,,,,,,,,,,
,,,,,,,,,,,,592dc86c61bcd8000107c131,001,3,2025-04-15_09h41.41.470,avatar_quest_3AFC_legacy,2022.1.3,Win32,169.4915254,592dc86c61bcd8000107c131,67fe6e666cecbc9329ddf6d6,67fe6ee6b9350a8b57fc0f6b,,,,,,,,,,,,,,,,,,,,,,No Brainslug Difficult 2 No Money,12,images/assets/snowy_original.jpg,learning,20,images/assets/success.jpg,images/assets/gameover.jpg,,,,,,,,,,,,,0,5,5,8,1,,,,,,,,,,,,,,,,,,,,,,,,,,,,,,,,
,,,,,,,,,,,,592dc86c61bcd8000107c131,001,3,2025-04-15_09h41.41.470,avatar_quest_3AFC_legacy,2022.1.3,Win32,169.4915254,592dc86c61bcd8000107c131,67fe6e666cecbc9329ddf6d6,67fe6ee6b9350a8b57fc0f6b,,,,,,,,,,,,,,,,,,,,,,No Brainslug No Barriers With Money,0,images/assets/snowy_money.jpg,learning,10,images/assets/success_money.jpg,images/assets/gameover.jpg,,,,,,,,,,,,,0,6,6,9,1,,,,,,,,,,,,,,,,,,,,,,,,,,,,,,,,
,,,,,,,,,,,,592dc86c61bcd8000107c131,001,3,2025-04-15_09h41.41.470,avatar_quest_3AFC_legacy,2022.1.3,Win32,169.4915254,592dc86c61bcd8000107c131,67fe6e666cecbc9329ddf6d6,67fe6ee6b9350a8b57fc0f6b,,,,,,,,,,,,,,,,,,,,,,With Brainslug Difficult 2 No Money,12,images/assets/snowy_original.jpg,learning,20,images/assets/success.jpg,images/assets/gameover.jpg,,,,,,,,,,,,,0,7,7,3,1,,,,,,,,,,,,,,,,,,,,,,,,,,,,,,,,
,,,,,,,,,,,,592dc86c61bcd8000107c131,001,3,2025-04-15_09h41.41.470,avatar_quest_3AFC_legacy,2022.1.3,Win32,169.4915254,592dc86c61bcd8000107c131,67fe6e666cecbc9329ddf6d6,67fe6ee6b9350a8b57fc0f6b,,,,,,,,,,,,,,,,,,,,,,With Brainslug No Barriers With Money,0,images/assets/snowy_money.jpg,learning,10,images/assets/success_money.jpg,images/assets/gameover.jpg,,,,,,,,,,,,,0,8,8,4,1,,,,,,,,,,,,,,,,,,,,,,,,,,,,,,,,
,,,,,,,,,,,,592dc86c61bcd8000107c131,001,3,2025-04-15_09h41.41.470,avatar_quest_3AFC_legacy,2022.1.3,Win32,169.4915254,592dc86c61bcd8000107c131,67fe6e666cecbc9329ddf6d6,67fe6ee6b9350a8b57fc0f6b,,,,,,,,,,,,,,,,,,,,,,No Brainslug Difficult 2 With Money,12,images/assets/snowy_money.jpg,learning,20,images/assets/success_money.jpg,images/assets/gameover.jpg,,,,,,,,,,,,,0,9,9,7,1,,,,,,,,,,,,,,,,,,,,,,,,,,,,,,,,
,,,,,,,,,,,,592dc86c61bcd8000107c131,001,3,2025-04-15_09h41.41.470,avatar_quest_3AFC_legacy,2022.1.3,Win32,169.4915254,592dc86c61bcd8000107c131,67fe6e666cecbc9329ddf6d6,67fe6ee6b9350a8b57fc0f6b,,,,,,,,,,,,,,,,,,,,,,With Brainslug Difficult 1 No Money,6,images/assets/snowy_original.jpg,learning,20,images/assets/success.jpg,images/assets/gameover.jpg,,,,,,,,,,,,,0,10,10,1,1,,,,,,,,,,,,,,,,,,,,,,,,,,,,,,,,
,,,,,,,,,,,,592dc86c61bcd8000107c131,001,3,2025-04-15_09h41.41.470,avatar_quest_3AFC_legacy,2022.1.3,Win32,169.4915254,592dc86c61bcd8000107c131,67fe6e666cecbc9329ddf6d6,67fe6ee6b9350a8b57fc0f6b,,,,,,,,,,,,,,,,,,,,,,,,,,,,,,,,,,,,,,,,,,,,,,,,,,,,,,,0,0,0,0,1,,,,,,,,,,,,,,,,,,
,,,,,,,,,,,,592dc86c61bcd8000107c131,001,3,2025-04-15_09h41.41.470,avatar_quest_3AFC_legacy,2022.1.3,Win32,169.4915254,592dc86c61bcd8000107c131,67fe6e666cecbc9329ddf6d6,67fe6ee6b9350a8b57fc0f6b,,,,,,,,,,,,,,,,,,,,,,No Brainslug No Barriers With Money,0,images/assets/snowy_money.jpg,learning,10,images/assets/success_money.jpg,images/assets/gameover.jpg,,,,,,,,With Brainslug Difficult 2 With Money,With Brainslug Difficult 1 No Money,right,4.8749,"[""With Brainslug Difficult 1 No Money"",""With Brainslug Difficult 2 No Money""]",0,0,0,9,1,,,,,,,,,,,,,,,,,,,,,,,,,,,,,,,,
,,,,,,,,,,,,592dc86c61bcd8000107c131,001,3,2025-04-15_09h41.41.470,avatar_quest_3AFC_legacy,2022.1.3,Win32,169.4915254,592dc86c61bcd8000107c131,67fe6e666cecbc9329ddf6d6,67fe6ee6b9350a8b57fc0f6b,,,,,,,,,,,,,,,,,,,,,,With Brainslug Difficult 1 With Money,6,images/assets/snowy_money.jpg,learning,20,images/assets/success_money.jpg,images/assets/gameover.jpg,,,,,,,,,,,,,0,1,1,0,1,,,,,,,,,,,,,,,,,,,,,,,,,,,,,,,,
,,,,,,,,,,,,592dc86c61bcd8000107c131,001,3,2025-04-15_09h41.41.470,avatar_quest_3AFC_legacy,2022.1.3,Win32,169.4915254,592dc86c61bcd8000107c131,67fe6e666cecbc9329ddf6d6,67fe6ee6b9350a8b57fc0f6b,,,,,,,,,,,,,,,,,,,,,,With Brainslug No Barriers No Money,0,images/assets/snowy_original.jpg,learning,10,images/assets/success.jpg,images/assets/gameover.jpg,,,,,,,,,,,,,0,2,2,5,1,,,,,,,,,,,,,,,,,,,,,,,,,,,,,,,,
,,,,,,,,,,,,592dc86c61bcd8000107c131,001,3,2025-04-15_09h41.41.470,avatar_quest_3AFC_legacy,2022.1.3,Win32,169.4915254,592dc86c61bcd8000107c131,67fe6e666cecbc9329ddf6d6,67fe6ee6b9350a8b57fc0f6b,,,,,,,,,,,,,,,,,,,,,,With Brainslug Difficult 1 No Money,6,images/assets/snowy_original.jpg,learning,20,images/assets/success.jpg,images/assets/gameover.jpg,,,,,,,,,,,,,0,3,3,1,1,,,,,,,,,,,,,,,,,,,,,,,,,,,,,,,,
,,,,,,,,,,,,592dc86c61bcd8000107c131,001,3,2025-04-15_09h41.41.470,avatar_quest_3AFC_legacy,2022.1.3,Win32,169.4915254,592dc86c61bcd8000107c131,67fe6e666cecbc9329ddf6d6,67fe6ee6b9350a8b57fc0f6b,,,,,,,,,,,,,,,,,,,,,,With Brainslug No Barriers With Money,0,images/assets/snowy_money.jpg,learning,10,images/assets/success_money.jpg,images/assets/gameover.jpg,,,,,,,,,,,,,0,4,4,4,1,,,,,,,,,,,,,,,,,,,,,,,,,,,,,,,,
,,,,,,,,,,,,592dc86c61bcd8000107c131,001,3,2025-04-15_09h41.41.470,avatar_quest_3AFC_legacy,2022.1.3,Win32,169.4915254,592dc86c61bcd8000107c131,67fe6e666cecbc9329ddf6d6,67fe6ee6b9350a8b57fc0f6b,,,,,,,,,,,,,,,,,,,,,,No Brainslug Difficult 2 With Money,12,images/assets/snowy_money.jpg,learning,20,images/assets/success_money.jpg,images/assets/gameover.jpg,,,,,,,,,,,,,0,5,5,7,1,,,,,,,,,,,,,,,,,,,,,,,,,,,,,,,,
,,,,,,,,,,,,592dc86c61bcd8000107c131,001,3,2025-04-15_09h41.41.470,avatar_quest_3AFC_legacy,2022.1.3,Win32,169.4915254,592dc86c61bcd8000107c131,67fe6e666cecbc9329ddf6d6,67fe6ee6b9350a8b57fc0f6b,,,,,,,,,,,,,,,,,,,,,,No Brainslug Difficult 2 No Money,12,images/assets/snowy_original.jpg,learning,20,images/assets/success.jpg,images/assets/gameover.jpg,,,,,,,,,,,,,0,6,6,8,1,,,,,,,,,,,,,,,,,,,,,,,,,,,,,,,,
,,,,,,,,,,,,592dc86c61bcd8000107c131,001,3,2025-04-15_09h41.41.470,avatar_quest_3AFC_legacy,2022.1.3,Win32,169.4915254,592dc86c61bcd8000107c131,67fe6e666cecbc9329ddf6d6,67fe6ee6b9350a8b57fc0f6b,,,,,,,,,,,,,,,,,,,,,,No Brainslug Difficult 1 No Money,6,images/assets/snowy_original.jpg,learning,20,images/assets/success.jpg,images/assets/gameover.jpg,,,,,,,,,,,,,0,7,7,6,1,,,,,,,,,,,,,,,,,,,,,,,,,,,,,,,,
,,,,,,,,,,,,592dc86c61bcd8000107c131,001,3,2025-04-15_09h41.41.470,avatar_quest_3AFC_legacy,2022.1.3,Win32,169.4915254,592dc86c61bcd8000107c131,67fe6e666cecbc9329ddf6d6,67fe6ee6b9350a8b57fc0f6b,"[""left"",""right"",""right"",""right"",""right"",""left"",""left"",""left"",""left"",""left"",""left"",""left"",""left"",""left"",""right"",""right"",""right"",""right"",""right"",""right"",""left"",""left"",""right"",""right"",""right"",""left"",""left"",""left"",""left"",""right"",""right"",""right"",""right"",""left"",""left"",""left"",""left"",""left"",""left"",""left"",""left"",""right"",""right""]","[0.6189999999999998,1.3320999999940568,1.6137000000029786,1.8217999999970402,2.001700000002984,2.51309999999404,2.8947000000029846,3.1053999999910786,3.3197999999970307,3.498299999997016,3.711700000002992,3.887599999994052,4.033899999991064,4.211299999997038,4.459200000002994,4.705399999991073,4.882700000002984,5.196399999991058,5.457899999991071,5.670000000000016,5.750599999994051,5.925000000000011,6.10359999999406,6.2860999999940645,6.429500000000019,6.539200000003007,6.65209999999405,6.7964999999999804,6.944599999994068,7.0364999999999895,7.183700000003,7.333000000000027,7.478099999994072,7.553399999991086,7.699599999994064,7.874700000002974,8.125,8.302000000000021,8.444299999997043,8.522599999994043,8.672500000000014,8.818200000003003,8.96189999999109]",,calibration,With Brainslug Difficult 2 With Money,5,8.99495,8.9983,23,8,0,FALSE,na,na,na,na,,,,,,,,,,,,,,,,,,,,,,,,,,,,,,,,,,0,0,0,0,1,,,,,,,,,,,,,,,,,,,,,,,
,,,,,,,,,,,,592dc86c61bcd8000107c131,001,3,2025-04-15_09h41.41.470,avatar_quest_3AFC_legacy,2022.1.3,Win32,169.4915254,592dc86c61bcd8000107c131,67fe6e666cecbc9329ddf6d6,67fe6ee6b9350a8b57fc0f6b,,,,,,,,,,,,,,,,,,,,,,With Brainslug Difficult 2 With Money,12,images/assets/snowy_money.jpg,learning,20,images/assets/success_money.jpg,images/assets/gameover.jpg,,,,,,,,,,,,,0,8,8,2,1,,,,,,,,,,,,,,,,,,,,,,,,,,,,,,,,
,,,,,,,,,,,,592dc86c61bcd8000107c131,001,3,2025-04-15_09h41.41.470,avatar_quest_3AFC_legacy,2022.1.3,Win32,169.4915254,592dc86c61bcd8000107c131,67fe6e666cecbc9329ddf6d6,67fe6ee6b9350a8b57fc0f6b,,,,,,,,,,,,,,,,,,,,,,With Brainslug Difficult 2 No Money,12,images/assets/snowy_original.jpg,learning,20,images/assets/success.jpg,images/assets/gameover.jpg,,,,,,,,,,,,,0,9,9,3,1,,,,,,,,,,,,,,,,,,,,,,,,,,,,,,,,
,,,,,,,,,,,,592dc86c61bcd8000107c131,001,3,2025-04-15_09h41.41.470,avatar_quest_3AFC_legacy,2022.1.3,Win32,169.4915254,592dc86c61bcd8000107c131,67fe6e666cecbc9329ddf6d6,67fe6ee6b9350a8b57fc0f6b,,,,,,,,,,,,,,,,,,,,,,No Brainslug No Barriers No Money,0,images/assets/snowy_original.jpg,learning,10,images/assets/success.jpg,images/assets/gameover.jpg,,,,,,,,,,,,,0,10,10,10,1,,,,,,,,,,,,,,,,,,,,,,,,,,,,,,,,
,,,,,,,,,,,,592dc86c61bcd8000107c131,001,3,2025-04-15_09h41.41.470,avatar_quest_3AFC_legacy,2022.1.3,Win32,169.4915254,592dc86c61bcd8000107c131,67fe6e666cecbc9329ddf6d6,67fe6ee6b9350a8b57fc0f6b,,,,,,,,,,,,,,,,,,,,,,,,,,,,,,,,,,,,,,,,,,,,,,,,,,,,,,,1,0,1,0,1,,,,,,,,,,,,,,,,,,
,,,,,,,,,,,,592dc86c61bcd8000107c131,001,3,2025-04-15_09h41.41.470,avatar_quest_3AFC_legacy,2022.1.3,Win32,169.4915254,592dc86c61bcd8000107c131,67fe6e666cecbc9329ddf6d6,67fe6ee6b9350a8b57fc0f6b,"[""left"",""left"",""left"",""right"",""right"",""right"",""right"",""right"",""left"",""right"",""left"",""left"",""left"",""left"",""right"",""right"",""right"",""left"",""left"",""left"",""right"",""right"",""left"",""left"",""left"",""right"",""left"",""left"",""right"",""right"",""left"",""left"",""left"",""right"",""right"",""right"",""right"",""right"",""left"",""left""]","[0.42149999999998045,0.5628000000119187,0.7418000000118923,0.8524000000059573,1.031900000005976,1.2117000000029634,1.5247000000029516,1.6999000000059254,1.8128000000119187,1.9451000000089493,2.0321000000089384,2.2323000000118896,2.34699999999998,2.457499999999982,2.600999999999999,2.8504000000059477,2.9577000000029443,3.1068000000119014,3.2899999999999636,3.4334000000059746,3.577400000005923,3.7404999999999973,3.9133000000119296,4.06340000000597,4.204900000005978,4.319500000000005,4.49430000001189,4.644200000002968,4.754900000005932,4.933300000011911,5.212499999999977,5.324600000008957,5.470400000005952,5.617500000000007,5.791499999999985,5.925999999999988,6.066800000011938,6.178800000011904,6.289999999999964,6.433499999999981]",,calibration,With Brainslug Difficult 2 With Money,6,8.99495,6.5726,20,9,0,TRUE,na,na,na,na,,,,,,,,,,,,,,,,,,,,With Brainslug Difficult 2 With Money,With Brainslug Difficult 1 No Money,right,1.9826,"[""With Brainslug Difficult 1 No Money"",""With Brainslug Difficult 2 No Money""]",,,,,,,,,,0,0,0,0,1,,,,,,,,,,,,,,,,,,,,,,,
,,,,,,,,,,,,592dc86c61bcd8000107c131,001,3,2025-04-15_09h41.41.470,avatar_quest_3AFC_legacy,2022.1.3,Win32,169.4915254,592dc86c61bcd8000107c131,67fe6e666cecbc9329ddf6d6,67fe6ee6b9350a8b57fc0f6b,,,,,,,,,,,,,,,,,,,,,,With Brainslug Difficult 2 With Money,12,images/assets/snowy_money.jpg,learning,20,images/assets/success_money.jpg,images/assets/gameover.jpg,,,,,,,,,,,,,0,0,0,2,1,,,,,,,,,,,,,,,,,,,,,,,,,,,,,,,,
,,,,,,,,,,,,592dc86c61bcd8000107c131,001,3,2025-04-15_09h41.41.470,avatar_quest_3AFC_legacy,2022.1.3,Win32,169.4915254,592dc86c61bcd8000107c131,67fe6e666cecbc9329ddf6d6,67fe6ee6b9350a8b57fc0f6b,,,,,,,,,,,,,,,,,,,,,,With Brainslug Difficult 2 No Money,12,images/assets/snowy_original.jpg,learning,20,images/assets/success.jpg,images/assets/gameover.jpg,,,,,,,,,,,,,0,1,1,3,1,,,,,,,,,,,,,,,,,,,,,,,,,,,,,,,,
,,,,,,,,,,,,592dc86c61bcd8000107c131,001,3,2025-04-15_09h41.41.470,avatar_quest_3AFC_legacy,2022.1.3,Win32,169.4915254,592dc86c61bcd8000107c131,67fe6e666cecbc9329ddf6d6,67fe6ee6b9350a8b57fc0f6b,,,,,,,,,,,,,,,,,,,,,,No Brainslug Difficult 1 No Money,6,images/assets/snowy_original.jpg,learning,20,images/assets/success.jpg,images/assets/gameover.jpg,,,,,,,,,,,,,0,2,2,6,1,,,,,,,,,,,,,,,,,,,,,,,,,,,,,,,,
,,,,,,,,,,,,592dc86c61bcd8000107c131,001,3,2025-04-15_09h41.41.470,avatar_quest_3AFC_legacy,2022.1.3,Win32,169.4915254,592dc86c61bcd8000107c131,67fe6e666cecbc9329ddf6d6,67fe6ee6b9350a8b57fc0f6b,,,,,,,,,,,,,,,,,,,,,,No Brainslug Difficult 2 No Money,12,images/assets/snowy_original.jpg,learning,20,images/assets/success.jpg,images/assets/gameover.jpg,,,,,,,,,,,,,0,3,3,8,1,,,,,,,,,,,,,,,,,,,,,,,,,,,,,,,,
,,,,,,,,,,,,592dc86c61bcd8000107c131,001,3,2025-04-15_09h41.41.470,avatar_quest_3AFC_legacy,2022.1.3,Win32,169.4915254,592dc86c61bcd8000107c131,67fe6e666cecbc9329ddf6d6,67fe6ee6b9350a8b57fc0f6b,,,,,,,,,,,,,,,,,,,,,,No Brainslug No Barriers No Money,0,images/assets/snowy_original.jpg,learning,10,images/assets/success.jpg,images/assets/gameover.jpg,,,,,,,,,,,,,0,4,4,10,1,,,,,,,,,,,,,,,,,,,,,,,,,,,,,,,,
,,,,,,,,,,,,592dc86c61bcd8000107c131,001,3,2025-04-15_09h41.41.470,avatar_quest_3AFC_legacy,2022.1.3,Win32,169.4915254,592dc86c61bcd8000107c131,67fe6e666cecbc9329ddf6d6,67fe6ee6b9350a8b57fc0f6b,,,,,,,,,,,,,,,,,,,,,,No Brainslug No Barriers With Money,0,images/assets/snowy_money.jpg,learning,10,images/assets/success_money.jpg,images/assets/gameover.jpg,,,,,,,,,,,,,0,5,5,9,1,,,,,,,,,,,,,,,,,,,,,,,,,,,,,,,,
,,,,,,,,,,,,592dc86c61bcd8000107c131,001,3,2025-04-15_09h41.41.470,avatar_quest_3AFC_legacy,2022.1.3,Win32,169.4915254,592dc86c61bcd8000107c131,67fe6e666cecbc9329ddf6d6,67fe6ee6b9350a8b57fc0f6b,,,,,,,,,,,,,,,,,,,,,,With Brainslug No Barriers With Money,0,images/assets/snowy_money.jpg,learning,10,images/assets/success_money.jpg,images/assets/gameover.jpg,,,,,,,,,,,,,0,6,6,4,1,,,,,,,,,,,,,,,,,,,,,,,,,,,,,,,,
,,,,,,,,,,,,592dc86c61bcd8000107c131,001,3,2025-04-15_09h41.41.470,avatar_quest_3AFC_legacy,2022.1.3,Win32,169.4915254,592dc86c61bcd8000107c131,67fe6e666cecbc9329ddf6d6,67fe6ee6b9350a8b57fc0f6b,,,,,,,,,,,,,,,,,,,,,,With Brainslug Difficult 1 No Money,6,images/assets/snowy_original.jpg,learning,20,images/assets/success.jpg,images/assets/gameover.jpg,,,,,,,,,,,,,0,7,7,1,1,,,,,,,,,,,,,,,,,,,,,,,,,,,,,,,,
,,,,,,,,,,,,592dc86c61bcd8000107c131,001,3,2025-04-15_09h41.41.470,avatar_quest_3AFC_legacy,2022.1.3,Win32,169.4915254,592dc86c61bcd8000107c131,67fe6e666cecbc9329ddf6d6,67fe6ee6b9350a8b57fc0f6b,,,,,,,,,,,,,,,,,,,,,,With Brainslug No Barriers No Money,0,images/assets/snowy_original.jpg,learning,10,images/assets/success.jpg,images/assets/gameover.jpg,,,,,,,,,,,,,0,8,8,5,1,,,,,,,,,,,,,,,,,,,,,,,,,,,,,,,,
,,,,,,,,,,,,592dc86c61bcd8000107c131,001,3,2025-04-15_09h41.41.470,avatar_quest_3AFC_legacy,2022.1.3,Win32,169.4915254,592dc86c61bcd8000107c131,67fe6e666cecbc9329ddf6d6,67fe6ee6b9350a8b57fc0f6b,,,,,,,,,,,,,,,,,,,,,,With Brainslug Difficult 1 With Money,6,images/assets/snowy_money.jpg,learning,20,images/assets/success_money.jpg,images/assets/gameover.jpg,,,,,,,,,,,,,0,9,9,0,1,,,,,,,,,,,,,,,,,,,,,,,,,,,,,,,,
,,,,,,,,,,,,592dc86c61bcd8000107c131,001,3,2025-04-15_09h41.41.470,avatar_quest_3AFC_legacy,2022.1.3,Win32,169.4915254,592dc86c61bcd8000107c131,67fe6e666cecbc9329ddf6d6,67fe6ee6b9350a8b57fc0f6b,,,,,,,,,,,,,,,,,,,,,,No Brainslug Difficult 2 With Money,12,images/assets/snowy_money.jpg,learning,20,images/assets/success_money.jpg,images/assets/gameover.jpg,,,,,,,,,,,,,0,10,10,7,1,,,,,,,,,,,,,,,,,,,,,,,,,,,,,,,,
,,,,,,,,,,,,592dc86c61bcd8000107c131,001,3,2025-04-15_09h41.41.470,avatar_quest_3AFC_legacy,2022.1.3,Win32,169.4915254,592dc86c61bcd8000107c131,67fe6e666cecbc9329ddf6d6,67fe6ee6b9350a8b57fc0f6b,,,,,,,,,,,,,,,,,,,,,,,,,,,,,,,,,,,,,,,,,,,,,,,,,,,,,,,2,0,2,0,1,,,,,,,,,,,,,,,,,,
,,,,,,,,,,,,592dc86c61bcd8000107c131,001,3,2025-04-15_09h41.41.470,avatar_quest_3AFC_legacy,2022.1.3,Win32,169.4915254,592dc86c61bcd8000107c131,67fe6e666cecbc9329ddf6d6,67fe6ee6b9350a8b57fc0f6b,,,,,,,,,,,,,,,,,,,,,,No Brainslug No Barriers With Money,0,images/assets/snowy_money.jpg,learning,10,images/assets/success_money.jpg,images/assets/gameover.jpg,,,,,,,,With Brainslug Difficult 2 With Money,With Brainslug Difficult 1 No Money,right,3.992,"[""With Brainslug Difficult 1 No Money"",""With Brainslug Difficult 2 No Money""]",0,0,0,9,1,,,,,,,,,,,,,,,,,,,,,,,,,,,,,,,,
,,,,,,,,,,,,592dc86c61bcd8000107c131,001,3,2025-04-15_09h41.41.470,avatar_quest_3AFC_legacy,2022.1.3,Win32,169.4915254,592dc86c61bcd8000107c131,67fe6e666cecbc9329ddf6d6,67fe6ee6b9350a8b57fc0f6b,,,,,,,,,,,,,,,,,,,,,,With Brainslug No Barriers No Money,0,images/assets/snowy_original.jpg,learning,10,images/assets/success.jpg,images/assets/gameover.jpg,,,,,,,,,,,,,0,1,1,5,1,,,,,,,,,,,,,,,,,,,,,,,,,,,,,,,,
,,,,,,,,,,,,592dc86c61bcd8000107c131,001,3,2025-04-15_09h41.41.470,avatar_quest_3AFC_legacy,2022.1.3,Win32,169.4915254,592dc86c61bcd8000107c131,67fe6e666cecbc9329ddf6d6,67fe6ee6b9350a8b57fc0f6b,,,,,,,,,,,,,,,,,,,,,,With Brainslug Difficult 1 No Money,6,images/assets/snowy_original.jpg,learning,20,images/assets/success.jpg,images/assets/gameover.jpg,,,,,,,,,,,,,0,2,2,1,1,,,,,,,,,,,,,,,,,,,,,,,,,,,,,,,,
,,,,,,,,,,,,592dc86c61bcd8000107c131,001,3,2025-04-15_09h41.41.470,avatar_quest_3AFC_legacy,2022.1.3,Win32,169.4915254,592dc86c61bcd8000107c131,67fe6e666cecbc9329ddf6d6,67fe6ee6b9350a8b57fc0f6b,,,,,,,,,,,,,,,,,,,,,,No Brainslug Difficult 2 No Money,12,images/assets/snowy_original.jpg,learning,20,images/assets/success.jpg,images/assets/gameover.jpg,,,,,,,,,,,,,0,3,3,8,1,,,,,,,,,,,,,,,,,,,,,,,,,,,,,,,,
,,,,,,,,,,,,592dc86c61bcd8000107c131,001,3,2025-04-15_09h41.41.470,avatar_quest_3AFC_legacy,2022.1.3,Win32,169.4915254,592dc86c61bcd8000107c131,67fe6e666cecbc9329ddf6d6,67fe6ee6b9350a8b57fc0f6b,,,,,,,,,,,,,,,,,,,,,,No Brainslug Difficult 2 With Money,12,images/assets/snowy_money.jpg,learning,20,images/assets/success_money.jpg,images/assets/gameover.jpg,,,,,,,,,,,,,0,4,4,7,1,,,,,,,,,,,,,,,,,,,,,,,,,,,,,,,,
,,,,,,,,,,,,592dc86c61bcd8000107c131,001,3,2025-04-15_09h41.41.470,avatar_quest_3AFC_legacy,2022.1.3,Win32,169.4915254,592dc86c61bcd8000107c131,67fe6e666cecbc9329ddf6d6,67fe6ee6b9350a8b57fc0f6b,,,,,,,,,,,,,,,,,,,,,,With Brainslug Difficult 2 No Money,12,images/assets/snowy_original.jpg,learning,20,images/assets/success.jpg,images/assets/gameover.jpg,,,,,,,,,,,,,0,5,5,3,1,,,,,,,,,,,,,,,,,,,,,,,,,,,,,,,,
,,,,,,,,,,,,592dc86c61bcd8000107c131,001,3,2025-04-15_09h41.41.470,avatar_quest_3AFC_legacy,2022.1.3,Win32,169.4915254,592dc86c61bcd8000107c131,67fe6e666cecbc9329ddf6d6,67fe6ee6b9350a8b57fc0f6b,,,,,,,,,,,,,,,,,,,,,,No Brainslug No Barriers No Money,0,images/assets/snowy_original.jpg,learning,10,images/assets/success.jpg,images/assets/gameover.jpg,,,,,,,,,,,,,0,6,6,10,1,,,,,,,,,,,,,,,,,,,,,,,,,,,,,,,,
,,,,,,,,,,,,592dc86c61bcd8000107c131,001,3,2025-04-15_09h41.41.470,avatar_quest_3AFC_legacy,2022.1.3,Win32,169.4915254,592dc86c61bcd8000107c131,67fe6e666cecbc9329ddf6d6,67fe6ee6b9350a8b57fc0f6b,,,,,,,,,,,,,,,,,,,,,,With Brainslug No Barriers With Money,0,images/assets/snowy_money.jpg,learning,10,images/assets/success_money.jpg,images/assets/gameover.jpg,,,,,,,,,,,,,0,7,7,4,1,,,,,,,,,,,,,,,,,,,,,,,,,,,,,,,,
,,,,,,,,,,,,592dc86c61bcd8000107c131,001,3,2025-04-15_09h41.41.470,avatar_quest_3AFC_legacy,2022.1.3,Win32,169.4915254,592dc86c61bcd8000107c131,67fe6e666cecbc9329ddf6d6,67fe6ee6b9350a8b57fc0f6b,,,,,,,,,,,,,,,,,,,,,,With Brainslug Difficult 1 With Money,6,images/assets/snowy_money.jpg,learning,20,images/assets/success_money.jpg,images/assets/gameover.jpg,,,,,,,,,,,,,0,8,8,0,1,,,,,,,,,,,,,,,,,,,,,,,,,,,,,,,,
,,,,,,,,,,,,592dc86c61bcd8000107c131,001,3,2025-04-15_09h41.41.470,avatar_quest_3AFC_legacy,2022.1.3,Win32,169.4915254,592dc86c61bcd8000107c131,67fe6e666cecbc9329ddf6d6,67fe6ee6b9350a8b57fc0f6b,,,,,,,,,,,,,,,,,,,,,,No Brainslug Difficult 1 No Money,6,images/assets/snowy_original.jpg,learning,20,images/assets/success.jpg,images/assets/gameover.jpg,,,,,,,,,,,,,0,9,9,6,1,,,,,,,,,,,,,,,,,,,,,,,,,,,,,,,,
,,,,,,,,,,,,592dc86c61bcd8000107c131,001,3,2025-04-15_09h41.41.470,avatar_quest_3AFC_legacy,2022.1.3,Win32,169.4915254,592dc86c61bcd8000107c131,67fe6e666cecbc9329ddf6d6,67fe6ee6b9350a8b57fc0f6b,"[""left"",""left"",""right"",""right"",""left"",""left"",""left"",""left"",""left"",""left"",""left"",""right"",""right"",""right"",""left"",""right"",""right"",""left"",""left"",""right"",""right"",""right"",""right"",""right"",""right"",""right"",""right"",""right"",""right"",""left"",""left"",""left"",""left"",""right"",""right"",""right"",""right"",""right"",""left"",""left"",""left"",""right"",""right"",""right"",""right"",""right""]","[0.40960000000893615,0.5906000000089193,1.5085000000000264,1.6499999999999773,1.7604000000059727,1.9444000000059418,2.1169000000059555,2.297600000008913,2.4788000000119155,2.589200000002961,2.73690000000596,2.882000000000005,3.0409000000059336,3.1842000000029884,3.2656000000089307,3.4809999999999945,3.622800000011921,3.736800000011897,3.9172000000029925,4.089600000008943,4.268400000005954,4.434600000008913,4.543600000008951,4.68930000001194,4.8739000000059605,5.015900000005956,5.161600000008946,5.302400000005946,5.448300000011898,5.503300000011905,5.64370000000298,5.782900000005952,5.896100000008914,6.031999999999982,6.2419000000059555,6.356900000005965,6.468800000011925,6.581400000005942,6.822499999999991,6.967200000003004,7.086100000008912,7.1958000000119,7.336500000000001,7.448100000008935,7.596200000002966,7.707200000002956]",,calibration,With Brainslug Difficult 2 With Money,7,8.99495,7.8791,20,7,0,TRUE,na,na,na,na,,,,,,,,,,,,,,,,,,,,,,,,,,,,,,,,,,0,0,0,0,1,,,,,,,,,,,,,,,,,,,,,,,
,,,,,,,,,,,,592dc86c61bcd8000107c131,001,3,2025-04-15_09h41.41.470,avatar_quest_3AFC_legacy,2022.1.3,Win32,169.4915254,592dc86c61bcd8000107c131,67fe6e666cecbc9329ddf6d6,67fe6ee6b9350a8b57fc0f6b,,,,,,,,,,,,,,,,,,,,,,With Brainslug Difficult 2 With Money,12,images/assets/snowy_money.jpg,learning,20,images/assets/success_money.jpg,images/assets/gameover.jpg,,,,,,,,,,,,,0,10,10,2,1,,,,,,,,,,,,,,,,,,,,,,,,,,,,,,,,
,,,,,,,,,,,,592dc86c61bcd8000107c131,001,3,2025-04-15_09h41.41.470,avatar_quest_3AFC_legacy,2022.1.3,Win32,169.4915254,592dc86c61bcd8000107c131,67fe6e666cecbc9329ddf6d6,67fe6ee6b9350a8b57fc0f6b,,,,,,,,,,,,,,,,,,,,,,,,,,,,,,,,,,,,,,,,,,,,,,,,,,,,,,,3,0,3,0,1,,,,,,,,,,,,,,,,,,
,,,,,,,,,,,,592dc86c61bcd8000107c131,001,3,2025-04-15_09h41.41.470,avatar_quest_3AFC_legacy,2022.1.3,Win32,169.4915254,592dc86c61bcd8000107c131,67fe6e666cecbc9329ddf6d6,67fe6ee6b9350a8b57fc0f6b,,,,,,,,,,,,,,,,,,,,,,With Brainslug Difficult 1 No Money,6,images/assets/snowy_original.jpg,learning,20,images/assets/success.jpg,images/assets/gameover.jpg,,,,,,,,With Brainslug Difficult 2 With Money,With Brainslug Difficult 1 No Money,right,4.597,"[""With Brainslug Difficult 1 No Money"",""With Brainslug Difficult 2 No Money""]",0,0,0,1,1,,,,,,,,,,,,,,,,,,,,,,,,,,,,,,,,
,,,,,,,,,,,,592dc86c61bcd8000107c131,001,3,2025-04-15_09h41.41.470,avatar_quest_3AFC_legacy,2022.1.3,Win32,169.4915254,592dc86c61bcd8000107c131,67fe6e666cecbc9329ddf6d6,67fe6ee6b9350a8b57fc0f6b,,,,,,,,,,,,,,,,,,,,,,With Brainslug No Barriers With Money,0,images/assets/snowy_money.jpg,learning,10,images/assets/success_money.jpg,images/assets/gameover.jpg,,,,,,,,,,,,,0,1,1,4,1,,,,,,,,,,,,,,,,,,,,,,,,,,,,,,,,
,,,,,,,,,,,,592dc86c61bcd8000107c131,001,3,2025-04-15_09h41.41.470,avatar_quest_3AFC_legacy,2022.1.3,Win32,169.4915254,592dc86c61bcd8000107c131,67fe6e666cecbc9329ddf6d6,67fe6ee6b9350a8b57fc0f6b,,,,,,,,,,,,,,,,,,,,,,With Brainslug Difficult 1 With Money,6,images/assets/snowy_money.jpg,learning,20,images/assets/success_money.jpg,images/assets/gameover.jpg,,,,,,,,,,,,,0,2,2,0,1,,,,,,,,,,,,,,,,,,,,,,,,,,,,,,,,
,,,,,,,,,,,,592dc86c61bcd8000107c131,001,3,2025-04-15_09h41.41.470,avatar_quest_3AFC_legacy,2022.1.3,Win32,169.4915254,592dc86c61bcd8000107c131,67fe6e666cecbc9329ddf6d6,67fe6ee6b9350a8b57fc0f6b,,,,,,,,,,,,,,,,,,,,,,No Brainslug No Barriers No Money,0,images/assets/snowy_original.jpg,learning,10,images/assets/success.jpg,images/assets/gameover.jpg,,,,,,,,,,,,,0,3,3,10,1,,,,,,,,,,,,,,,,,,,,,,,,,,,,,,,,
,,,,,,,,,,,,592dc86c61bcd8000107c131,001,3,2025-04-15_09h41.41.470,avatar_quest_3AFC_legacy,2022.1.3,Win32,169.4915254,592dc86c61bcd8000107c131,67fe6e666cecbc9329ddf6d6,67fe6ee6b9350a8b57fc0f6b,,,,,,,,,,,,,,,,,,,,,,With Brainslug Difficult 2 No Money,12,images/assets/snowy_original.jpg,learning,20,images/assets/success.jpg,images/assets/gameover.jpg,,,,,,,,,,,,,0,4,4,3,1,,,,,,,,,,,,,,,,,,,,,,,,,,,,,,,,
,,,,,,,,,,,,592dc86c61bcd8000107c131,001,3,2025-04-15_09h41.41.470,avatar_quest_3AFC_legacy,2022.1.3,Win32,169.4915254,592dc86c61bcd8000107c131,67fe6e666cecbc9329ddf6d6,67fe6ee6b9350a8b57fc0f6b,,,,,,,,,,,,,,,,,,,,,,No Brainslug Difficult 1 No Money,6,images/assets/snowy_original.jpg,learning,20,images/assets/success.jpg,images/assets/gameover.jpg,,,,,,,,,,,,,0,5,5,6,1,,,,,,,,,,,,,,,,,,,,,,,,,,,,,,,,
,,,,,,,,,,,,592dc86c61bcd8000107c131,001,3,2025-04-15_09h41.41.470,avatar_quest_3AFC_legacy,2022.1.3,Win32,169.4915254,592dc86c61bcd8000107c131,67fe6e666cecbc9329ddf6d6,67fe6ee6b9350a8b57fc0f6b,,,,,,,,,,,,,,,,,,,,,,No Brainslug Difficult 2 No Money,12,images/assets/snowy_original.jpg,learning,20,images/assets/success.jpg,images/assets/gameover.jpg,,,,,,,,,,,,,0,6,6,8,1,,,,,,,,,,,,,,,,,,,,,,,,,,,,,,,,
,,,,,,,,,,,,592dc86c61bcd8000107c131,001,3,2025-04-15_09h41.41.470,avatar_quest_3AFC_legacy,2022.1.3,Win32,169.4915254,592dc86c61bcd8000107c131,67fe6e666cecbc9329ddf6d6,67fe6ee6b9350a8b57fc0f6b,"[""left"",""right"",""right"",""right"",""left"",""left"",""right"",""right"",""right"",""right"",""left"",""left"",""right"",""right"",""right"",""right"",""left"",""right"",""right"",""right"",""right"",""right"",""right"",""right"",""right"",""right"",""left"",""left"",""left"",""left"",""left"",""right"",""left"",""left"",""left"",""left"",""left"",""right"",""right"",""right"",""right"",""right"",""left""]","[0.48989999999105294,1.502599999994061,1.7043999999910397,1.8432000000029802,2.222899999991057,2.367500000000007,2.4822999999969966,2.6614999999999895,2.8078999999910366,2.9480999999940423,3.1973999999910347,3.3077999999970302,3.455899999991061,3.6317999999970425,3.7487999999970043,3.8904999999999745,4.001399999991065,4.170200000002978,4.4465000000000146,4.596499999999992,4.709299999997029,4.814700000002972,5.08489999999108,5.260700000002998,5.406399999991038,5.588200000002985,5.697599999994054,5.881099999994035,5.987200000002986,6.0989999999999895,6.245399999991037,6.356700000003002,6.5745000000000005,6.719200000002957,6.86009999999402,6.974599999994041,7.0919999999999845,7.232799999997042,7.374700000002974,7.486799999997004,7.635899999991068,7.742500000000007,7.888700000002984]",,calibration,With Brainslug Difficult 2 With Money,8,8.99495,8.1259,20,6,0,TRUE,na,na,na,na,,,,,,,,,,,,,,,,,,,,,,,,,,,,,,,,,,0,0,0,0,1,,,,,,,,,,,,,,,,,,,,,,,
,,,,,,,,,,,,592dc86c61bcd8000107c131,001,3,2025-04-15_09h41.41.470,avatar_quest_3AFC_legacy,2022.1.3,Win32,169.4915254,592dc86c61bcd8000107c131,67fe6e666cecbc9329ddf6d6,67fe6ee6b9350a8b57fc0f6b,,,,,,,,,,,,,,,,,,,,,,With Brainslug Difficult 2 With Money,12,images/assets/snowy_money.jpg,learning,20,images/assets/success_money.jpg,images/assets/gameover.jpg,,,,,,,,,,,,,0,7,7,2,1,,,,,,,,,,,,,,,,,,,,,,,,,,,,,,,,
,,,,,,,,,,,,592dc86c61bcd8000107c131,001,3,2025-04-15_09h41.41.470,avatar_quest_3AFC_legacy,2022.1.3,Win32,169.4915254,592dc86c61bcd8000107c131,67fe6e666cecbc9329ddf6d6,67fe6ee6b9350a8b57fc0f6b,,,,,,,,,,,,,,,,,,,,,,No Brainslug No Barriers With Money,0,images/assets/snowy_money.jpg,learning,10,images/assets/success_money.jpg,images/assets/gameover.jpg,,,,,,,,,,,,,0,8,8,9,1,,,,,,,,,,,,,,,,,,,,,,,,,,,,,,,,
,,,,,,,,,,,,592dc86c61bcd8000107c131,001,3,2025-04-15_09h41.41.470,avatar_quest_3AFC_legacy,2022.1.3,Win32,169.4915254,592dc86c61bcd8000107c131,67fe6e666cecbc9329ddf6d6,67fe6ee6b9350a8b57fc0f6b,,,,,,,,,,,,,,,,,,,,,,No Brainslug Difficult 2 With Money,12,images/assets/snowy_money.jpg,learning,20,images/assets/success_money.jpg,images/assets/gameover.jpg,,,,,,,,,,,,,0,9,9,7,1,,,,,,,,,,,,,,,,,,,,,,,,,,,,,,,,
,,,,,,,,,,,,592dc86c61bcd8000107c131,001,3,2025-04-15_09h41.41.470,avatar_quest_3AFC_legacy,2022.1.3,Win32,169.4915254,592dc86c61bcd8000107c131,67fe6e666cecbc9329ddf6d6,67fe6ee6b9350a8b57fc0f6b,,,,,,,,,,,,,,,,,,,,,,With Brainslug No Barriers No Money,0,images/assets/snowy_original.jpg,learning,10,images/assets/success.jpg,images/assets/gameover.jpg,,,,,,,,,,,,,0,10,10,5,1,,,,,,,,,,,,,,,,,,,,,,,,,,,,,,,,
,,,,,,,,,,,,592dc86c61bcd8000107c131,001,3,2025-04-15_09h41.41.470,avatar_quest_3AFC_legacy,2022.1.3,Win32,169.4915254,592dc86c61bcd8000107c131,67fe6e666cecbc9329ddf6d6,67fe6ee6b9350a8b57fc0f6b,,,,,,,,,,,,,,,,,,,,,,,,,,,,,,,,,,,,,,,,,,,,,,,,,,,,,,,4,0,4,0,1,,,,,,,,,,,,,,,,,,
,,,,,,,,,,,,592dc86c61bcd8000107c131,001,3,2025-04-15_09h41.41.470,avatar_quest_3AFC_legacy,2022.1.3,Win32,169.4915254,592dc86c61bcd8000107c131,67fe6e666cecbc9329ddf6d6,67fe6ee6b9350a8b57fc0f6b,,,,,,,,,,,,,,,,,,,,,,No Brainslug Difficult 2 No Money,12,images/assets/snowy_original.jpg,learning,20,images/assets/success.jpg,images/assets/gameover.jpg,,,,,,,,With Brainslug Difficult 2 With Money,With Brainslug Difficult 1 No Money,right,2.1297,"[""With Brainslug Difficult 1 No Money"",""With Brainslug Difficult 2 No Money""]",0,0,0,8,1,,,,,,,,,,,,,,,,,,,,,,,,,,,,,,,,
,,,,,,,,,,,,592dc86c61bcd8000107c131,001,3,2025-04-15_09h41.41.470,avatar_quest_3AFC_legacy,2022.1.3,Win32,169.4915254,592dc86c61bcd8000107c131,67fe6e666cecbc9329ddf6d6,67fe6ee6b9350a8b57fc0f6b,,,,,,,,,,,,,,,,,,,,,,With Brainslug Difficult 1 With Money,6,images/assets/snowy_money.jpg,learning,20,images/assets/success_money.jpg,images/assets/gameover.jpg,,,,,,,,,,,,,0,1,1,0,1,,,,,,,,,,,,,,,,,,,,,,,,,,,,,,,,
,,,,,,,,,,,,592dc86c61bcd8000107c131,001,3,2025-04-15_09h41.41.470,avatar_quest_3AFC_legacy,2022.1.3,Win32,169.4915254,592dc86c61bcd8000107c131,67fe6e666cecbc9329ddf6d6,67fe6ee6b9350a8b57fc0f6b,"[""left"",""left"",""right"",""left"",""right"",""right"",""right"",""right"",""right"",""right"",""right"",""right"",""right"",""right"",""left"",""left"",""left"",""right"",""right"",""right"",""left"",""left"",""left"",""left"",""left"",""right"",""right"",""right"",""right"",""right"",""left"",""left"",""left"",""left"",""right"",""right"",""right"",""right"",""right"",""right"",""left"",""right"",""left"",""left"",""left"",""right"",""right"",""right"",""right"",""right"",""right"",""right"",""right"",""right"",""right"",""right"",""right"",""right""]","[0.27229999999701704,0.44689999999104657,0.6982999999970048,0.9757999999970366,1.2496999999880813,1.432199999988086,1.5600000000000023,1.7735000000000127,1.9156999999880782,2.098699999988071,2.2441999999880977,2.353199999988078,2.5053999999910843,2.6116999999881045,2.6920999999940136,2.826999999999998,2.9368999999910557,3.0171999999880654,3.160899999991045,3.270099999994045,3.4498999999910325,3.593099999994024,3.703299999997,3.819899999991037,3.927399999991053,4.078799999997045,4.1911999999881004,4.3323999999910825,4.444199999988086,4.553599999994049,4.637599999994052,4.782699999988097,4.924899999991055,5.0346999999880495,5.176399999991077,5.283899999991036,5.512099999994064,5.657899999991059,5.773500000000013,5.9175999999940245,5.992299999997044,6.108899999991081,6.2479999999999905,6.396099999994021,6.533199999988085,6.575899999991066,6.884500000000003,7.000499999999988,7.144599999994057,7.255799999997009,7.366399999991074,7.47769999998809,7.596399999991036,7.706099999994024,7.818099999994047,7.893399999991061,8.036399999991033,8.182999999999993]",,calibration,With Brainslug Difficult 2 With Money,9,8.99495,8.3497,24,9,0,TRUE,na,na,na,na,,,,,,,,,,,,,,,,,,,,,,,,,,,,,,,,,,0,0,0,0,1,,,,,,,,,,,,,,,,,,,,,,,
,,,,,,,,,,,,592dc86c61bcd8000107c131,001,3,2025-04-15_09h41.41.470,avatar_quest_3AFC_legacy,2022.1.3,Win32,169.4915254,592dc86c61bcd8000107c131,67fe6e666cecbc9329ddf6d6,67fe6ee6b9350a8b57fc0f6b,,,,,,,,,,,,,,,,,,,,,,With Brainslug Difficult 2 With Money,12,images/assets/snowy_money.jpg,learning,20,images/assets/success_money.jpg,images/assets/gameover.jpg,,,,,,,,,,,,,0,2,2,2,1,,,,,,,,,,,,,,,,,,,,,,,,,,,,,,,,
,,,,,,,,,,,,592dc86c61bcd8000107c131,001,3,2025-04-15_09h41.41.470,avatar_quest_3AFC_legacy,2022.1.3,Win32,169.4915254,592dc86c61bcd8000107c131,67fe6e666cecbc9329ddf6d6,67fe6ee6b9350a8b57fc0f6b,,,,,,,,,,,,,,,,,,,,,,With Brainslug No Barriers No Money,0,images/assets/snowy_original.jpg,learning,10,images/assets/success.jpg,images/assets/gameover.jpg,,,,,,,,,,,,,0,3,3,5,1,,,,,,,,,,,,,,,,,,,,,,,,,,,,,,,,
,,,,,,,,,,,,592dc86c61bcd8000107c131,001,3,2025-04-15_09h41.41.470,avatar_quest_3AFC_legacy,2022.1.3,Win32,169.4915254,592dc86c61bcd8000107c131,67fe6e666cecbc9329ddf6d6,67fe6ee6b9350a8b57fc0f6b,,,,,,,,,,,,,,,,,,,,,,With Brainslug No Barriers With Money,0,images/assets/snowy_money.jpg,learning,10,images/assets/success_money.jpg,images/assets/gameover.jpg,,,,,,,,,,,,,0,4,4,4,1,,,,,,,,,,,,,,,,,,,,,,,,,,,,,,,,
,,,,,,,,,,,,592dc86c61bcd8000107c131,001,3,2025-04-15_09h41.41.470,avatar_quest_3AFC_legacy,2022.1.3,Win32,169.4915254,592dc86c61bcd8000107c131,67fe6e666cecbc9329ddf6d6,67fe6ee6b9350a8b57fc0f6b,,,,,,,,,,,,,,,,,,,,,,No Brainslug No Barriers No Money,0,images/assets/snowy_original.jpg,learning,10,images/assets/success.jpg,images/assets/gameover.jpg,,,,,,,,,,,,,0,5,5,10,1,,,,,,,,,,,,,,,,,,,,,,,,,,,,,,,,
,,,,,,,,,,,,592dc86c61bcd8000107c131,001,3,2025-04-15_09h41.41.470,avatar_quest_3AFC_legacy,2022.1.3,Win32,169.4915254,592dc86c61bcd8000107c131,67fe6e666cecbc9329ddf6d6,67fe6ee6b9350a8b57fc0f6b,,,,,,,,,,,,,,,,,,,,,,With Brainslug Difficult 2 No Money,12,images/assets/snowy_original.jpg,learning,20,images/assets/success.jpg,images/assets/gameover.jpg,,,,,,,,,,,,,0,6,6,3,1,,,,,,,,,,,,,,,,,,,,,,,,,,,,,,,,
,,,,,,,,,,,,592dc86c61bcd8000107c131,001,3,2025-04-15_09h41.41.470,avatar_quest_3AFC_legacy,2022.1.3,Win32,169.4915254,592dc86c61bcd8000107c131,67fe6e666cecbc9329ddf6d6,67fe6ee6b9350a8b57fc0f6b,,,,,,,,,,,,,,,,,,,,,,No Brainslug Difficult 1 No Money,6,images/assets/snowy_original.jpg,learning,20,images/assets/success.jpg,images/assets/gameover.jpg,,,,,,,,,,,,,0,7,7,6,1,,,,,,,,,,,,,,,,,,,,,,,,,,,,,,,,
,,,,,,,,,,,,592dc86c61bcd8000107c131,001,3,2025-04-15_09h41.41.470,avatar_quest_3AFC_legacy,2022.1.3,Win32,169.4915254,592dc86c61bcd8000107c131,67fe6e666cecbc9329ddf6d6,67fe6ee6b9350a8b57fc0f6b,,,,,,,,,,,,,,,,,,,,,,No Brainslug Difficult 2 With Money,12,images/assets/snowy_money.jpg,learning,20,images/assets/success_money.jpg,images/assets/gameover.jpg,,,,,,,,,,,,,0,8,8,7,1,,,,,,,,,,,,,,,,,,,,,,,,,,,,,,,,
,,,,,,,,,,,,592dc86c61bcd8000107c131,001,3,2025-04-15_09h41.41.470,avatar_quest_3AFC_legacy,2022.1.3,Win32,169.4915254,592dc86c61bcd8000107c131,67fe6e666cecbc9329ddf6d6,67fe6ee6b9350a8b57fc0f6b,,,,,,,,,,,,,,,,,,,,,,No Brainslug No Barriers With Money,0,images/assets/snowy_money.jpg,learning,10,images/assets/success_money.jpg,images/assets/gameover.jpg,,,,,,,,,,,,,0,9,9,9,1,,,,,,,,,,,,,,,,,,,,,,,,,,,,,,,,
,,,,,,,,,,,,592dc86c61bcd8000107c131,001,3,2025-04-15_09h41.41.470,avatar_quest_3AFC_legacy,2022.1.3,Win32,169.4915254,592dc86c61bcd8000107c131,67fe6e666cecbc9329ddf6d6,67fe6ee6b9350a8b57fc0f6b,,,,,,,,,,,,,,,,,,,,,,With Brainslug Difficult 1 No Money,6,images/assets/snowy_original.jpg,learning,20,images/assets/success.jpg,images/assets/gameover.jpg,,,,,,,,,,,,,0,10,10,1,1,,,,,,,,,,,,,,,,,,,,,,,,,,,,,,,,
,,,,,,,,,,,,592dc86c61bcd8000107c131,001,3,2025-04-15_09h41.41.470,avatar_quest_3AFC_legacy,2022.1.3,Win32,169.4915254,592dc86c61bcd8000107c131,67fe6e666cecbc9329ddf6d6,67fe6ee6b9350a8b57fc0f6b,,,,,,,,,,,,,,,,,,,,,,,,,,,,,,,,,,,,,,,,,,,,,,,,,,,,,,,5,0,5,0,1,,,,,,,,,,,,,,,,,,
,,,,,,,,,,,,592dc86c61bcd8000107c131,001,3,2025-04-15_09h41.41.470,avatar_quest_3AFC_legacy,2022.1.3,Win32,169.4915254,592dc86c61bcd8000107c131,67fe6e666cecbc9329ddf6d6,67fe6ee6b9350a8b57fc0f6b,,,,,,,,,,,,,,,,,,,,,,No Brainslug Difficult 2 No Money,12,images/assets/snowy_original.jpg,learning,20,images/assets/success.jpg,images/assets/gameover.jpg,,,,,,,,With Brainslug Difficult 2 With Money,With Brainslug Difficult 1 No Money,right,1.7387,"[""With Brainslug Difficult 1 No Money"",""With Brainslug Difficult 2 No Money""]",0,0,0,8,1,,,,,,,,,,,,,,,,,,,,,,,,,,,,,,,,
,,,,,,,,,,,,592dc86c61bcd8000107c131,001,3,2025-04-15_09h41.41.470,avatar_quest_3AFC_legacy,2022.1.3,Win32,169.4915254,592dc86c61bcd8000107c131,67fe6e666cecbc9329ddf6d6,67fe6ee6b9350a8b57fc0f6b,,,,,,,,,,,,,,,,,,,,,,No Brainslug Difficult 2 With Money,12,images/assets/snowy_money.jpg,learning,20,images/assets/success_money.jpg,images/assets/gameover.jpg,,,,,,,,,,,,,0,1,1,7,1,,,,,,,,,,,,,,,,,,,,,,,,,,,,,,,,
,,,,,,,,,,,,592dc86c61bcd8000107c131,001,3,2025-04-15_09h41.41.470,avatar_quest_3AFC_legacy,2022.1.3,Win32,169.4915254,592dc86c61bcd8000107c131,67fe6e666cecbc9329ddf6d6,67fe6ee6b9350a8b57fc0f6b,,,,,,,,,,,,,,,,,,,,,,With Brainslug No Barriers No Money,0,images/assets/snowy_original.jpg,learning,10,images/assets/success.jpg,images/assets/gameover.jpg,,,,,,,,,,,,,0,2,2,5,1,,,,,,,,,,,,,,,,,,,,,,,,,,,,,,,,
,,,,,,,,,,,,592dc86c61bcd8000107c131,001,3,2025-04-15_09h41.41.470,avatar_quest_3AFC_legacy,2022.1.3,Win32,169.4915254,592dc86c61bcd8000107c131,67fe6e666cecbc9329ddf6d6,67fe6ee6b9350a8b57fc0f6b,,,,,,,,,,,,,,,,,,,,,,With Brainslug Difficult 1 No Money,6,images/assets/snowy_original.jpg,learning,20,images/assets/success.jpg,images/assets/gameover.jpg,,,,,,,,,,,,,0,3,3,1,1,,,,,,,,,,,,,,,,,,,,,,,,,,,,,,,,
,,,,,,,,,,,,592dc86c61bcd8000107c131,001,3,2025-04-15_09h41.41.470,avatar_quest_3AFC_legacy,2022.1.3,Win32,169.4915254,592dc86c61bcd8000107c131,67fe6e666cecbc9329ddf6d6,67fe6ee6b9350a8b57fc0f6b,,,,,,,,,,,,,,,,,,,,,,With Brainslug Difficult 2 No Money,12,images/assets/snowy_original.jpg,learning,20,images/assets/success.jpg,images/assets/gameover.jpg,,,,,,,,,,,,,0,4,4,3,1,,,,,,,,,,,,,,,,,,,,,,,,,,,,,,,,
,,,,,,,,,,,,592dc86c61bcd8000107c131,001,3,2025-04-15_09h41.41.470,avatar_quest_3AFC_legacy,2022.1.3,Win32,169.4915254,592dc86c61bcd8000107c131,67fe6e666cecbc9329ddf6d6,67fe6ee6b9350a8b57fc0f6b,"[""left"",""right"",""right"",""left"",""left"",""left"",""left"",""left"",""right"",""right"",""right"",""left"",""left"",""left"",""left"",""right"",""right"",""right"",""right"",""left"",""left"",""left"",""left"",""left"",""right"",""right"",""right"",""left"",""left"",""left"",""right"",""right"",""right"",""right"",""right"",""right""]","[0.4706000000089716,1.4483000000119546,1.6308000000119591,1.8079000000059864,1.9090000000000487,2.0570000000000164,2.1883000000119637,2.3015000000000327,2.47950000000003,2.6226000000089584,2.733900000005974,2.7809000000059996,2.929300000011949,3.0401000000089766,3.2192000000030134,3.3937000000029798,3.508900000006008,3.6239000000059605,3.734800000011944,3.863600000008944,4.009200000002977,4.122500000000002,4.268500000000017,4.414500000000032,4.527300000011962,4.674100000008991,4.815600000008942,4.927700000003028,5.060200000003022,5.206700000003025,5.320300000011969,5.466900000005978,5.5785000000000196,5.722900000006007,5.833400000006009,5.978300000011927]",,calibration,With Brainslug Difficult 2 With Money,10,8.99495,6.3466,21,8,0,TRUE,na,na,na,na,,,,,,,,,,,,,,,,,,,,,,,,,,,,,,,,,,0,0,0,0,1,,,,,,,,,,,,,,,,,,,,,,,
,,,,,,,,,,,,592dc86c61bcd8000107c131,001,3,2025-04-15_09h41.41.470,avatar_quest_3AFC_legacy,2022.1.3,Win32,169.4915254,592dc86c61bcd8000107c131,67fe6e666cecbc9329ddf6d6,67fe6ee6b9350a8b57fc0f6b,,,,,,,,,,,,,,,,,,,,,,With Brainslug Difficult 2 With Money,12,images/assets/snowy_money.jpg,learning,20,images/assets/success_money.jpg,images/assets/gameover.jpg,,,,,,,,,,,,,0,5,5,2,1,,,,,,,,,,,,,,,,,,,,,,,,,,,,,,,,
,,,,,,,,,,,,592dc86c61bcd8000107c131,001,3,2025-04-15_09h41.41.470,avatar_quest_3AFC_legacy,2022.1.3,Win32,169.4915254,592dc86c61bcd8000107c131,67fe6e666cecbc9329ddf6d6,67fe6ee6b9350a8b57fc0f6b,,,,,,,,,,,,,,,,,,,,,,No Brainslug No Barriers No Money,0,images/assets/snowy_original.jpg,learning,10,images/assets/success.jpg,images/assets/gameover.jpg,,,,,,,,,,,,,0,6,6,10,1,,,,,,,,,,,,,,,,,,,,,,,,,,,,,,,,
,,,,,,,,,,,,592dc86c61bcd8000107c131,001,3,2025-04-15_09h41.41.470,avatar_quest_3AFC_legacy,2022.1.3,Win32,169.4915254,592dc86c61bcd8000107c131,67fe6e666cecbc9329ddf6d6,67fe6ee6b9350a8b57fc0f6b,,,,,,,,,,,,,,,,,,,,,,No Brainslug No Barriers With Money,0,images/assets/snowy_money.jpg,learning,10,images/assets/success_money.jpg,images/assets/gameover.jpg,,,,,,,,,,,,,0,7,7,9,1,,,,,,,,,,,,,,,,,,,,,,,,,,,,,,,,
,,,,,,,,,,,,592dc86c61bcd8000107c131,001,3,2025-04-15_09h41.41.470,avatar_quest_3AFC_legacy,2022.1.3,Win32,169.4915254,592dc86c61bcd8000107c131,67fe6e666cecbc9329ddf6d6,67fe6ee6b9350a8b57fc0f6b,,,,,,,,,,,,,,,,,,,,,,With Brainslug No Barriers With Money,0,images/assets/snowy_money.jpg,learning,10,images/assets/success_money.jpg,images/assets/gameover.jpg,,,,,,,,,,,,,0,8,8,4,1,,,,,,,,,,,,,,,,,,,,,,,,,,,,,,,,
,,,,,,,,,,,,592dc86c61bcd8000107c131,001,3,2025-04-15_09h41.41.470,avatar_quest_3AFC_legacy,2022.1.3,Win32,169.4915254,592dc86c61bcd8000107c131,67fe6e666cecbc9329ddf6d6,67fe6ee6b9350a8b57fc0f6b,,,,,,,,,,,,,,,,,,,,,,With Brainslug Difficult 1 With Money,6,images/assets/snowy_money.jpg,learning,20,images/assets/success_money.jpg,images/assets/gameover.jpg,,,,,,,,,,,,,0,9,9,0,1,,,,,,,,,,,,,,,,,,,,,,,,,,,,,,,,
,,,,,,,,,,,,592dc86c61bcd8000107c131,001,3,2025-04-15_09h41.41.470,avatar_quest_3AFC_legacy,2022.1.3,Win32,169.4915254,592dc86c61bcd8000107c131,67fe6e666cecbc9329ddf6d6,67fe6ee6b9350a8b57fc0f6b,,,,,,,,,,,,,,,,,,,,,,No Brainslug Difficult 1 No Money,6,images/assets/snowy_original.jpg,learning,20,images/assets/success.jpg,images/assets/gameover.jpg,,,,,,,,,,,,,0,10,10,6,1,,,,,,,,,,,,,,,,,,,,,,,,,,,,,,,,
,,,,,,,,,,,,592dc86c61bcd8000107c131,001,3,2025-04-15_09h41.41.470,avatar_quest_3AFC_legacy,2022.1.3,Win32,169.4915254,592dc86c61bcd8000107c131,67fe6e666cecbc9329ddf6d6,67fe6ee6b9350a8b57fc0f6b,,,,,,,,,,,,,,,,,,,,,,,,,,,,,,,,,,,,,,,,,,,,,,,,,,,,,,,6,0,6,0,1,,,,,,,,,,,,,,,,,,
,,,,,,,,,,,,592dc86c61bcd8000107c131,001,3,2025-04-15_09h41.41.470,avatar_quest_3AFC_legacy,2022.1.3,Win32,169.4915254,592dc86c61bcd8000107c131,67fe6e666cecbc9329ddf6d6,67fe6ee6b9350a8b57fc0f6b,,,,,,,,,,,,,,,,,,,,,,No Brainslug No Barriers With Money,0,images/assets/snowy_money.jpg,learning,10,images/assets/success_money.jpg,images/assets/gameover.jpg,,,,,,,,With Brainslug Difficult 2 With Money,With Brainslug Difficult 1 No Money,right,1.4848,"[""With Brainslug Difficult 1 No Money"",""With Brainslug Difficult 2 No Money""]",0,0,0,9,1,,,,,,,,,,,,,,,,,,,,,,,,,,,,,,,,
,,,,,,,,,,,,592dc86c61bcd8000107c131,001,3,2025-04-15_09h41.41.470,avatar_quest_3AFC_legacy,2022.1.3,Win32,169.4915254,592dc86c61bcd8000107c131,67fe6e666cecbc9329ddf6d6,67fe6ee6b9350a8b57fc0f6b,,,,,,,,,,,,,,,,,,,,,,No Brainslug Difficult 1 No Money,6,images/assets/snowy_original.jpg,learning,20,images/assets/success.jpg,images/assets/gameover.jpg,,,,,,,,,,,,,0,1,1,6,1,,,,,,,,,,,,,,,,,,,,,,,,,,,,,,,,
,,,,,,,,,,,,592dc86c61bcd8000107c131,001,3,2025-04-15_09h41.41.470,avatar_quest_3AFC_legacy,2022.1.3,Win32,169.4915254,592dc86c61bcd8000107c131,67fe6e666cecbc9329ddf6d6,67fe6ee6b9350a8b57fc0f6b,,,,,,,,,,,,,,,,,,,,,,With Brainslug No Barriers With Money,0,images/assets/snowy_money.jpg,learning,10,images/assets/success_money.jpg,images/assets/gameover.jpg,,,,,,,,,,,,,0,2,2,4,1,,,,,,,,,,,,,,,,,,,,,,,,,,,,,,,,
,,,,,,,,,,,,592dc86c61bcd8000107c131,001,3,2025-04-15_09h41.41.470,avatar_quest_3AFC_legacy,2022.1.3,Win32,169.4915254,592dc86c61bcd8000107c131,67fe6e666cecbc9329ddf6d6,67fe6ee6b9350a8b57fc0f6b,,,,,,,,,,,,,,,,,,,,,,No Brainslug Difficult 2 No Money,12,images/assets/snowy_original.jpg,learning,20,images/assets/success.jpg,images/assets/gameover.jpg,,,,,,,,,,,,,0,3,3,8,1,,,,,,,,,,,,,,,,,,,,,,,,,,,,,,,,
,,,,,,,,,,,,592dc86c61bcd8000107c131,001,3,2025-04-15_09h41.41.470,avatar_quest_3AFC_legacy,2022.1.3,Win32,169.4915254,592dc86c61bcd8000107c131,67fe6e666cecbc9329ddf6d6,67fe6ee6b9350a8b57fc0f6b,,,,,,,,,,,,,,,,,,,,,,With Brainslug Difficult 1 With Money,6,images/assets/snowy_money.jpg,learning,20,images/assets/success_money.jpg,images/assets/gameover.jpg,,,,,,,,,,,,,0,4,4,0,1,,,,,,,,,,,,,,,,,,,,,,,,,,,,,,,,
,,,,,,,,,,,,592dc86c61bcd8000107c131,001,3,2025-04-15_09h41.41.470,avatar_quest_3AFC_legacy,2022.1.3,Win32,169.4915254,592dc86c61bcd8000107c131,67fe6e666cecbc9329ddf6d6,67fe6ee6b9350a8b57fc0f6b,,,,,,,,,,,,,,,,,,,,,,With Brainslug Difficult 1 No Money,6,images/assets/snowy_original.jpg,learning,20,images/assets/success.jpg,images/assets/gameover.jpg,,,,,,,,,,,,,0,5,5,1,1,,,,,,,,,,,,,,,,,,,,,,,,,,,,,,,,
,,,,,,,,,,,,592dc86c61bcd8000107c131,001,3,2025-04-15_09h41.41.470,avatar_quest_3AFC_legacy,2022.1.3,Win32,169.4915254,592dc86c61bcd8000107c131,67fe6e666cecbc9329ddf6d6,67fe6ee6b9350a8b57fc0f6b,,,,,,,,,,,,,,,,,,,,,,With Brainslug Difficult 2 No Money,12,images/assets/snowy_original.jpg,learning,20,images/assets/success.jpg,images/assets/gameover.jpg,,,,,,,,,,,,,0,6,6,3,1,,,,,,,,,,,,,,,,,,,,,,,,,,,,,,,,
,,,,,,,,,,,,592dc86c61bcd8000107c131,001,3,2025-04-15_09h41.41.470,avatar_quest_3AFC_legacy,2022.1.3,Win32,169.4915254,592dc86c61bcd8000107c131,67fe6e666cecbc9329ddf6d6,67fe6ee6b9350a8b57fc0f6b,,,,,,,,,,,,,,,,,,,,,,No Brainslug Difficult 2 With Money,12,images/assets/snowy_money.jpg,learning,20,images/assets/success_money.jpg,images/assets/gameover.jpg,,,,,,,,,,,,,0,7,7,7,1,,,,,,,,,,,,,,,,,,,,,,,,,,,,,,,,
,,,,,,,,,,,,592dc86c61bcd8000107c131,001,3,2025-04-15_09h41.41.470,avatar_quest_3AFC_legacy,2022.1.3,Win32,169.4915254,592dc86c61bcd8000107c131,67fe6e666cecbc9329ddf6d6,67fe6ee6b9350a8b57fc0f6b,,,,,,,,,,,,,,,,,,,,,,No Brainslug No Barriers No Money,0,images/assets/snowy_original.jpg,learning,10,images/assets/success.jpg,images/assets/gameover.jpg,,,,,,,,,,,,,0,8,8,10,1,,,,,,,,,,,,,,,,,,,,,,,,,,,,,,,,
,,,,,,,,,,,,592dc86c61bcd8000107c131,001,3,2025-04-15_09h41.41.470,avatar_quest_3AFC_legacy,2022.1.3,Win32,169.4915254,592dc86c61bcd8000107c131,67fe6e666cecbc9329ddf6d6,67fe6ee6b9350a8b57fc0f6b,"[""left"",""left"",""left"",""left"",""left"",""right"",""right"",""right"",""right"",""left"",""left"",""left"",""right"",""right"",""left"",""left"",""left"",""right"",""left"",""right"",""right"",""right"",""right"",""right"",""right"",""left"",""left"",""left"",""right"",""right"",""right"",""right"",""right"",""right"",""right"",""left"",""left"",""left"",""right"",""right"",""right"",""right"",""left"",""left"",""right"",""right"",""right"",""right""]","[0.32349999999996726,0.4647999999970125,0.6409000000059564,0.9574999999999818,1.1339000000059514,1.2824000000059073,1.4267000000029384,1.5554000000059318,1.7032999999970002,1.814200000002927,1.9582999999969957,2.067299999996976,2.1821000000089157,2.3104999999999905,2.3974000000059164,2.536799999997015,2.648100000008924,2.8559000000059314,2.9701000000089266,3.0156000000089307,3.1611000000089007,3.2702999999970075,3.4152999999969893,3.5269000000059236,3.6746000000089225,3.7659000000059564,3.898600000008912,4.040499999999952,4.154100000008896,4.263499999999965,4.380700000002946,4.526600000008898,4.632100000008904,4.750799999997014,4.889900000005923,4.911700000002952,5.084799999997017,5.236499999999978,5.320700000002944,5.465999999999951,5.607400000005953,5.706799999996974,5.8467999999970175,6.125700000002951,6.2716000000089025,6.386600000008912,6.527999999999963,6.639700000002961]",,calibration,With Brainslug Difficult 2 With Money,11,8.99495,7.1103,20,7,0,TRUE,na,na,na,na,,,,,,,,,,,,,,,,,,,,,,,,,,,,,,,,,,0,0,0,0,1,,,,,,,,,,,,,,,,,,,,,,,
,,,,,,,,,,,,592dc86c61bcd8000107c131,001,3,2025-04-15_09h41.41.470,avatar_quest_3AFC_legacy,2022.1.3,Win32,169.4915254,592dc86c61bcd8000107c131,67fe6e666cecbc9329ddf6d6,67fe6ee6b9350a8b57fc0f6b,,,,,,,,,,,,,,,,,,,,,,With Brainslug Difficult 2 With Money,12,images/assets/snowy_money.jpg,learning,20,images/assets/success_money.jpg,images/assets/gameover.jpg,,,,,,,,,,,,,0,9,9,2,1,,,,,,,,,,,,,,,,,,,,,,,,,,,,,,,,
,,,,,,,,,,,,592dc86c61bcd8000107c131,001,3,2025-04-15_09h41.41.470,avatar_quest_3AFC_legacy,2022.1.3,Win32,169.4915254,592dc86c61bcd8000107c131,67fe6e666cecbc9329ddf6d6,67fe6ee6b9350a8b57fc0f6b,,,,,,,,,,,,,,,,,,,,,,With Brainslug No Barriers No Money,0,images/assets/snowy_original.jpg,learning,10,images/assets/success.jpg,images/assets/gameover.jpg,,,,,,,,,,,,,0,10,10,5,1,,,,,,,,,,,,,,,,,,,,,,,,,,,,,,,,
,,,,,,,,,,,,592dc86c61bcd8000107c131,001,3,2025-04-15_09h41.41.470,avatar_quest_3AFC_legacy,2022.1.3,Win32,169.4915254,592dc86c61bcd8000107c131,67fe6e666cecbc9329ddf6d6,67fe6ee6b9350a8b57fc0f6b,,,,,,,,,,,,,,,,,,,,,,,,,,,,,,,,,,,,,,,,,,,,,,,,,,,,,,,7,0,7,0,1,,,,,,,,,,,,,,,,,,
,,,,,,,,,,,,592dc86c61bcd8000107c131,001,3,2025-04-15_09h41.41.470,avatar_quest_3AFC_legacy,2022.1.3,Win32,169.4915254,592dc86c61bcd8000107c131,67fe6e666cecbc9329ddf6d6,67fe6ee6b9350a8b57fc0f6b,,,,,,,,,,,,,,,,,,,,,,No Brainslug No Barriers With Money,0,images/assets/snowy_money.jpg,learning,10,images/assets/success_money.jpg,images/assets/gameover.jpg,,,,,,,,With Brainslug Difficult 2 With Money,With Brainslug Difficult 1 No Money,right,1.0923,"[""With Brainslug Difficult 1 No Money"",""With Brainslug Difficult 2 No Money""]",0,0,0,9,1,,,,,,,,,,,,,,,,,,,,,,,,,,,,,,,,
,,,,,,,,,,,,592dc86c61bcd8000107c131,001,3,2025-04-15_09h41.41.470,avatar_quest_3AFC_legacy,2022.1.3,Win32,169.4915254,592dc86c61bcd8000107c131,67fe6e666cecbc9329ddf6d6,67fe6ee6b9350a8b57fc0f6b,,,,,,,,,,,,,,,,,,,,,,With Brainslug Difficult 2 No Money,12,images/assets/snowy_original.jpg,learning,20,images/assets/success.jpg,images/assets/gameover.jpg,,,,,,,,,,,,,0,1,1,3,1,,,,,,,,,,,,,,,,,,,,,,,,,,,,,,,,
,,,,,,,,,,,,592dc86c61bcd8000107c131,001,3,2025-04-15_09h41.41.470,avatar_quest_3AFC_legacy,2022.1.3,Win32,169.4915254,592dc86c61bcd8000107c131,67fe6e666cecbc9329ddf6d6,67fe6ee6b9350a8b57fc0f6b,,,,,,,,,,,,,,,,,,,,,,With Brainslug Difficult 1 With Money,6,images/assets/snowy_money.jpg,learning,20,images/assets/success_money.jpg,images/assets/gameover.jpg,,,,,,,,,,,,,0,2,2,0,1,,,,,,,,,,,,,,,,,,,,,,,,,,,,,,,,
,,,,,,,,,,,,592dc86c61bcd8000107c131,001,3,2025-04-15_09h41.41.470,avatar_quest_3AFC_legacy,2022.1.3,Win32,169.4915254,592dc86c61bcd8000107c131,67fe6e666cecbc9329ddf6d6,67fe6ee6b9350a8b57fc0f6b,,,,,,,,,,,,,,,,,,,,,,No Brainslug Difficult 1 No Money,6,images/assets/snowy_original.jpg,learning,20,images/assets/success.jpg,images/assets/gameover.jpg,,,,,,,,,,,,,0,3,3,6,1,,,,,,,,,,,,,,,,,,,,,,,,,,,,,,,,
,,,,,,,,,,,,592dc86c61bcd8000107c131,001,3,2025-04-15_09h41.41.470,avatar_quest_3AFC_legacy,2022.1.3,Win32,169.4915254,592dc86c61bcd8000107c131,67fe6e666cecbc9329ddf6d6,67fe6ee6b9350a8b57fc0f6b,,,,,,,,,,,,,,,,,,,,,,No Brainslug Difficult 2 No Money,12,images/assets/snowy_original.jpg,learning,20,images/assets/success.jpg,images/assets/gameover.jpg,,,,,,,,,,,,,0,4,4,8,1,,,,,,,,,,,,,,,,,,,,,,,,,,,,,,,,
,,,,,,,,,,,,592dc86c61bcd8000107c131,001,3,2025-04-15_09h41.41.470,avatar_quest_3AFC_legacy,2022.1.3,Win32,169.4915254,592dc86c61bcd8000107c131,67fe6e666cecbc9329ddf6d6,67fe6ee6b9350a8b57fc0f6b,,,,,,,,,,,,,,,,,,,,,,With Brainslug No Barriers With Money,0,images/assets/snowy_money.jpg,learning,10,images/assets/success_money.jpg,images/assets/gameover.jpg,,,,,,,,,,,,,0,5,5,4,1,,,,,,,,,,,,,,,,,,,,,,,,,,,,,,,,
,,,,,,,,,,,,592dc86c61bcd8000107c131,001,3,2025-04-15_09h41.41.470,avatar_quest_3AFC_legacy,2022.1.3,Win32,169.4915254,592dc86c61bcd8000107c131,67fe6e666cecbc9329ddf6d6,67fe6ee6b9350a8b57fc0f6b,"[""left"",""left"",""left"",""left"",""right"",""right"",""right"",""right"",""left"",""left"",""left"",""right"",""right"",""left"",""left"",""left"",""right"",""left"",""left"",""left"",""left"",""right"",""right"",""right"",""left"",""left"",""left"",""right"",""right"",""left"",""right"",""right"",""right"",""right"",""right"",""left"",""right"",""left"",""left"",""right"",""right"",""right"",""right"",""right""]","[0.22470000000294021,0.807700000002967,1.0522000000029834,1.2177000000029352,1.3974999999999795,1.573900000005949,1.720200000002933,1.8287999999969884,1.8859999999999673,2.057299999996985,2.1639999999999873,2.4442000000029793,2.557200000002979,2.7374999999999545,2.918600000008894,3.058200000002955,3.2707000000029325,3.4176000000089175,3.597400000005962,3.7439999999999714,3.9137999999970248,4.055400000005932,4.183999999999969,4.330600000008928,4.437100000008911,4.567700000002958,4.717400000005966,4.828400000005956,4.939600000008909,5.064799999996978,5.16510000000892,5.343900000005931,5.523799999996982,5.629600000008907,5.774999999999977,5.893299999996998,5.972499999999968,6.045700000002967,6.211999999999989,6.322799999997017,6.469400000005919,6.616499999999974,6.764299999996979,6.904400000005921]",,calibration,With Brainslug Difficult 2 With Money,12,8.99495,7.3507,24,8,0,TRUE,na,na,na,na,,,,,,,,,,,,,,,,,,,,,,,,,,,,,,,,,,0,0,0,0,1,,,,,,,,,,,,,,,,,,,,,,,
,,,,,,,,,,,,592dc86c61bcd8000107c131,001,3,2025-04-15_09h41.41.470,avatar_quest_3AFC_legacy,2022.1.3,Win32,169.4915254,592dc86c61bcd8000107c131,67fe6e666cecbc9329ddf6d6,67fe6ee6b9350a8b57fc0f6b,,,,,,,,,,,,,,,,,,,,,,With Brainslug Difficult 2 With Money,12,images/assets/snowy_money.jpg,learning,20,images/assets/success_money.jpg,images/assets/gameover.jpg,,,,,,,,,,,,,0,6,6,2,1,,,,,,,,,,,,,,,,,,,,,,,,,,,,,,,,
,,,,,,,,,,,,592dc86c61bcd8000107c131,001,3,2025-04-15_09h41.41.470,avatar_quest_3AFC_legacy,2022.1.3,Win32,169.4915254,592dc86c61bcd8000107c131,67fe6e666cecbc9329ddf6d6,67fe6ee6b9350a8b57fc0f6b,,,,,,,,,,,,,,,,,,,,,,With Brainslug Difficult 1 No Money,6,images/assets/snowy_original.jpg,learning,20,images/assets/success.jpg,images/assets/gameover.jpg,,,,,,,,,,,,,0,7,7,1,1,,,,,,,,,,,,,,,,,,,,,,,,,,,,,,,,
,,,,,,,,,,,,592dc86c61bcd8000107c131,001,3,2025-04-15_09h41.41.470,avatar_quest_3AFC_legacy,2022.1.3,Win32,169.4915254,592dc86c61bcd8000107c131,67fe6e666cecbc9329ddf6d6,67fe6ee6b9350a8b57fc0f6b,,,,,,,,,,,,,,,,,,,,,,No Brainslug No Barriers No Money,0,images/assets/snowy_original.jpg,learning,10,images/assets/success.jpg,images/assets/gameover.jpg,,,,,,,,,,,,,0,8,8,10,1,,,,,,,,,,,,,,,,,,,,,,,,,,,,,,,,
,,,,,,,,,,,,592dc86c61bcd8000107c131,001,3,2025-04-15_09h41.41.470,avatar_quest_3AFC_legacy,2022.1.3,Win32,169.4915254,592dc86c61bcd8000107c131,67fe6e666cecbc9329ddf6d6,67fe6ee6b9350a8b57fc0f6b,,,,,,,,,,,,,,,,,,,,,,No Brainslug Difficult 2 With Money,12,images/assets/snowy_money.jpg,learning,20,images/assets/success_money.jpg,images/assets/gameover.jpg,,,,,,,,,,,,,0,9,9,7,1,,,,,,,,,,,,,,,,,,,,,,,,,,,,,,,,
,,,,,,,,,,,,592dc86c61bcd8000107c131,001,3,2025-04-15_09h41.41.470,avatar_quest_3AFC_legacy,2022.1.3,Win32,169.4915254,592dc86c61bcd8000107c131,67fe6e666cecbc9329ddf6d6,67fe6ee6b9350a8b57fc0f6b,,,,,,,,,,,,,,,,,,,,,,With Brainslug No Barriers No Money,0,images/assets/snowy_original.jpg,learning,10,images/assets/success.jpg,images/assets/gameover.jpg,,,,,,,,,,,,,0,10,10,5,1,,,,,,,,,,,,,,,,,,,,,,,,,,,,,,,,
,,,,,,,,,,,,592dc86c61bcd8000107c131,001,3,2025-04-15_09h41.41.470,avatar_quest_3AFC_legacy,2022.1.3,Win32,169.4915254,592dc86c61bcd8000107c131,67fe6e666cecbc9329ddf6d6,67fe6ee6b9350a8b57fc0f6b,,,,,,,,,,,,,,,,,,,,,,,,,,,,,,,,,,,,,,,,,,,,,,,,,,,,,,,8,0,8,0,1,,,,,,,,,,,,,,,,,,
,,,,,,,,,,,,592dc86c61bcd8000107c131,001,3,2025-04-15_09h41.41.470,avatar_quest_3AFC_legacy,2022.1.3,Win32,169.4915254,592dc86c61bcd8000107c131,67fe6e666cecbc9329ddf6d6,67fe6ee6b9350a8b57fc0f6b,,,,,,,,,,,,,,,,,,,,,,With Brainslug No Barriers No Money,0,images/assets/snowy_original.jpg,learning,10,images/assets/success.jpg,images/assets/gameover.jpg,,,,,,,,With Brainslug Difficult 2 With Money,With Brainslug Difficult 1 No Money,right,1.1494,"[""With Brainslug Difficult 1 No Money"",""With Brainslug Difficult 2 No Money""]",0,0,0,5,1,,,,,,,,,,,,,,,,,,,,,,,,,,,,,,,,
,,,,,,,,,,,,592dc86c61bcd8000107c131,001,3,2025-04-15_09h41.41.470,avatar_quest_3AFC_legacy,2022.1.3,Win32,169.4915254,592dc86c61bcd8000107c131,67fe6e666cecbc9329ddf6d6,67fe6ee6b9350a8b57fc0f6b,,,,,,,,,,,,,,,,,,,,,,No Brainslug No Barriers No Money,0,images/assets/snowy_original.jpg,learning,10,images/assets/success.jpg,images/assets/gameover.jpg,,,,,,,,,,,,,0,1,1,10,1,,,,,,,,,,,,,,,,,,,,,,,,,,,,,,,,
,,,,,,,,,,,,592dc86c61bcd8000107c131,001,3,2025-04-15_09h41.41.470,avatar_quest_3AFC_legacy,2022.1.3,Win32,169.4915254,592dc86c61bcd8000107c131,67fe6e666cecbc9329ddf6d6,67fe6ee6b9350a8b57fc0f6b,,,,,,,,,,,,,,,,,,,,,,No Brainslug Difficult 1 No Money,6,images/assets/snowy_original.jpg,learning,20,images/assets/success.jpg,images/assets/gameover.jpg,,,,,,,,,,,,,0,2,2,6,1,,,,,,,,,,,,,,,,,,,,,,,,,,,,,,,,
,,,,,,,,,,,,592dc86c61bcd8000107c131,001,3,2025-04-15_09h41.41.470,avatar_quest_3AFC_legacy,2022.1.3,Win32,169.4915254,592dc86c61bcd8000107c131,67fe6e666cecbc9329ddf6d6,67fe6ee6b9350a8b57fc0f6b,,,,,,,,,,,,,,,,,,,,,,With Brainslug No Barriers With Money,0,images/assets/snowy_money.jpg,learning,10,images/assets/success_money.jpg,images/assets/gameover.jpg,,,,,,,,,,,,,0,3,3,4,1,,,,,,,,,,,,,,,,,,,,,,,,,,,,,,,,
,,,,,,,,,,,,592dc86c61bcd8000107c131,001,3,2025-04-15_09h41.41.470,avatar_quest_3AFC_legacy,2022.1.3,Win32,169.4915254,592dc86c61bcd8000107c131,67fe6e666cecbc9329ddf6d6,67fe6ee6b9350a8b57fc0f6b,,,,,,,,,,,,,,,,,,,,,,With Brainslug Difficult 1 With Money,6,images/assets/snowy_money.jpg,learning,20,images/assets/success_money.jpg,images/assets/gameover.jpg,,,,,,,,,,,,,0,4,4,0,1,,,,,,,,,,,,,,,,,,,,,,,,,,,,,,,,
,,,,,,,,,,,,592dc86c61bcd8000107c131,001,3,2025-04-15_09h41.41.470,avatar_quest_3AFC_legacy,2022.1.3,Win32,169.4915254,592dc86c61bcd8000107c131,67fe6e666cecbc9329ddf6d6,67fe6ee6b9350a8b57fc0f6b,,,,,,,,,,,,,,,,,,,,,,No Brainslug Difficult 2 No Money,12,images/assets/snowy_original.jpg,learning,20,images/assets/success.jpg,images/assets/gameover.jpg,,,,,,,,,,,,,0,5,5,8,1,,,,,,,,,,,,,,,,,,,,,,,,,,,,,,,,
,,,,,,,,,,,,592dc86c61bcd8000107c131,001,3,2025-04-15_09h41.41.470,avatar_quest_3AFC_legacy,2022.1.3,Win32,169.4915254,592dc86c61bcd8000107c131,67fe6e666cecbc9329ddf6d6,67fe6ee6b9350a8b57fc0f6b,,,,,,,,,,,,,,,,,,,,,,With Brainslug Difficult 2 No Money,12,images/assets/snowy_original.jpg,learning,20,images/assets/success.jpg,images/assets/gameover.jpg,,,,,,,,,,,,,0,6,6,3,1,,,,,,,,,,,,,,,,,,,,,,,,,,,,,,,,
,,,,,,,,,,,,592dc86c61bcd8000107c131,001,3,2025-04-15_09h41.41.470,avatar_quest_3AFC_legacy,2022.1.3,Win32,169.4915254,592dc86c61bcd8000107c131,67fe6e666cecbc9329ddf6d6,67fe6ee6b9350a8b57fc0f6b,,,,,,,,,,,,,,,,,,,,,,No Brainslug Difficult 2 With Money,12,images/assets/snowy_money.jpg,learning,20,images/assets/success_money.jpg,images/assets/gameover.jpg,,,,,,,,,,,,,0,7,7,7,1,,,,,,,,,,,,,,,,,,,,,,,,,,,,,,,,
,,,,,,,,,,,,592dc86c61bcd8000107c131,001,3,2025-04-15_09h41.41.470,avatar_quest_3AFC_legacy,2022.1.3,Win32,169.4915254,592dc86c61bcd8000107c131,67fe6e666cecbc9329ddf6d6,67fe6ee6b9350a8b57fc0f6b,,,,,,,,,,,,,,,,,,,,,,No Brainslug No Barriers With Money,0,images/assets/snowy_money.jpg,learning,10,images/assets/success_money.jpg,images/assets/gameover.jpg,,,,,,,,,,,,,0,8,8,9,1,,,,,,,,,,,,,,,,,,,,,,,,,,,,,,,,
,,,,,,,,,,,,592dc86c61bcd8000107c131,001,3,2025-04-15_09h41.41.470,avatar_quest_3AFC_legacy,2022.1.3,Win32,169.4915254,592dc86c61bcd8000107c131,67fe6e666cecbc9329ddf6d6,67fe6ee6b9350a8b57fc0f6b,"[""left"",""left"",""left"",""left"",""right"",""right"",""right"",""right"",""left"",""left"",""left"",""right"",""right"",""right"",""left"",""right"",""right"",""right"",""left"",""left"",""right"",""right"",""right"",""right"",""left"",""left"",""left"",""left"",""right"",""left"",""left"",""right"",""right"",""right"",""right"",""left"",""left"",""left"",""left"",""left"",""right"",""left"",""left"",""right"",""left"",""left"",""left"",""left"",""left"",""right"",""right"",""right"",""right"",""right""]","[0.3222999999970284,0.800700000002962,0.9489000000059491,1.1271000000089089,1.3062999999970089,1.4490000000000123,1.5806000000089284,1.7279000000059455,1.8349000000059732,2.013900000005947,2.1284000000059677,2.2079000000059636,2.334700000002954,2.4831000000089034,2.5374000000059596,2.6339999999999577,2.8136000000089325,2.960200000002942,3.0177999999970098,3.148100000008924,3.2279000000059455,3.3764999999999645,3.5229000000059614,3.6491000000089002,3.7620000000000005,3.9037000000029707,4.037499999999966,4.182700000002967,4.294799999996997,4.44310000000894,4.586700000002963,4.733799999997018,4.879600000008907,5.020100000008938,5.133799999996995,5.153900000005933,5.259799999997028,5.53720000000294,5.680000000000007,5.826200000002984,5.959900000005973,5.9797000000029925,6.078799999996988,6.125499999999988,6.179700000002981,6.346700000002954,6.459700000002954,6.6089999999999804,6.748299999997016,6.827400000005923,6.973500000000001,7.1194999999999595,7.232700000002978,7.377200000002972]",,calibration,With Brainslug Difficult 2 With Money,13,8.99495,7.6058,19,9,0,TRUE,na,na,na,na,,,,,,,,,,,,,,,,,,,,,,,,,,,,,,,,,,0,0,0,0,1,,,,,,,,,,,,,,,,,,,,,,,
,,,,,,,,,,,,592dc86c61bcd8000107c131,001,3,2025-04-15_09h41.41.470,avatar_quest_3AFC_legacy,2022.1.3,Win32,169.4915254,592dc86c61bcd8000107c131,67fe6e666cecbc9329ddf6d6,67fe6ee6b9350a8b57fc0f6b,,,,,,,,,,,,,,,,,,,,,,With Brainslug Difficult 2 With Money,12,images/assets/snowy_money.jpg,learning,20,images/assets/success_money.jpg,images/assets/gameover.jpg,,,,,,,,,,,,,0,9,9,2,1,,,,,,,,,,,,,,,,,,,,,,,,,,,,,,,,
,,,,,,,,,,,,592dc86c61bcd8000107c131,001,3,2025-04-15_09h41.41.470,avatar_quest_3AFC_legacy,2022.1.3,Win32,169.4915254,592dc86c61bcd8000107c131,67fe6e666cecbc9329ddf6d6,67fe6ee6b9350a8b57fc0f6b,,,,,,,,,,,,,,,,,,,,,,With Brainslug Difficult 1 No Money,6,images/assets/snowy_original.jpg,learning,20,images/assets/success.jpg,images/assets/gameover.jpg,,,,,,,,,,,,,0,10,10,1,1,,,,,,,,,,,,,,,,,,,,,,,,,,,,,,,,
,,,,,,,,,,,,592dc86c61bcd8000107c131,001,3,2025-04-15_09h41.41.470,avatar_quest_3AFC_legacy,2022.1.3,Win32,169.4915254,592dc86c61bcd8000107c131,67fe6e666cecbc9329ddf6d6,67fe6ee6b9350a8b57fc0f6b,,,,,,,,,,,,,,,,,,,,,,,,,,,,,,,,,,,,,,,,,,,,,,,,,,,,,,,9,0,9,0,1,,,,,,,,,,,,,,,,,,
,,,,,,,,,,,,592dc86c61bcd8000107c131,001,3,2025-04-15_09h41.41.470,avatar_quest_3AFC_legacy,2022.1.3,Win32,169.4915254,592dc86c61bcd8000107c131,67fe6e666cecbc9329ddf6d6,67fe6ee6b9350a8b57fc0f6b,"[""left"",""left"",""left"",""left"",""right"",""right"",""left"",""left"",""left"",""right"",""right"",""right"",""left"",""left"",""left"",""left"",""left"",""right"",""right"",""right"",""left"",""left"",""left"",""left"",""right"",""right"",""right"",""left"",""left"",""left"",""right"",""right"",""right"",""right"",""right"",""left"",""left"",""left"",""right"",""right"",""right"",""right""]","[0.3246000000089566,0.5015000000000214,0.6813000000119018,0.8603000000119323,1.3729999999999905,1.553400000005979,1.733000000000004,1.8729999999999905,2.056900000005953,2.300700000002962,2.45980000001191,2.639800000011917,2.752200000002972,2.8992000000029634,3.066500000000019,3.2130000000000223,3.492100000008918,3.571300000011945,3.6991000000089684,3.860100000008913,4.006300000011947,4.120200000002967,4.265800000011893,4.408700000002966,4.556500000000028,4.700600000008933,4.812600000008956,4.919400000005965,5.045200000002978,5.1924999999999955,5.271500000000003,5.378700000002993,5.5470000000000255,5.6392000000029725,5.805900000005977,5.879100000008918,6.062200000002974,6.1751000000089675,6.349600000008934,6.482300000011946,6.627100000008966,6.73890000000597]",,calibration,With Brainslug Difficult 2 With Money,14,8.99495,7.0971,22,9,0,TRUE,na,na,na,na,,,,,,,,,,,,,,,,,,,,With Brainslug Difficult 2 With Money,With Brainslug Difficult 1 No Money,right,3.0164,"[""With Brainslug Difficult 1 No Money"",""With Brainslug Difficult 2 No Money""]",,,,,,,,,,0,0,0,0,1,,,,,,,,,,,,,,,,,,,,,,,
,,,,,,,,,,,,592dc86c61bcd8000107c131,001,3,2025-04-15_09h41.41.470,avatar_quest_3AFC_legacy,2022.1.3,Win32,169.4915254,592dc86c61bcd8000107c131,67fe6e666cecbc9329ddf6d6,67fe6ee6b9350a8b57fc0f6b,,,,,,,,,,,,,,,,,,,,,,With Brainslug Difficult 2 With Money,12,images/assets/snowy_money.jpg,learning,20,images/assets/success_money.jpg,images/assets/gameover.jpg,,,,,,,,,,,,,0,0,0,2,1,,,,,,,,,,,,,,,,,,,,,,,,,,,,,,,,
,,,,,,,,,,,,592dc86c61bcd8000107c131,001,3,2025-04-15_09h41.41.470,avatar_quest_3AFC_legacy,2022.1.3,Win32,169.4915254,592dc86c61bcd8000107c131,67fe6e666cecbc9329ddf6d6,67fe6ee6b9350a8b57fc0f6b,,,,,,,,,,,,,,,,,,,,,,No Brainslug Difficult 2 With Money,12,images/assets/snowy_money.jpg,learning,20,images/assets/success_money.jpg,images/assets/gameover.jpg,,,,,,,,,,,,,0,1,1,7,1,,,,,,,,,,,,,,,,,,,,,,,,,,,,,,,,
,,,,,,,,,,,,592dc86c61bcd8000107c131,001,3,2025-04-15_09h41.41.470,avatar_quest_3AFC_legacy,2022.1.3,Win32,169.4915254,592dc86c61bcd8000107c131,67fe6e666cecbc9329ddf6d6,67fe6ee6b9350a8b57fc0f6b,,,,,,,,,,,,,,,,,,,,,,No Brainslug Difficult 2 No Money,12,images/assets/snowy_original.jpg,learning,20,images/assets/success.jpg,images/assets/gameover.jpg,,,,,,,,,,,,,0,2,2,8,1,,,,,,,,,,,,,,,,,,,,,,,,,,,,,,,,
,,,,,,,,,,,,592dc86c61bcd8000107c131,001,3,2025-04-15_09h41.41.470,avatar_quest_3AFC_legacy,2022.1.3,Win32,169.4915254,592dc86c61bcd8000107c131,67fe6e666cecbc9329ddf6d6,67fe6ee6b9350a8b57fc0f6b,,,,,,,,,,,,,,,,,,,,,,With Brainslug Difficult 1 No Money,6,images/assets/snowy_original.jpg,learning,20,images/assets/success.jpg,images/assets/gameover.jpg,,,,,,,,,,,,,0,3,3,1,1,,,,,,,,,,,,,,,,,,,,,,,,,,,,,,,,
,,,,,,,,,,,,592dc86c61bcd8000107c131,001,3,2025-04-15_09h41.41.470,avatar_quest_3AFC_legacy,2022.1.3,Win32,169.4915254,592dc86c61bcd8000107c131,67fe6e666cecbc9329ddf6d6,67fe6ee6b9350a8b57fc0f6b,,,,,,,,,,,,,,,,,,,,,,No Brainslug Difficult 1 No Money,6,images/assets/snowy_original.jpg,learning,20,images/assets/success.jpg,images/assets/gameover.jpg,,,,,,,,,,,,,0,4,4,6,1,,,,,,,,,,,,,,,,,,,,,,,,,,,,,,,,
,,,,,,,,,,,,592dc86c61bcd8000107c131,001,3,2025-04-15_09h41.41.470,avatar_quest_3AFC_legacy,2022.1.3,Win32,169.4915254,592dc86c61bcd8000107c131,67fe6e666cecbc9329ddf6d6,67fe6ee6b9350a8b57fc0f6b,,,,,,,,,,,,,,,,,,,,,,With Brainslug No Barriers With Money,0,images/assets/snowy_money.jpg,learning,10,images/assets/success_money.jpg,images/assets/gameover.jpg,,,,,,,,,,,,,0,5,5,4,1,,,,,,,,,,,,,,,,,,,,,,,,,,,,,,,,
,,,,,,,,,,,,592dc86c61bcd8000107c131,001,3,2025-04-15_09h41.41.470,avatar_quest_3AFC_legacy,2022.1.3,Win32,169.4915254,592dc86c61bcd8000107c131,67fe6e666cecbc9329ddf6d6,67fe6ee6b9350a8b57fc0f6b,,,,,,,,,,,,,,,,,,,,,,With Brainslug Difficult 1 With Money,6,images/assets/snowy_money.jpg,learning,20,images/assets/success_money.jpg,images/assets/gameover.jpg,,,,,,,,,,,,,0,6,6,0,1,,,,,,,,,,,,,,,,,,,,,,,,,,,,,,,,
,,,,,,,,,,,,592dc86c61bcd8000107c131,001,3,2025-04-15_09h41.41.470,avatar_quest_3AFC_legacy,2022.1.3,Win32,169.4915254,592dc86c61bcd8000107c131,67fe6e666cecbc9329ddf6d6,67fe6ee6b9350a8b57fc0f6b,,,,,,,,,,,,,,,,,,,,,,No Brainslug No Barriers With Money,0,images/assets/snowy_money.jpg,learning,10,images/assets/success_money.jpg,images/assets/gameover.jpg,,,,,,,,,,,,,0,7,7,9,1,,,,,,,,,,,,,,,,,,,,,,,,,,,,,,,,
,,,,,,,,,,,,592dc86c61bcd8000107c131,001,3,2025-04-15_09h41.41.470,avatar_quest_3AFC_legacy,2022.1.3,Win32,169.4915254,592dc86c61bcd8000107c131,67fe6e666cecbc9329ddf6d6,67fe6ee6b9350a8b57fc0f6b,,,,,,,,,,,,,,,,,,,,,,No Brainslug No Barriers No Money,0,images/assets/snowy_original.jpg,learning,10,images/assets/success.jpg,images/assets/gameover.jpg,,,,,,,,,,,,,0,8,8,10,1,,,,,,,,,,,,,,,,,,,,,,,,,,,,,,,,
,,,,,,,,,,,,592dc86c61bcd8000107c131,001,3,2025-04-15_09h41.41.470,avatar_quest_3AFC_legacy,2022.1.3,Win32,169.4915254,592dc86c61bcd8000107c131,67fe6e666cecbc9329ddf6d6,67fe6ee6b9350a8b57fc0f6b,,,,,,,,,,,,,,,,,,,,,,With Brainslug No Barriers No Money,0,images/assets/snowy_original.jpg,learning,10,images/assets/success.jpg,images/assets/gameover.jpg,,,,,,,,,,,,,0,9,9,5,1,,,,,,,,,,,,,,,,,,,,,,,,,,,,,,,,
,,,,,,,,,,,,592dc86c61bcd8000107c131,001,3,2025-04-15_09h41.41.470,avatar_quest_3AFC_legacy,2022.1.3,Win32,169.4915254,592dc86c61bcd8000107c131,67fe6e666cecbc9329ddf6d6,67fe6ee6b9350a8b57fc0f6b,,,,,,,,,,,,,,,,,,,,,,With Brainslug Difficult 2 No Money,12,images/assets/snowy_original.jpg,learning,20,images/assets/success.jpg,images/assets/gameover.jpg,,,,,,,,,,,,,0,10,10,3,1,,,,,,,,,,,,,,,,,,,,,,,,,,,,,,,,
,,,,,,,,,,,,592dc86c61bcd8000107c131,001,3,2025-04-15_09h41.41.470,avatar_quest_3AFC_legacy,2022.1.3,Win32,169.4915254,592dc86c61bcd8000107c131,67fe6e666cecbc9329ddf6d6,67fe6ee6b9350a8b57fc0f6b,,,,,,,,,,,,,,,,,,,,,,,,,,,,,,,,,,,,,,,,,,,,,,,,,,,,,,,10,0,10,0,1,,,,,,,,,,,,,,,,,,
,,,,,,,,,,,,592dc86c61bcd8000107c131,001,3,2025-04-15_09h41.41.470,avatar_quest_3AFC_legacy,2022.1.3,Win32,169.4915254,592dc86c61bcd8000107c131,67fe6e666cecbc9329ddf6d6,67fe6ee6b9350a8b57fc0f6b,,,,,,,,,,,,,,,,,,,,,,With Brainslug No Barriers With Money,0,images/assets/snowy_money.jpg,learning,10,images/assets/success_money.jpg,images/assets/gameover.jpg,,,,,,,,With Brainslug Difficult 2 With Money,With Brainslug Difficult 1 No Money,right,0.8277,"[""With Brainslug Difficult 1 No Money"",""With Brainslug Difficult 2 No Money""]",0,0,0,4,1,,,,,,,,,,,,,,,,,,,,,,,,,,,,,,,,
,,,,,,,,,,,,592dc86c61bcd8000107c131,001,3,2025-04-15_09h41.41.470,avatar_quest_3AFC_legacy,2022.1.3,Win32,169.4915254,592dc86c61bcd8000107c131,67fe6e666cecbc9329ddf6d6,67fe6ee6b9350a8b57fc0f6b,,,,,,,,,,,,,,,,,,,,,,No Brainslug Difficult 1 No Money,6,images/assets/snowy_original.jpg,learning,20,images/assets/success.jpg,images/assets/gameover.jpg,,,,,,,,,,,,,0,1,1,6,1,,,,,,,,,,,,,,,,,,,,,,,,,,,,,,,,
,,,,,,,,,,,,592dc86c61bcd8000107c131,001,3,2025-04-15_09h41.41.470,avatar_quest_3AFC_legacy,2022.1.3,Win32,169.4915254,592dc86c61bcd8000107c131,67fe6e666cecbc9329ddf6d6,67fe6ee6b9350a8b57fc0f6b,,,,,,,,,,,,,,,,,,,,,,With Brainslug Difficult 1 No Money,6,images/assets/snowy_original.jpg,learning,20,images/assets/success.jpg,images/assets/gameover.jpg,,,,,,,,,,,,,0,2,2,1,1,,,,,,,,,,,,,,,,,,,,,,,,,,,,,,,,
,,,,,,,,,,,,592dc86c61bcd8000107c131,001,3,2025-04-15_09h41.41.470,avatar_quest_3AFC_legacy,2022.1.3,Win32,169.4915254,592dc86c61bcd8000107c131,67fe6e666cecbc9329ddf6d6,67fe6ee6b9350a8b57fc0f6b,,,,,,,,,,,,,,,,,,,,,,No Brainslug No Barriers With Money,0,images/assets/snowy_money.jpg,learning,10,images/assets/success_money.jpg,images/assets/gameover.jpg,,,,,,,,,,,,,0,3,3,9,1,,,,,,,,,,,,,,,,,,,,,,,,,,,,,,,,
,,,,,,,,,,,,592dc86c61bcd8000107c131,001,3,2025-04-15_09h41.41.470,avatar_quest_3AFC_legacy,2022.1.3,Win32,169.4915254,592dc86c61bcd8000107c131,67fe6e666cecbc9329ddf6d6,67fe6ee6b9350a8b57fc0f6b,"[""left"",""left"",""left"",""right"",""right"",""right"",""right"",""right"",""right"",""left"",""left"",""left"",""left"",""left"",""right"",""right"",""right"",""left"",""left"",""left"",""left"",""left"",""left"",""right"",""right"",""right"",""right"",""right"",""left"",""left"",""left"",""right"",""right"",""right"",""right"",""left"",""left"",""left"",""right"",""right"",""right"",""right"",""right""]","[0.3568999999910716,0.6713999999910243,0.8160999999940373,1.0918999999910284,1.5039999999999623,1.631099999994035,1.776599999994005,2.021299999996984,2.1696999999880404,2.2830000000000155,2.429499999999962,2.57089999999107,2.716000000000008,2.8629999999999995,3.009199999988084,3.116299999997011,3.2628999999910206,3.3760999999940395,3.509599999994009,3.6596999999880495,3.7688999999910493,3.91519999998809,4.09229999999701,4.225399999991055,4.365399999991041,4.510699999988049,4.623299999997016,4.903399999991052,4.94969999998807,5.1177999999970325,5.259199999988084,5.436199999988048,5.586299999996982,5.728399999991041,5.842699999988042,5.989199999988045,6.130099999994002,6.27709999999405,6.349499999999978,6.488999999999976,6.636199999988094,6.782899999991059,6.9625999999940404]",,calibration,With Brainslug Difficult 2 With Money,15,8.99495,7.3621,19,7,0,TRUE,na,na,na,na,,,,,,,,,,,,,,,,,,,,,,,,,,,,,,,,,,0,0,0,0,1,,,,,,,,,,,,,,,,,,,,,,,
,,,,,,,,,,,,592dc86c61bcd8000107c131,001,3,2025-04-15_09h41.41.470,avatar_quest_3AFC_legacy,2022.1.3,Win32,169.4915254,592dc86c61bcd8000107c131,67fe6e666cecbc9329ddf6d6,67fe6ee6b9350a8b57fc0f6b,,,,,,,,,,,,,,,,,,,,,,With Brainslug Difficult 2 With Money,12,images/assets/snowy_money.jpg,learning,20,images/assets/success_money.jpg,images/assets/gameover.jpg,,,,,,,,,,,,,0,4,4,2,1,,,,,,,,,,,,,,,,,,,,,,,,,,,,,,,,
,,,,,,,,,,,,592dc86c61bcd8000107c131,001,3,2025-04-15_09h41.41.470,avatar_quest_3AFC_legacy,2022.1.3,Win32,169.4915254,592dc86c61bcd8000107c131,67fe6e666cecbc9329ddf6d6,67fe6ee6b9350a8b57fc0f6b,,,,,,,,,,,,,,,,,,,,,,With Brainslug Difficult 2 No Money,12,images/assets/snowy_original.jpg,learning,20,images/assets/success.jpg,images/assets/gameover.jpg,,,,,,,,,,,,,0,5,5,3,1,,,,,,,,,,,,,,,,,,,,,,,,,,,,,,,,
,,,,,,,,,,,,592dc86c61bcd8000107c131,001,3,2025-04-15_09h41.41.470,avatar_quest_3AFC_legacy,2022.1.3,Win32,169.4915254,592dc86c61bcd8000107c131,67fe6e666cecbc9329ddf6d6,67fe6ee6b9350a8b57fc0f6b,,,,,,,,,,,,,,,,,,,,,,With Brainslug Difficult 1 With Money,6,images/assets/snowy_money.jpg,learning,20,images/assets/success_money.jpg,images/assets/gameover.jpg,,,,,,,,,,,,,0,6,6,0,1,,,,,,,,,,,,,,,,,,,,,,,,,,,,,,,,
,,,,,,,,,,,,592dc86c61bcd8000107c131,001,3,2025-04-15_09h41.41.470,avatar_quest_3AFC_legacy,2022.1.3,Win32,169.4915254,592dc86c61bcd8000107c131,67fe6e666cecbc9329ddf6d6,67fe6ee6b9350a8b57fc0f6b,,,,,,,,,,,,,,,,,,,,,,No Brainslug Difficult 2 No Money,12,images/assets/snowy_original.jpg,learning,20,images/assets/success.jpg,images/assets/gameover.jpg,,,,,,,,,,,,,0,7,7,8,1,,,,,,,,,,,,,,,,,,,,,,,,,,,,,,,,
,,,,,,,,,,,,592dc86c61bcd8000107c131,001,3,2025-04-15_09h41.41.470,avatar_quest_3AFC_legacy,2022.1.3,Win32,169.4915254,592dc86c61bcd8000107c131,67fe6e666cecbc9329ddf6d6,67fe6ee6b9350a8b57fc0f6b,,,,,,,,,,,,,,,,,,,,,,No Brainslug No Barriers No Money,0,images/assets/snowy_original.jpg,learning,10,images/assets/success.jpg,images/assets/gameover.jpg,,,,,,,,,,,,,0,8,8,10,1,,,,,,,,,,,,,,,,,,,,,,,,,,,,,,,,
,,,,,,,,,,,,592dc86c61bcd8000107c131,001,3,2025-04-15_09h41.41.470,avatar_quest_3AFC_legacy,2022.1.3,Win32,169.4915254,592dc86c61bcd8000107c131,67fe6e666cecbc9329ddf6d6,67fe6ee6b9350a8b57fc0f6b,,,,,,,,,,,,,,,,,,,,,,With Brainslug No Barriers No Money,0,images/assets/snowy_original.jpg,learning,10,images/assets/success.jpg,images/assets/gameover.jpg,,,,,,,,,,,,,0,9,9,5,1,,,,,,,,,,,,,,,,,,,,,,,,,,,,,,,,
,,,,,,,,,,,,592dc86c61bcd8000107c131,001,3,2025-04-15_09h41.41.470,avatar_quest_3AFC_legacy,2022.1.3,Win32,169.4915254,592dc86c61bcd8000107c131,67fe6e666cecbc9329ddf6d6,67fe6ee6b9350a8b57fc0f6b,,,,,,,,,,,,,,,,,,,,,,No Brainslug Difficult 2 With Money,12,images/assets/snowy_money.jpg,learning,20,images/assets/success_money.jpg,images/assets/gameover.jpg,,,,,,,,,,,,,0,10,10,7,1,,,,,,,,,,,,,,,,,,,,,,,,,,,,,,,,
,,,,,,,,,,,,592dc86c61bcd8000107c131,001,3,2025-04-15_09h41.41.470,avatar_quest_3AFC_legacy,2022.1.3,Win32,169.4915254,592dc86c61bcd8000107c131,67fe6e666cecbc9329ddf6d6,67fe6ee6b9350a8b57fc0f6b,,,,,,,,,,,,,,,,,,,,,,,,,,,,,,,,,,,,,,,,,,,,,,,,,,,,,,,11,0,11,0,1,,,,,,,,,,,,,,,,,,
,,,,,,,,,,,,592dc86c61bcd8000107c131,001,3,2025-04-15_09h41.41.470,avatar_quest_3AFC_legacy,2022.1.3,Win32,169.4915254,592dc86c61bcd8000107c131,67fe6e666cecbc9329ddf6d6,67fe6ee6b9350a8b57fc0f6b,,,,,,,,,,,,,,,,,,,,,,,,,,,,,,,,,,,,,,,,,,,,,,,,,,,,,,,,,,,,0,0,0,0,1,1,With Brainslug Difficult 1 No Money,images/assets/With Brainslug Difficult 1 No Money.png,With Brainslug Difficult 2 No Money,images/assets/With Brainslug Difficult 2 No Money.png,With Brainslug Difficult 2 With Money,images/assets/With Brainslug Difficult 2 With Money.png,Achievement vs. money,,,,,
,,,,,,,,,,,,592dc86c61bcd8000107c131,001,3,2025-04-15_09h41.41.470,avatar_quest_3AFC_legacy,2022.1.3,Win32,169.4915254,592dc86c61bcd8000107c131,67fe6e666cecbc9329ddf6d6,67fe6ee6b9350a8b57fc0f6b,,,,,,,,,,,,,,,,,,,,,,No Brainslug Difficult 2 With Money,12,images/assets/snowy_money.jpg,learning,20,images/assets/success_money.jpg,images/assets/gameover.jpg,,,,,,,,No Brainslug No Barriers With Money,No Brainslug No Barriers No Money,right,0.5878,"[""No Brainslug No Barriers No Money"",""No Brainslug Difficult 1 No Money""]",0,0,0,7,1,,,,,,,,,,,,,,,,,,,,,,,,,,,,,,,,
,,,,,,,,,,,,592dc86c61bcd8000107c131,001,3,2025-04-15_09h41.41.470,avatar_quest_3AFC_legacy,2022.1.3,Win32,169.4915254,592dc86c61bcd8000107c131,67fe6e666cecbc9329ddf6d6,67fe6ee6b9350a8b57fc0f6b,,,,,,,,,,,,,,,,,,,,,,With Brainslug No Barriers With Money,0,images/assets/snowy_money.jpg,learning,10,images/assets/success_money.jpg,images/assets/gameover.jpg,,,,,,,,,,,,,0,1,1,4,1,,,,,,,,,,,,,,,,,,,,,,,,,,,,,,,,
,,,,,,,,,,,,592dc86c61bcd8000107c131,001,3,2025-04-15_09h41.41.470,avatar_quest_3AFC_legacy,2022.1.3,Win32,169.4915254,592dc86c61bcd8000107c131,67fe6e666cecbc9329ddf6d6,67fe6ee6b9350a8b57fc0f6b,,,,,,,,,,,,,,,,,,,,,,With Brainslug No Barriers No Money,0,images/assets/snowy_original.jpg,learning,10,images/assets/success.jpg,images/assets/gameover.jpg,,,,,,,,,,,,,0,2,2,5,1,,,,,,,,,,,,,,,,,,,,,,,,,,,,,,,,
,,,,,,,,,,,,592dc86c61bcd8000107c131,001,3,2025-04-15_09h41.41.470,avatar_quest_3AFC_legacy,2022.1.3,Win32,169.4915254,592dc86c61bcd8000107c131,67fe6e666cecbc9329ddf6d6,67fe6ee6b9350a8b57fc0f6b,,,,,,,,,,,,,,,,,,,,,,No Brainslug Difficult 2 No Money,12,images/assets/snowy_original.jpg,learning,20,images/assets/success.jpg,images/assets/gameover.jpg,,,,,,,,,,,,,0,3,3,8,1,,,,,,,,,,,,,,,,,,,,,,,,,,,,,,,,
,,,,,,,,,,,,592dc86c61bcd8000107c131,001,3,2025-04-15_09h41.41.470,avatar_quest_3AFC_legacy,2022.1.3,Win32,169.4915254,592dc86c61bcd8000107c131,67fe6e666cecbc9329ddf6d6,67fe6ee6b9350a8b57fc0f6b,,,,,,,,,,,,,,,,,,,,,,No Brainslug No Barriers No Money,0,images/assets/snowy_original.jpg,learning,10,images/assets/success.jpg,images/assets/gameover.jpg,,,,,,,,,,,,,0,4,4,10,1,,,,,,,,,,,,,,,,,,,,,,,,,,,,,,,,
,,,,,,,,,,,,592dc86c61bcd8000107c131,001,3,2025-04-15_09h41.41.470,avatar_quest_3AFC_legacy,2022.1.3,Win32,169.4915254,592dc86c61bcd8000107c131,67fe6e666cecbc9329ddf6d6,67fe6ee6b9350a8b57fc0f6b,"[""left"",""left"",""right"",""right"",""left"",""right"",""left"",""right""]","[0.4533999999910634,0.6005999999940741,0.9085000000000036,1.0870999999940523,2.205399999991073,3.592699999988099,4.576399999991054,5.189999999999998]",,calibration,No Brainslug No Barriers With Money,16,7.19596,6.3356,8,0,167,TRUE,na,na,na,na,,,,,,,,,,,,,,,,,,,,,,,,,,,,,,,,,,0,0,0,0,1,,,,,,,,,,,,,,,,,,,,,,,
,,,,,,,,,,,,592dc86c61bcd8000107c131,001,3,2025-04-15_09h41.41.470,avatar_quest_3AFC_legacy,2022.1.3,Win32,169.4915254,592dc86c61bcd8000107c131,67fe6e666cecbc9329ddf6d6,67fe6ee6b9350a8b57fc0f6b,,,,,,,,,,,,,,,,,,,,,,No Brainslug No Barriers With Money,0,images/assets/snowy_money.jpg,learning,10,images/assets/success_money.jpg,images/assets/gameover.jpg,,,,,,,,,,,,,0,5,5,9,1,,,,,,,,,,,,,,,,,,,,,,,,,,,,,,,,
,,,,,,,,,,,,592dc86c61bcd8000107c131,001,3,2025-04-15_09h41.41.470,avatar_quest_3AFC_legacy,2022.1.3,Win32,169.4915254,592dc86c61bcd8000107c131,67fe6e666cecbc9329ddf6d6,67fe6ee6b9350a8b57fc0f6b,,,,,,,,,,,,,,,,,,,,,,No Brainslug Difficult 1 No Money,6,images/assets/snowy_original.jpg,learning,20,images/assets/success.jpg,images/assets/gameover.jpg,,,,,,,,,,,,,0,6,6,6,1,,,,,,,,,,,,,,,,,,,,,,,,,,,,,,,,
,,,,,,,,,,,,592dc86c61bcd8000107c131,001,3,2025-04-15_09h41.41.470,avatar_quest_3AFC_legacy,2022.1.3,Win32,169.4915254,592dc86c61bcd8000107c131,67fe6e666cecbc9329ddf6d6,67fe6ee6b9350a8b57fc0f6b,,,,,,,,,,,,,,,,,,,,,,With Brainslug Difficult 2 With Money,12,images/assets/snowy_money.jpg,learning,20,images/assets/success_money.jpg,images/assets/gameover.jpg,,,,,,,,,,,,,0,7,7,2,1,,,,,,,,,,,,,,,,,,,,,,,,,,,,,,,,
,,,,,,,,,,,,592dc86c61bcd8000107c131,001,3,2025-04-15_09h41.41.470,avatar_quest_3AFC_legacy,2022.1.3,Win32,169.4915254,592dc86c61bcd8000107c131,67fe6e666cecbc9329ddf6d6,67fe6ee6b9350a8b57fc0f6b,,,,,,,,,,,,,,,,,,,,,,With Brainslug Difficult 1 No Money,6,images/assets/snowy_original.jpg,learning,20,images/assets/success.jpg,images/assets/gameover.jpg,,,,,,,,,,,,,0,8,8,1,1,,,,,,,,,,,,,,,,,,,,,,,,,,,,,,,,
,,,,,,,,,,,,592dc86c61bcd8000107c131,001,3,2025-04-15_09h41.41.470,avatar_quest_3AFC_legacy,2022.1.3,Win32,169.4915254,592dc86c61bcd8000107c131,67fe6e666cecbc9329ddf6d6,67fe6ee6b9350a8b57fc0f6b,,,,,,,,,,,,,,,,,,,,,,With Brainslug Difficult 2 No Money,12,images/assets/snowy_original.jpg,learning,20,images/assets/success.jpg,images/assets/gameover.jpg,,,,,,,,,,,,,0,9,9,3,1,,,,,,,,,,,,,,,,,,,,,,,,,,,,,,,,
,,,,,,,,,,,,592dc86c61bcd8000107c131,001,3,2025-04-15_09h41.41.470,avatar_quest_3AFC_legacy,2022.1.3,Win32,169.4915254,592dc86c61bcd8000107c131,67fe6e666cecbc9329ddf6d6,67fe6ee6b9350a8b57fc0f6b,,,,,,,,,,,,,,,,,,,,,,With Brainslug Difficult 1 With Money,6,images/assets/snowy_money.jpg,learning,20,images/assets/success_money.jpg,images/assets/gameover.jpg,,,,,,,,,,,,,0,10,10,0,1,,,,,,,,,,,,,,,,,,,,,,,,,,,,,,,,
,,,,,,,,,,,,592dc86c61bcd8000107c131,001,3,2025-04-15_09h41.41.470,avatar_quest_3AFC_legacy,2022.1.3,Win32,169.4915254,592dc86c61bcd8000107c131,67fe6e666cecbc9329ddf6d6,67fe6ee6b9350a8b57fc0f6b,,,,,,,,,,,,,,,,,,,,,,,,,,,,,,,,,,,,,,,,,,,,,,,,,,,,,,,0,0,0,0,1,,,,,,,,,,,,,,,,,,
,,,,,,,,,,,,592dc86c61bcd8000107c131,001,3,2025-04-15_09h41.41.470,avatar_quest_3AFC_legacy,2022.1.3,Win32,169.4915254,592dc86c61bcd8000107c131,67fe6e666cecbc9329ddf6d6,67fe6ee6b9350a8b57fc0f6b,,,,,,,,,,,,,,,,,,,,,,With Brainslug No Barriers No Money,0,images/assets/snowy_original.jpg,learning,10,images/assets/success.jpg,images/assets/gameover.jpg,,,,,,,,No Brainslug No Barriers With Money,No Brainslug No Barriers No Money,right,2.4367,"[""No Brainslug No Barriers No Money"",""No Brainslug Difficult 1 No Money""]",0,0,0,5,1,,,,,,,,,,,,,,,,,,,,,,,,,,,,,,,,
,,,,,,,,,,,,592dc86c61bcd8000107c131,001,3,2025-04-15_09h41.41.470,avatar_quest_3AFC_legacy,2022.1.3,Win32,169.4915254,592dc86c61bcd8000107c131,67fe6e666cecbc9329ddf6d6,67fe6ee6b9350a8b57fc0f6b,,,,,,,,,,,,,,,,,,,,,,No Brainslug No Barriers No Money,0,images/assets/snowy_original.jpg,learning,10,images/assets/success.jpg,images/assets/gameover.jpg,,,,,,,,,,,,,0,1,1,10,1,,,,,,,,,,,,,,,,,,,,,,,,,,,,,,,,
,,,,,,,,,,,,592dc86c61bcd8000107c131,001,3,2025-04-15_09h41.41.470,avatar_quest_3AFC_legacy,2022.1.3,Win32,169.4915254,592dc86c61bcd8000107c131,67fe6e666cecbc9329ddf6d6,67fe6ee6b9350a8b57fc0f6b,,,,,,,,,,,,,,,,,,,,,,No Brainslug Difficult 2 No Money,12,images/assets/snowy_original.jpg,learning,20,images/assets/success.jpg,images/assets/gameover.jpg,,,,,,,,,,,,,0,2,2,8,1,,,,,,,,,,,,,,,,,,,,,,,,,,,,,,,,
,,,,,,,,,,,,592dc86c61bcd8000107c131,001,3,2025-04-15_09h41.41.470,avatar_quest_3AFC_legacy,2022.1.3,Win32,169.4915254,592dc86c61bcd8000107c131,67fe6e666cecbc9329ddf6d6,67fe6ee6b9350a8b57fc0f6b,,,,,,,,,,,,,,,,,,,,,,With Brainslug Difficult 2 With Money,12,images/assets/snowy_money.jpg,learning,20,images/assets/success_money.jpg,images/assets/gameover.jpg,,,,,,,,,,,,,0,3,3,2,1,,,,,,,,,,,,,,,,,,,,,,,,,,,,,,,,
,,,,,,,,,,,,592dc86c61bcd8000107c131,001,3,2025-04-15_09h41.41.470,avatar_quest_3AFC_legacy,2022.1.3,Win32,169.4915254,592dc86c61bcd8000107c131,67fe6e666cecbc9329ddf6d6,67fe6ee6b9350a8b57fc0f6b,,,,,,,,,,,,,,,,,,,,,,With Brainslug Difficult 1 No Money,6,images/assets/snowy_original.jpg,learning,20,images/assets/success.jpg,images/assets/gameover.jpg,,,,,,,,,,,,,0,4,4,1,1,,,,,,,,,,,,,,,,,,,,,,,,,,,,,,,,
,,,,,,,,,,,,592dc86c61bcd8000107c131,001,3,2025-04-15_09h41.41.470,avatar_quest_3AFC_legacy,2022.1.3,Win32,169.4915254,592dc86c61bcd8000107c131,67fe6e666cecbc9329ddf6d6,67fe6ee6b9350a8b57fc0f6b,,,,,,,,,,,,,,,,,,,,,,With Brainslug Difficult 2 No Money,12,images/assets/snowy_original.jpg,learning,20,images/assets/success.jpg,images/assets/gameover.jpg,,,,,,,,,,,,,0,5,5,3,1,,,,,,,,,,,,,,,,,,,,,,,,,,,,,,,,
,,,,,,,,,,,,592dc86c61bcd8000107c131,001,3,2025-04-15_09h41.41.470,avatar_quest_3AFC_legacy,2022.1.3,Win32,169.4915254,592dc86c61bcd8000107c131,67fe6e666cecbc9329ddf6d6,67fe6ee6b9350a8b57fc0f6b,,,,,,,,,,,,,,,,,,,,,,With Brainslug No Barriers With Money,0,images/assets/snowy_money.jpg,learning,10,images/assets/success_money.jpg,images/assets/gameover.jpg,,,,,,,,,,,,,0,6,6,4,1,,,,,,,,,,,,,,,,,,,,,,,,,,,,,,,,
,,,,,,,,,,,,592dc86c61bcd8000107c131,001,3,2025-04-15_09h41.41.470,avatar_quest_3AFC_legacy,2022.1.3,Win32,169.4915254,592dc86c61bcd8000107c131,67fe6e666cecbc9329ddf6d6,67fe6ee6b9350a8b57fc0f6b,,,,,,,,,,,,,,,,,,,,,,No Brainslug Difficult 1 No Money,6,images/assets/snowy_original.jpg,learning,20,images/assets/success.jpg,images/assets/gameover.jpg,,,,,,,,,,,,,0,7,7,6,1,,,,,,,,,,,,,,,,,,,,,,,,,,,,,,,,
,,,,,,,,,,,,592dc86c61bcd8000107c131,001,3,2025-04-15_09h41.41.470,avatar_quest_3AFC_legacy,2022.1.3,Win32,169.4915254,592dc86c61bcd8000107c131,67fe6e666cecbc9329ddf6d6,67fe6ee6b9350a8b57fc0f6b,,,,,,,,,,,,,,,,,,,,,,No Brainslug Difficult 2 With Money,12,images/assets/snowy_money.jpg,learning,20,images/assets/success_money.jpg,images/assets/gameover.jpg,,,,,,,,,,,,,0,8,8,7,1,,,,,,,,,,,,,,,,,,,,,,,,,,,,,,,,
,,,,,,,,,,,,592dc86c61bcd8000107c131,001,3,2025-04-15_09h41.41.470,avatar_quest_3AFC_legacy,2022.1.3,Win32,169.4915254,592dc86c61bcd8000107c131,67fe6e666cecbc9329ddf6d6,67fe6ee6b9350a8b57fc0f6b,,,,,,,,,,,,,,,,,,,,,,With Brainslug Difficult 1 With Money,6,images/assets/snowy_money.jpg,learning,20,images/assets/success_money.jpg,images/assets/gameover.jpg,,,,,,,,,,,,,0,9,9,0,1,,,,,,,,,,,,,,,,,,,,,,,,,,,,,,,,
,,,,,,,,,,,,592dc86c61bcd8000107c131,001,3,2025-04-15_09h41.41.470,avatar_quest_3AFC_legacy,2022.1.3,Win32,169.4915254,592dc86c61bcd8000107c131,67fe6e666cecbc9329ddf6d6,67fe6ee6b9350a8b57fc0f6b,"[""left"",""right""]","[2.266999999999996,4.027599999994038]",,calibration,No Brainslug No Barriers With Money,17,7.19596,5.3248,2,0,0,TRUE,na,na,na,na,,,,,,,,,,,,,,,,,,,,,,,,,,,,,,,,,,0,0,0,0,1,,,,,,,,,,,,,,,,,,,,,,,
,,,,,,,,,,,,592dc86c61bcd8000107c131,001,3,2025-04-15_09h41.41.470,avatar_quest_3AFC_legacy,2022.1.3,Win32,169.4915254,592dc86c61bcd8000107c131,67fe6e666cecbc9329ddf6d6,67fe6ee6b9350a8b57fc0f6b,,,,,,,,,,,,,,,,,,,,,,No Brainslug No Barriers With Money,0,images/assets/snowy_money.jpg,learning,10,images/assets/success_money.jpg,images/assets/gameover.jpg,,,,,,,,,,,,,0,10,10,9,1,,,,,,,,,,,,,,,,,,,,,,,,,,,,,,,,
,,,,,,,,,,,,592dc86c61bcd8000107c131,001,3,2025-04-15_09h41.41.470,avatar_quest_3AFC_legacy,2022.1.3,Win32,169.4915254,592dc86c61bcd8000107c131,67fe6e666cecbc9329ddf6d6,67fe6ee6b9350a8b57fc0f6b,,,,,,,,,,,,,,,,,,,,,,,,,,,,,,,,,,,,,,,,,,,,,,,,,,,,,,,1,0,1,0,1,,,,,,,,,,,,,,,,,,
,,,,,,,,,,,,592dc86c61bcd8000107c131,001,3,2025-04-15_09h41.41.470,avatar_quest_3AFC_legacy,2022.1.3,Win32,169.4915254,592dc86c61bcd8000107c131,67fe6e666cecbc9329ddf6d6,67fe6ee6b9350a8b57fc0f6b,,,,,,,,,,,,,,,,,,,,,,No Brainslug No Barriers No Money,0,images/assets/snowy_original.jpg,learning,10,images/assets/success.jpg,images/assets/gameover.jpg,,,,,,,,No Brainslug No Barriers With Money,No Brainslug No Barriers No Money,right,0.6472,"[""No Brainslug No Barriers No Money"",""No Brainslug Difficult 1 No Money""]",0,0,0,10,1,,,,,,,,,,,,,,,,,,,,,,,,,,,,,,,,
,,,,,,,,,,,,592dc86c61bcd8000107c131,001,3,2025-04-15_09h41.41.470,avatar_quest_3AFC_legacy,2022.1.3,Win32,169.4915254,592dc86c61bcd8000107c131,67fe6e666cecbc9329ddf6d6,67fe6ee6b9350a8b57fc0f6b,,,,,,,,,,,,,,,,,,,,,,No Brainslug Difficult 2 No Money,12,images/assets/snowy_original.jpg,learning,20,images/assets/success.jpg,images/assets/gameover.jpg,,,,,,,,,,,,,0,1,1,8,1,,,,,,,,,,,,,,,,,,,,,,,,,,,,,,,,
,,,,,,,,,,,,592dc86c61bcd8000107c131,001,3,2025-04-15_09h41.41.470,avatar_quest_3AFC_legacy,2022.1.3,Win32,169.4915254,592dc86c61bcd8000107c131,67fe6e666cecbc9329ddf6d6,67fe6ee6b9350a8b57fc0f6b,,,,,,,,,,,,,,,,,,,,,,With Brainslug Difficult 2 With Money,12,images/assets/snowy_money.jpg,learning,20,images/assets/success_money.jpg,images/assets/gameover.jpg,,,,,,,,,,,,,0,2,2,2,1,,,,,,,,,,,,,,,,,,,,,,,,,,,,,,,,
,,,,,,,,,,,,592dc86c61bcd8000107c131,001,3,2025-04-15_09h41.41.470,avatar_quest_3AFC_legacy,2022.1.3,Win32,169.4915254,592dc86c61bcd8000107c131,67fe6e666cecbc9329ddf6d6,67fe6ee6b9350a8b57fc0f6b,,,,,,,,,,,,,,,,,,,,,,With Brainslug Difficult 1 No Money,6,images/assets/snowy_original.jpg,learning,20,images/assets/success.jpg,images/assets/gameover.jpg,,,,,,,,,,,,,0,3,3,1,1,,,,,,,,,,,,,,,,,,,,,,,,,,,,,,,,
,,,,,,,,,,,,592dc86c61bcd8000107c131,001,3,2025-04-15_09h41.41.470,avatar_quest_3AFC_legacy,2022.1.3,Win32,169.4915254,592dc86c61bcd8000107c131,67fe6e666cecbc9329ddf6d6,67fe6ee6b9350a8b57fc0f6b,,,,,,,,,,,,,,,,,,,,,,With Brainslug No Barriers No Money,0,images/assets/snowy_original.jpg,learning,10,images/assets/success.jpg,images/assets/gameover.jpg,,,,,,,,,,,,,0,4,4,5,1,,,,,,,,,,,,,,,,,,,,,,,,,,,,,,,,
,,,,,,,,,,,,592dc86c61bcd8000107c131,001,3,2025-04-15_09h41.41.470,avatar_quest_3AFC_legacy,2022.1.3,Win32,169.4915254,592dc86c61bcd8000107c131,67fe6e666cecbc9329ddf6d6,67fe6ee6b9350a8b57fc0f6b,,,,,,,,,,,,,,,,,,,,,,No Brainslug Difficult 1 No Money,6,images/assets/snowy_original.jpg,learning,20,images/assets/success.jpg,images/assets/gameover.jpg,,,,,,,,,,,,,0,5,5,6,1,,,,,,,,,,,,,,,,,,,,,,,,,,,,,,,,
,,,,,,,,,,,,592dc86c61bcd8000107c131,001,3,2025-04-15_09h41.41.470,avatar_quest_3AFC_legacy,2022.1.3,Win32,169.4915254,592dc86c61bcd8000107c131,67fe6e666cecbc9329ddf6d6,67fe6ee6b9350a8b57fc0f6b,,,,,,,,,,,,,,,,,,,,,,With Brainslug Difficult 2 No Money,12,images/assets/snowy_original.jpg,learning,20,images/assets/success.jpg,images/assets/gameover.jpg,,,,,,,,,,,,,0,6,6,3,1,,,,,,,,,,,,,,,,,,,,,,,,,,,,,,,,
,,,,,,,,,,,,592dc86c61bcd8000107c131,001,3,2025-04-15_09h41.41.470,avatar_quest_3AFC_legacy,2022.1.3,Win32,169.4915254,592dc86c61bcd8000107c131,67fe6e666cecbc9329ddf6d6,67fe6ee6b9350a8b57fc0f6b,,,,,,,,,,,,,,,,,,,,,,With Brainslug Difficult 1 With Money,6,images/assets/snowy_money.jpg,learning,20,images/assets/success_money.jpg,images/assets/gameover.jpg,,,,,,,,,,,,,0,7,7,0,1,,,,,,,,,,,,,,,,,,,,,,,,,,,,,,,,
,,,,,,,,,,,,592dc86c61bcd8000107c131,001,3,2025-04-15_09h41.41.470,avatar_quest_3AFC_legacy,2022.1.3,Win32,169.4915254,592dc86c61bcd8000107c131,67fe6e666cecbc9329ddf6d6,67fe6ee6b9350a8b57fc0f6b,,,,,,,,,,,,,,,,,,,,,,With Brainslug No Barriers With Money,0,images/assets/snowy_money.jpg,learning,10,images/assets/success_money.jpg,images/assets/gameover.jpg,,,,,,,,,,,,,0,8,8,4,1,,,,,,,,,,,,,,,,,,,,,,,,,,,,,,,,
