instruction_mouse.x,instruction_mouse.y,instruction_mouse.leftButton,instruction_mouse.midButton,instruction_mouse.rightButton,instruction_mouse.clicked_name,introduce_general.thisRepN,introduce_general.thisTrialN,introduce_general.thisN,introduce_general.thisIndex,introduce_general.ran,thisInstruction,participant,session,game version,date,expName,psychopyVersion,OS,frameRate,PROLIFIC PID,STUDY ID,SESSION ID,move_resp.keys,move_resp.rt,end_resp.keys,phase,condition,trial_num,time_limit,completion_time,left_right_steps,number_of_obsticle_blocks,number_of_tree_blocks,quest_complete,responsivity_summary,av_inter_brainslug_intervals,proportion_jitter,jitter_direction_proportion_right,calibration_phase.thisRepN,calibration_phase.thisTrialN,calibration_phase.thisN,calibration_phase.thisIndex,calibration_phase.ran,BlockLabel,nObsticles,backgroundImage,phaseLabel,n_side_steps,success_im,gameover_im,success_condition,introduce_learning_or_choice.thisRepN,introduce_learning_or_choice.thisTrialN,introduce_learning_or_choice.thisN,introduce_learning_or_choice.thisIndex,introduce_learning_or_choice.ran,choice_resp.keys,chosen_quest,unchosen_quest,choice_resp_3afc.keys,choice_resp_3afc.rt,unchosen_quests,forced_choice_trial.thisRepN,forced_choice_trial.thisTrialN,forced_choice_trial.thisN,forced_choice_trial.thisIndex,forced_choice_trial.ran,enjoyment_slider.response,enjoyment_slider.rt,effort_slider.response,effort_slider.rt,show_loop2.thisRepN,show_loop2.thisTrialN,show_loop2.thisN,show_loop2.thisIndex,show_loop2.ran,trials_per_block.thisRepN,trials_per_block.thisTrialN,trials_per_block.thisN,trials_per_block.thisIndex,trials_per_block.ran,decision_phase_AFC.thisRepN,decision_phase_AFC.thisTrialN,decision_phase_AFC.thisN,decision_phase_AFC.thisIndex,decision_phase_AFC.ran,blockN,BlockLabel1,questIm1,BlockLabel2,questIm2,BlockLabel3,questIm3,quest_condition,showForcedChoice.thisRepN,showForcedChoice.thisTrialN,showForcedChoice.thisN,showForcedChoice.thisIndex,showForcedChoice.ran
0.443518603,-0.39444443,1,0,0,instruction_button,0,0,0,0,1,images/instructions_part1_LSM_taskversion1/Slide1.JPG,599de70d8a6cc5000128f980,001,3,2025-04-15_10h54.12.410,avatar_quest_3AFC_legacy,2022.1.3,Win32,60.60606061,599de70d8a6cc5000128f980,67fe6e666cecbc9329ddf6d6,67fe72542cdd2ff9ed0a9360,,,,,,,,,,,,,,,,,,,,,,,,,,,,,,,,,,,,,,,,,,,,,,,,,,,,,,,,,,,,,,,,,,,,,,,,,,,,,
0.455555527,-0.404629672,1,0,0,instruction_button,0,1,1,1,1,images/instructions_part1_LSM_taskversion1/Slide2.JPG,599de70d8a6cc5000128f980,001,3,2025-04-15_10h54.12.410,avatar_quest_3AFC_legacy,2022.1.3,Win32,60.60606061,599de70d8a6cc5000128f980,67fe6e666cecbc9329ddf6d6,67fe72542cdd2ff9ed0a9360,,,,,,,,,,,,,,,,,,,,,,,,,,,,,,,,,,,,,,,,,,,,,,,,,,,,,,,,,,,,,,,,,,,,,,,,,,,,,
0.44722225,-0.410185213,1,0,0,instruction_button,0,2,2,2,1,images/instructions_part1_LSM_taskversion1/Slide3.JPG,599de70d8a6cc5000128f980,001,3,2025-04-15_10h54.12.410,avatar_quest_3AFC_legacy,2022.1.3,Win32,60.60606061,599de70d8a6cc5000128f980,67fe6e666cecbc9329ddf6d6,67fe72542cdd2ff9ed0a9360,,,,,,,,,,,,,,,,,,,,,,,,,,,,,,,,,,,,,,,,,,,,,,,,,,,,,,,,,,,,,,,,,,,,,,,,,,,,,
0.42777775,-0.383333347,1,0,0,instruction_button,0,3,3,3,1,images/instructions_part1_LSM_taskversion1/Slide3.5.JPG,599de70d8a6cc5000128f980,001,3,2025-04-15_10h54.12.410,avatar_quest_3AFC_legacy,2022.1.3,Win32,60.60606061,599de70d8a6cc5000128f980,67fe6e666cecbc9329ddf6d6,67fe72542cdd2ff9ed0a9360,,,,,,,,,,,,,,,,,,,,,,,,,,,,,,,,,,,,,,,,,,,,,,,,,,,,,,,,,,,,,,,,,,,,,,,,,,,,,
0.429629714,-0.397222236,1,0,0,instruction_button,0,4,4,4,1,images/instructions_part1_LSM_taskversion1/Slide4.JPG,599de70d8a6cc5000128f980,001,3,2025-04-15_10h54.12.410,avatar_quest_3AFC_legacy,2022.1.3,Win32,60.60606061,599de70d8a6cc5000128f980,67fe6e666cecbc9329ddf6d6,67fe72542cdd2ff9ed0a9360,,,,,,,,,,,,,,,,,,,,,,,,,,,,,,,,,,,,,,,,,,,,,,,,,,,,,,,,,,,,,,,,,,,,,,,,,,,,,
0.407407407,-0.398148148,1,0,0,instruction_button,0,5,5,5,1,images/instructions_part1_LSM_taskversion1/Slide6.5.JPG,599de70d8a6cc5000128f980,001,3,2025-04-15_10h54.12.410,avatar_quest_3AFC_legacy,2022.1.3,Win32,60.60606061,599de70d8a6cc5000128f980,67fe6e666cecbc9329ddf6d6,67fe72542cdd2ff9ed0a9360,,,,,,,,,,,,,,,,,,,,,,,,,,,,,,,,,,,,,,,,,,,,,,,,,,,,,,,,,,,,,,,,,,,,,,,,,,,,,
,,,,,,,,,,,,599de70d8a6cc5000128f980,001,3,2025-04-15_10h54.12.410,avatar_quest_3AFC_legacy,2022.1.3,Win32,60.60606061,599de70d8a6cc5000128f980,67fe6e666cecbc9329ddf6d6,67fe72542cdd2ff9ed0a9360,"[""left"",""right"",""left"",""right"",""right"",""right"",""right""]","[2.2057000000476705,2.6397999999523165,3.0883999999761613,4.605700000047676,4.972799999952315,5.209000000000003,5.457399999976161]",,calibration,No Brainslug No Barriers No Money,1,100,5.7016,5,0,18,TRUE,na,na,na,na,0,0,0,2,1,No Brainslug No Barriers No Money,0,images/assets/snowy_original.jpg,calibration,10,images/assets/success.jpg,images/assets/gameover.jpg,never,,,,,,,,,,,,,,,,,,,,,,,,,,,,,,,,,,,,,,,,,,,,,,,,
,,,,,,,,,,,,599de70d8a6cc5000128f980,001,3,2025-04-15_10h54.12.410,avatar_quest_3AFC_legacy,2022.1.3,Win32,60.60606061,599de70d8a6cc5000128f980,67fe6e666cecbc9329ddf6d6,67fe72542cdd2ff9ed0a9360,"[""right"",""left"",""left"",""up"",""right"",""left"",""right"",""right"",""right"",""right"",""right"",""right"",""left"",""right"",""right"",""right"",""right""]","[0.041799999952331746,0.6458999999761659,1.1260000000000048,2.7595000000000027,3.194100000023866,3.563600000023854,4.178699999928483,4.478199999928478,4.710199999928477,4.927600000023858,5.194500000000005,5.693699999928498,5.745299999952323,6.05839999997616,6.440100000023847,6.674699999928492,6.960699999928494]",,calibration,No Brainslug No Barriers No Money,2,100,7.0106,9,0,98,TRUE,na,na,na,na,0,1,1,0,1,No Brainslug No Barriers No Money,0,images/assets/snowy_original.jpg,calibration,10,images/assets/success.jpg,images/assets/gameover.jpg,never,,,,,,,,,,,,,,,,,,,,,,,,,,,,,,,,,,,,,,,,,,,,,,,,
,,,,,,,,,,,,599de70d8a6cc5000128f980,001,3,2025-04-15_10h54.12.410,avatar_quest_3AFC_legacy,2022.1.3,Win32,60.60606061,599de70d8a6cc5000128f980,67fe6e666cecbc9329ddf6d6,67fe72542cdd2ff9ed0a9360,"[""left"",""right"",""left"",""right"",""left"",""left"",""left"",""left"",""left"",""right"",""right"",""right"",""right"",""right"",""right"",""right""]","[0.5314999999999941,0.9996999999284526,1.415099999904612,1.8651999999284783,2.3326999999284794,2.8817999999523067,3.1843999999761365,3.4450999999046132,3.6985999999046157,3.848299999952303,4.132699999928462,4.346699999928461,4.548199999928471,4.778599999904628,5.001499999999993,5.231099999904615]",,calibration,No Brainslug No Barriers No Money,3,100,5.4143,11,0,0,TRUE,na,na,na,na,0,2,2,1,1,No Brainslug No Barriers No Money,0,images/assets/snowy_original.jpg,calibration,10,images/assets/success.jpg,images/assets/gameover.jpg,never,,,,,,,,,,,,,,,,,,,,,,,,,,,,,,,,,,,,,,,,,,,,,,,,
0.337962963,-0.395370413,1,0,0,instruction_button,,,,,,images/instructions_part2_LSM_taskversion3.jpg,599de70d8a6cc5000128f980,001,3,2025-04-15_10h54.12.410,avatar_quest_3AFC_legacy,2022.1.3,Win32,60.60606061,599de70d8a6cc5000128f980,67fe6e666cecbc9329ddf6d6,67fe72542cdd2ff9ed0a9360,,,,,,,,,,,,,,,,,,,,,,,,,,,,,,0,0,0,0,1,,,,,,,,,,,,,,,,,,,,,,,,,,,,,,,,,,,,,,,,,,,
,,,,,,,,,,,,599de70d8a6cc5000128f980,001,3,2025-04-15_10h54.12.410,avatar_quest_3AFC_legacy,2022.1.3,Win32,60.60606061,599de70d8a6cc5000128f980,67fe6e666cecbc9329ddf6d6,67fe72542cdd2ff9ed0a9360,,,,,,,,,,,,,,,,,,,,,,No Brainslug No Barriers No Money,0,images/assets/snowy_original.jpg,learning,10,images/assets/success.jpg,images/assets/gameover.jpg,,,,,,,,With Brainslug Difficult 2 With Money,With Brainslug Difficult 1 No Money,right,2.9495,"[""With Brainslug Difficult 1 No Money"",""With Brainslug Difficult 2 No Money""]",0,0,0,10,1,,,,,,,,,,,,,,,,,,,,,,,,,,,,,,,,
,,,,,,,,,,,,599de70d8a6cc5000128f980,001,3,2025-04-15_10h54.12.410,avatar_quest_3AFC_legacy,2022.1.3,Win32,60.60606061,599de70d8a6cc5000128f980,67fe6e666cecbc9329ddf6d6,67fe72542cdd2ff9ed0a9360,,,,,,,,,,,,,,,,,,,,,,With Brainslug No Barriers With Money,0,images/assets/snowy_money.jpg,learning,10,images/assets/success_money.jpg,images/assets/gameover.jpg,,,,,,,,,,,,,0,1,1,4,1,,,,,,,,,,,,,,,,,,,,,,,,,,,,,,,,
,,,,,,,,,,,,599de70d8a6cc5000128f980,001,3,2025-04-15_10h54.12.410,avatar_quest_3AFC_legacy,2022.1.3,Win32,60.60606061,599de70d8a6cc5000128f980,67fe6e666cecbc9329ddf6d6,67fe72542cdd2ff9ed0a9360,,,,,,,,,,,,,,,,,,,,,,With Brainslug Difficult 1 With Money,6,images/assets/snowy_money.jpg,learning,20,images/assets/success_money.jpg,images/assets/gameover.jpg,,,,,,,,,,,,,0,2,2,0,1,,,,,,,,,,,,,,,,,,,,,,,,,,,,,,,,
,,,,,,,,,,,,599de70d8a6cc5000128f980,001,3,2025-04-15_10h54.12.410,avatar_quest_3AFC_legacy,2022.1.3,Win32,60.60606061,599de70d8a6cc5000128f980,67fe6e666cecbc9329ddf6d6,67fe72542cdd2ff9ed0a9360,,,,,,,,,,,,,,,,,,,,,,No Brainslug No Barriers With Money,0,images/assets/snowy_money.jpg,learning,10,images/assets/success_money.jpg,images/assets/gameover.jpg,,,,,,,,,,,,,0,3,3,9,1,,,,,,,,,,,,,,,,,,,,,,,,,,,,,,,,
,,,,,,,,,,,,599de70d8a6cc5000128f980,001,3,2025-04-15_10h54.12.410,avatar_quest_3AFC_legacy,2022.1.3,Win32,60.60606061,599de70d8a6cc5000128f980,67fe6e666cecbc9329ddf6d6,67fe72542cdd2ff9ed0a9360,,,,,,,,,,,,,,,,,,,,,,With Brainslug Difficult 2 No Money,12,images/assets/snowy_original.jpg,learning,20,images/assets/success.jpg,images/assets/gameover.jpg,,,,,,,,,,,,,0,4,4,3,1,,,,,,,,,,,,,,,,,,,,,,,,,,,,,,,,
,,,,,,,,,,,,599de70d8a6cc5000128f980,001,3,2025-04-15_10h54.12.410,avatar_quest_3AFC_legacy,2022.1.3,Win32,60.60606061,599de70d8a6cc5000128f980,67fe6e666cecbc9329ddf6d6,67fe72542cdd2ff9ed0a9360,"[""up"",""up"",""left"",""left"",""right"",""right"",""right"",""right"",""left"",""left"",""left"",""left"",""right"",""right"",""left"",""left"",""right"",""right"",""right""]","[2.900299999952324,3.16960000002382,3.4984999999999786,3.924299999952325,4.199000000000012,4.5464999999999804,4.783700000047702,5.030399999976169,5.265200000047685,5.545999999999992,5.794799999952318,6.068600000023821,6.464399999976138,6.733799999952339,7.250899999976127,7.704899999976135,8.07099999999997,8.403999999999996,8.689899999976149]",,calibration,With Brainslug Difficult 2 With Money,4,9.06325,9.0641,13,7,0,FALSE,na,na,na,na,,,,,,,,,,,,,,,,,,,,,,,,,,,,,,,,,,0,0,0,0,1,,,,,,,,,,,,,,,,,,,,,,,
,,,,,,,,,,,,599de70d8a6cc5000128f980,001,3,2025-04-15_10h54.12.410,avatar_quest_3AFC_legacy,2022.1.3,Win32,60.60606061,599de70d8a6cc5000128f980,67fe6e666cecbc9329ddf6d6,67fe72542cdd2ff9ed0a9360,,,,,,,,,,,,,,,,,,,,,,With Brainslug Difficult 2 With Money,12,images/assets/snowy_money.jpg,learning,20,images/assets/success_money.jpg,images/assets/gameover.jpg,,,,,,,,,,,,,0,5,5,2,1,,,,,,,,,,,,,,,,,,,,,,,,,,,,,,,,
,,,,,,,,,,,,599de70d8a6cc5000128f980,001,3,2025-04-15_10h54.12.410,avatar_quest_3AFC_legacy,2022.1.3,Win32,60.60606061,599de70d8a6cc5000128f980,67fe6e666cecbc9329ddf6d6,67fe72542cdd2ff9ed0a9360,,,,,,,,,,,,,,,,,,,,,,No Brainslug Difficult 2 No Money,12,images/assets/snowy_original.jpg,learning,20,images/assets/success.jpg,images/assets/gameover.jpg,,,,,,,,,,,,,0,6,6,8,1,,,,,,,,,,,,,,,,,,,,,,,,,,,,,,,,
,,,,,,,,,,,,599de70d8a6cc5000128f980,001,3,2025-04-15_10h54.12.410,avatar_quest_3AFC_legacy,2022.1.3,Win32,60.60606061,599de70d8a6cc5000128f980,67fe6e666cecbc9329ddf6d6,67fe72542cdd2ff9ed0a9360,,,,,,,,,,,,,,,,,,,,,,With Brainslug Difficult 1 No Money,6,images/assets/snowy_original.jpg,learning,20,images/assets/success.jpg,images/assets/gameover.jpg,,,,,,,,,,,,,0,7,7,1,1,,,,,,,,,,,,,,,,,,,,,,,,,,,,,,,,
,,,,,,,,,,,,599de70d8a6cc5000128f980,001,3,2025-04-15_10h54.12.410,avatar_quest_3AFC_legacy,2022.1.3,Win32,60.60606061,599de70d8a6cc5000128f980,67fe6e666cecbc9329ddf6d6,67fe72542cdd2ff9ed0a9360,,,,,,,,,,,,,,,,,,,,,,With Brainslug No Barriers No Money,0,images/assets/snowy_original.jpg,learning,10,images/assets/success.jpg,images/assets/gameover.jpg,,,,,,,,,,,,,0,8,8,5,1,,,,,,,,,,,,,,,,,,,,,,,,,,,,,,,,
,,,,,,,,,,,,599de70d8a6cc5000128f980,001,3,2025-04-15_10h54.12.410,avatar_quest_3AFC_legacy,2022.1.3,Win32,60.60606061,599de70d8a6cc5000128f980,67fe6e666cecbc9329ddf6d6,67fe72542cdd2ff9ed0a9360,,,,,,,,,,,,,,,,,,,,,,No Brainslug Difficult 1 No Money,6,images/assets/snowy_original.jpg,learning,20,images/assets/success.jpg,images/assets/gameover.jpg,,,,,,,,,,,,,0,9,9,6,1,,,,,,,,,,,,,,,,,,,,,,,,,,,,,,,,
,,,,,,,,,,,,599de70d8a6cc5000128f980,001,3,2025-04-15_10h54.12.410,avatar_quest_3AFC_legacy,2022.1.3,Win32,60.60606061,599de70d8a6cc5000128f980,67fe6e666cecbc9329ddf6d6,67fe72542cdd2ff9ed0a9360,,,,,,,,,,,,,,,,,,,,,,No Brainslug Difficult 2 With Money,12,images/assets/snowy_money.jpg,learning,20,images/assets/success_money.jpg,images/assets/gameover.jpg,,,,,,,,,,,,,0,10,10,7,1,,,,,,,,,,,,,,,,,,,,,,,,,,,,,,,,
,,,,,,,,,,,,599de70d8a6cc5000128f980,001,3,2025-04-15_10h54.12.410,avatar_quest_3AFC_legacy,2022.1.3,Win32,60.60606061,599de70d8a6cc5000128f980,67fe6e666cecbc9329ddf6d6,67fe72542cdd2ff9ed0a9360,,,,,,,,,,,,,,,,,,,,,,,,,,,,,,,,,,,,,,,,,,,,,,,,,,,,,,,0,0,0,0,1,,,,,,,,,,,,,,,,,,
,,,,,,,,,,,,599de70d8a6cc5000128f980,001,3,2025-04-15_10h54.12.410,avatar_quest_3AFC_legacy,2022.1.3,Win32,60.60606061,599de70d8a6cc5000128f980,67fe6e666cecbc9329ddf6d6,67fe72542cdd2ff9ed0a9360,,,,,,,,,,,,,,,,,,,,,,With Brainslug No Barriers No Money,0,images/assets/snowy_original.jpg,learning,10,images/assets/success.jpg,images/assets/gameover.jpg,,,,,,,,With Brainslug Difficult 2 With Money,With Brainslug Difficult 1 No Money,right,2.0969,"[""With Brainslug Difficult 1 No Money"",""With Brainslug Difficult 2 No Money""]",0,0,0,5,1,,,,,,,,,,,,,,,,,,,,,,,,,,,,,,,,
,,,,,,,,,,,,599de70d8a6cc5000128f980,001,3,2025-04-15_10h54.12.410,avatar_quest_3AFC_legacy,2022.1.3,Win32,60.60606061,599de70d8a6cc5000128f980,67fe6e666cecbc9329ddf6d6,67fe72542cdd2ff9ed0a9360,,,,,,,,,,,,,,,,,,,,,,With Brainslug Difficult 1 No Money,6,images/assets/snowy_original.jpg,learning,20,images/assets/success.jpg,images/assets/gameover.jpg,,,,,,,,,,,,,0,1,1,1,1,,,,,,,,,,,,,,,,,,,,,,,,,,,,,,,,
,,,,,,,,,,,,599de70d8a6cc5000128f980,001,3,2025-04-15_10h54.12.410,avatar_quest_3AFC_legacy,2022.1.3,Win32,60.60606061,599de70d8a6cc5000128f980,67fe6e666cecbc9329ddf6d6,67fe72542cdd2ff9ed0a9360,,,,,,,,,,,,,,,,,,,,,,No Brainslug Difficult 2 No Money,12,images/assets/snowy_original.jpg,learning,20,images/assets/success.jpg,images/assets/gameover.jpg,,,,,,,,,,,,,0,2,2,8,1,,,,,,,,,,,,,,,,,,,,,,,,,,,,,,,,
,,,,,,,,,,,,599de70d8a6cc5000128f980,001,3,2025-04-15_10h54.12.410,avatar_quest_3AFC_legacy,2022.1.3,Win32,60.60606061,599de70d8a6cc5000128f980,67fe6e666cecbc9329ddf6d6,67fe72542cdd2ff9ed0a9360,,,,,,,,,,,,,,,,,,,,,,No Brainslug Difficult 1 No Money,6,images/assets/snowy_original.jpg,learning,20,images/assets/success.jpg,images/assets/gameover.jpg,,,,,,,,,,,,,0,3,3,6,1,,,,,,,,,,,,,,,,,,,,,,,,,,,,,,,,
,,,,,,,,,,,,599de70d8a6cc5000128f980,001,3,2025-04-15_10h54.12.410,avatar_quest_3AFC_legacy,2022.1.3,Win32,60.60606061,599de70d8a6cc5000128f980,67fe6e666cecbc9329ddf6d6,67fe72542cdd2ff9ed0a9360,"[""right"",""left"",""left"",""left"",""left"",""right"",""right"",""left"",""left"",""left"",""right"",""right"",""right"",""right"",""left"",""left"",""right"",""left"",""left"",""left"",""right"",""left"",""right"",""right"",""left"",""left"",""left"",""left"",""left"",""left""]","[0.9016000000238478,1.5208000000715174,1.8524999999999636,2.097100000023829,2.3477000000476664,2.650800000071513,2.9694999999999823,3.342400000095381,3.5913000000714987,3.860300000071504,4.313400000095385,4.672200000047667,4.940800000071533,5.188100000023837,5.489600000023813,5.800400000095351,5.966700000047695,6.069300000071507,6.391500000000008,6.721000000000004,7.0178000000715315,7.247900000095342,7.4214999999999804,7.620999999999981,7.839300000071489,8.039300000071535,8.222300000071527,8.422900000095353,8.619500000000016,8.805300000071497]",,calibration,With Brainslug Difficult 2 With Money,5,9.06325,9.0672,16,7,0,FALSE,na,na,na,na,,,,,,,,,,,,,,,,,,,,,,,,,,,,,,,,,,0,0,0,0,1,,,,,,,,,,,,,,,,,,,,,,,
,,,,,,,,,,,,599de70d8a6cc5000128f980,001,3,2025-04-15_10h54.12.410,avatar_quest_3AFC_legacy,2022.1.3,Win32,60.60606061,599de70d8a6cc5000128f980,67fe6e666cecbc9329ddf6d6,67fe72542cdd2ff9ed0a9360,,,,,,,,,,,,,,,,,,,,,,With Brainslug Difficult 2 With Money,12,images/assets/snowy_money.jpg,learning,20,images/assets/success_money.jpg,images/assets/gameover.jpg,,,,,,,,,,,,,0,4,4,2,1,,,,,,,,,,,,,,,,,,,,,,,,,,,,,,,,
,,,,,,,,,,,,599de70d8a6cc5000128f980,001,3,2025-04-15_10h54.12.410,avatar_quest_3AFC_legacy,2022.1.3,Win32,60.60606061,599de70d8a6cc5000128f980,67fe6e666cecbc9329ddf6d6,67fe72542cdd2ff9ed0a9360,,,,,,,,,,,,,,,,,,,,,,With Brainslug No Barriers With Money,0,images/assets/snowy_money.jpg,learning,10,images/assets/success_money.jpg,images/assets/gameover.jpg,,,,,,,,,,,,,0,5,5,4,1,,,,,,,,,,,,,,,,,,,,,,,,,,,,,,,,
,,,,,,,,,,,,599de70d8a6cc5000128f980,001,3,2025-04-15_10h54.12.410,avatar_quest_3AFC_legacy,2022.1.3,Win32,60.60606061,599de70d8a6cc5000128f980,67fe6e666cecbc9329ddf6d6,67fe72542cdd2ff9ed0a9360,,,,,,,,,,,,,,,,,,,,,,No Brainslug No Barriers With Money,0,images/assets/snowy_money.jpg,learning,10,images/assets/success_money.jpg,images/assets/gameover.jpg,,,,,,,,,,,,,0,6,6,9,1,,,,,,,,,,,,,,,,,,,,,,,,,,,,,,,,
,,,,,,,,,,,,599de70d8a6cc5000128f980,001,3,2025-04-15_10h54.12.410,avatar_quest_3AFC_legacy,2022.1.3,Win32,60.60606061,599de70d8a6cc5000128f980,67fe6e666cecbc9329ddf6d6,67fe72542cdd2ff9ed0a9360,,,,,,,,,,,,,,,,,,,,,,With Brainslug Difficult 1 With Money,6,images/assets/snowy_money.jpg,learning,20,images/assets/success_money.jpg,images/assets/gameover.jpg,,,,,,,,,,,,,0,7,7,0,1,,,,,,,,,,,,,,,,,,,,,,,,,,,,,,,,
,,,,,,,,,,,,599de70d8a6cc5000128f980,001,3,2025-04-15_10h54.12.410,avatar_quest_3AFC_legacy,2022.1.3,Win32,60.60606061,599de70d8a6cc5000128f980,67fe6e666cecbc9329ddf6d6,67fe72542cdd2ff9ed0a9360,,,,,,,,,,,,,,,,,,,,,,No Brainslug Difficult 2 With Money,12,images/assets/snowy_money.jpg,learning,20,images/assets/success_money.jpg,images/assets/gameover.jpg,,,,,,,,,,,,,0,8,8,7,1,,,,,,,,,,,,,,,,,,,,,,,,,,,,,,,,
,,,,,,,,,,,,599de70d8a6cc5000128f980,001,3,2025-04-15_10h54.12.410,avatar_quest_3AFC_legacy,2022.1.3,Win32,60.60606061,599de70d8a6cc5000128f980,67fe6e666cecbc9329ddf6d6,67fe72542cdd2ff9ed0a9360,,,,,,,,,,,,,,,,,,,,,,With Brainslug Difficult 2 No Money,12,images/assets/snowy_original.jpg,learning,20,images/assets/success.jpg,images/assets/gameover.jpg,,,,,,,,,,,,,0,9,9,3,1,,,,,,,,,,,,,,,,,,,,,,,,,,,,,,,,
,,,,,,,,,,,,599de70d8a6cc5000128f980,001,3,2025-04-15_10h54.12.410,avatar_quest_3AFC_legacy,2022.1.3,Win32,60.60606061,599de70d8a6cc5000128f980,67fe6e666cecbc9329ddf6d6,67fe72542cdd2ff9ed0a9360,,,,,,,,,,,,,,,,,,,,,,No Brainslug No Barriers No Money,0,images/assets/snowy_original.jpg,learning,10,images/assets/success.jpg,images/assets/gameover.jpg,,,,,,,,,,,,,0,10,10,10,1,,,,,,,,,,,,,,,,,,,,,,,,,,,,,,,,
,,,,,,,,,,,,599de70d8a6cc5000128f980,001,3,2025-04-15_10h54.12.410,avatar_quest_3AFC_legacy,2022.1.3,Win32,60.60606061,599de70d8a6cc5000128f980,67fe6e666cecbc9329ddf6d6,67fe72542cdd2ff9ed0a9360,,,,,,,,,,,,,,,,,,,,,,,,,,,,,,,,,,,,,,,,,,,,,,,,,,,,,,,1,0,1,0,1,,,,,,,,,,,,,,,,,,
,,,,,,,,,,,,599de70d8a6cc5000128f980,001,3,2025-04-15_10h54.12.410,avatar_quest_3AFC_legacy,2022.1.3,Win32,60.60606061,599de70d8a6cc5000128f980,67fe6e666cecbc9329ddf6d6,67fe72542cdd2ff9ed0a9360,,,,,,,,,,,,,,,,,,,,,,With Brainslug Difficult 2 No Money,12,images/assets/snowy_original.jpg,learning,20,images/assets/success.jpg,images/assets/gameover.jpg,,,,,,,,With Brainslug Difficult 2 With Money,With Brainslug Difficult 1 No Money,right,2.5427,"[""With Brainslug Difficult 1 No Money"",""With Brainslug Difficult 2 No Money""]",0,0,0,3,1,,,,,,,,,,,,,,,,,,,,,,,,,,,,,,,,
,,,,,,,,,,,,599de70d8a6cc5000128f980,001,3,2025-04-15_10h54.12.410,avatar_quest_3AFC_legacy,2022.1.3,Win32,60.60606061,599de70d8a6cc5000128f980,67fe6e666cecbc9329ddf6d6,67fe72542cdd2ff9ed0a9360,,,,,,,,,,,,,,,,,,,,,,With Brainslug Difficult 1 With Money,6,images/assets/snowy_money.jpg,learning,20,images/assets/success_money.jpg,images/assets/gameover.jpg,,,,,,,,,,,,,0,1,1,0,1,,,,,,,,,,,,,,,,,,,,,,,,,,,,,,,,
,,,,,,,,,,,,599de70d8a6cc5000128f980,001,3,2025-04-15_10h54.12.410,avatar_quest_3AFC_legacy,2022.1.3,Win32,60.60606061,599de70d8a6cc5000128f980,67fe6e666cecbc9329ddf6d6,67fe72542cdd2ff9ed0a9360,,,,,,,,,,,,,,,,,,,,,,With Brainslug No Barriers No Money,0,images/assets/snowy_original.jpg,learning,10,images/assets/success.jpg,images/assets/gameover.jpg,,,,,,,,,,,,,0,2,2,5,1,,,,,,,,,,,,,,,,,,,,,,,,,,,,,,,,
,,,,,,,,,,,,599de70d8a6cc5000128f980,001,3,2025-04-15_10h54.12.410,avatar_quest_3AFC_legacy,2022.1.3,Win32,60.60606061,599de70d8a6cc5000128f980,67fe6e666cecbc9329ddf6d6,67fe72542cdd2ff9ed0a9360,,,,,,,,,,,,,,,,,,,,,,No Brainslug Difficult 1 No Money,6,images/assets/snowy_original.jpg,learning,20,images/assets/success.jpg,images/assets/gameover.jpg,,,,,,,,,,,,,0,3,3,6,1,,,,,,,,,,,,,,,,,,,,,,,,,,,,,,,,
,,,,,,,,,,,,599de70d8a6cc5000128f980,001,3,2025-04-15_10h54.12.410,avatar_quest_3AFC_legacy,2022.1.3,Win32,60.60606061,599de70d8a6cc5000128f980,67fe6e666cecbc9329ddf6d6,67fe72542cdd2ff9ed0a9360,,,,,,,,,,,,,,,,,,,,,,With Brainslug No Barriers With Money,0,images/assets/snowy_money.jpg,learning,10,images/assets/success_money.jpg,images/assets/gameover.jpg,,,,,,,,,,,,,0,4,4,4,1,,,,,,,,,,,,,,,,,,,,,,,,,,,,,,,,
,,,,,,,,,,,,599de70d8a6cc5000128f980,001,3,2025-04-15_10h54.12.410,avatar_quest_3AFC_legacy,2022.1.3,Win32,60.60606061,599de70d8a6cc5000128f980,67fe6e666cecbc9329ddf6d6,67fe72542cdd2ff9ed0a9360,,,,,,,,,,,,,,,,,,,,,,With Brainslug Difficult 1 No Money,6,images/assets/snowy_original.jpg,learning,20,images/assets/success.jpg,images/assets/gameover.jpg,,,,,,,,,,,,,0,5,5,1,1,,,,,,,,,,,,,,,,,,,,,,,,,,,,,,,,
,,,,,,,,,,,,599de70d8a6cc5000128f980,001,3,2025-04-15_10h54.12.410,avatar_quest_3AFC_legacy,2022.1.3,Win32,60.60606061,599de70d8a6cc5000128f980,67fe6e666cecbc9329ddf6d6,67fe72542cdd2ff9ed0a9360,,,,,,,,,,,,,,,,,,,,,,No Brainslug Difficult 2 No Money,12,images/assets/snowy_original.jpg,learning,20,images/assets/success.jpg,images/assets/gameover.jpg,,,,,,,,,,,,,0,6,6,8,1,,,,,,,,,,,,,,,,,,,,,,,,,,,,,,,,
,,,,,,,,,,,,599de70d8a6cc5000128f980,001,3,2025-04-15_10h54.12.410,avatar_quest_3AFC_legacy,2022.1.3,Win32,60.60606061,599de70d8a6cc5000128f980,67fe6e666cecbc9329ddf6d6,67fe72542cdd2ff9ed0a9360,"[""left"",""left"",""right"",""right"",""left"",""left"",""left"",""right"",""right"",""left"",""left"",""left"",""left"",""left"",""left"",""left"",""right"",""right"",""right"",""right"",""right"",""left"",""left"",""left""]","[1.2742999999522908,1.7317999999523295,2.163799999952289,2.5617999999523136,3.1587999999522935,3.8938999999761563,4.277100000023836,4.575699999928474,4.9367999999523136,5.215899999976159,5.448399999976175,5.642399999976135,5.8870000000000005,6.09699999999998,6.432299999952306,6.767100000023845,7.048999999999978,7.3296999999284935,7.560999999999979,7.826899999976149,8.104100000023834,8.414299999952334,8.613600000023837,8.880499999999984]",,calibration,With Brainslug Difficult 2 With Money,6,9.06325,9.0665,10,7,0,FALSE,na,na,na,na,,,,,,,,,,,,,,,,,,,,,,,,,,,,,,,,,,0,0,0,0,1,,,,,,,,,,,,,,,,,,,,,,,
,,,,,,,,,,,,599de70d8a6cc5000128f980,001,3,2025-04-15_10h54.12.410,avatar_quest_3AFC_legacy,2022.1.3,Win32,60.60606061,599de70d8a6cc5000128f980,67fe6e666cecbc9329ddf6d6,67fe72542cdd2ff9ed0a9360,,,,,,,,,,,,,,,,,,,,,,With Brainslug Difficult 2 With Money,12,images/assets/snowy_money.jpg,learning,20,images/assets/success_money.jpg,images/assets/gameover.jpg,,,,,,,,,,,,,0,7,7,2,1,,,,,,,,,,,,,,,,,,,,,,,,,,,,,,,,
,,,,,,,,,,,,599de70d8a6cc5000128f980,001,3,2025-04-15_10h54.12.410,avatar_quest_3AFC_legacy,2022.1.3,Win32,60.60606061,599de70d8a6cc5000128f980,67fe6e666cecbc9329ddf6d6,67fe72542cdd2ff9ed0a9360,,,,,,,,,,,,,,,,,,,,,,No Brainslug No Barriers No Money,0,images/assets/snowy_original.jpg,learning,10,images/assets/success.jpg,images/assets/gameover.jpg,,,,,,,,,,,,,0,8,8,10,1,,,,,,,,,,,,,,,,,,,,,,,,,,,,,,,,
,,,,,,,,,,,,599de70d8a6cc5000128f980,001,3,2025-04-15_10h54.12.410,avatar_quest_3AFC_legacy,2022.1.3,Win32,60.60606061,599de70d8a6cc5000128f980,67fe6e666cecbc9329ddf6d6,67fe72542cdd2ff9ed0a9360,,,,,,,,,,,,,,,,,,,,,,No Brainslug Difficult 2 With Money,12,images/assets/snowy_money.jpg,learning,20,images/assets/success_money.jpg,images/assets/gameover.jpg,,,,,,,,,,,,,0,9,9,7,1,,,,,,,,,,,,,,,,,,,,,,,,,,,,,,,,
,,,,,,,,,,,,599de70d8a6cc5000128f980,001,3,2025-04-15_10h54.12.410,avatar_quest_3AFC_legacy,2022.1.3,Win32,60.60606061,599de70d8a6cc5000128f980,67fe6e666cecbc9329ddf6d6,67fe72542cdd2ff9ed0a9360,,,,,,,,,,,,,,,,,,,,,,No Brainslug No Barriers With Money,0,images/assets/snowy_money.jpg,learning,10,images/assets/success_money.jpg,images/assets/gameover.jpg,,,,,,,,,,,,,0,10,10,9,1,,,,,,,,,,,,,,,,,,,,,,,,,,,,,,,,
,,,,,,,,,,,,599de70d8a6cc5000128f980,001,3,2025-04-15_10h54.12.410,avatar_quest_3AFC_legacy,2022.1.3,Win32,60.60606061,599de70d8a6cc5000128f980,67fe6e666cecbc9329ddf6d6,67fe72542cdd2ff9ed0a9360,,,,,,,,,,,,,,,,,,,,,,,,,,,,,,,,,,,,,,,,,,,,,,,,,,,,,,,2,0,2,0,1,,,,,,,,,,,,,,,,,,
,,,,,,,,,,,,599de70d8a6cc5000128f980,001,3,2025-04-15_10h54.12.410,avatar_quest_3AFC_legacy,2022.1.3,Win32,60.60606061,599de70d8a6cc5000128f980,67fe6e666cecbc9329ddf6d6,67fe72542cdd2ff9ed0a9360,,,,,,,,,,,,,,,,,,,,,,No Brainslug No Barriers With Money,0,images/assets/snowy_money.jpg,learning,10,images/assets/success_money.jpg,images/assets/gameover.jpg,,,,,,,,With Brainslug Difficult 2 With Money,With Brainslug Difficult 1 No Money,right,0.8658,"[""With Brainslug Difficult 1 No Money"",""With Brainslug Difficult 2 No Money""]",0,0,0,9,1,,,,,,,,,,,,,,,,,,,,,,,,,,,,,,,,
,,,,,,,,,,,,599de70d8a6cc5000128f980,001,3,2025-04-15_10h54.12.410,avatar_quest_3AFC_legacy,2022.1.3,Win32,60.60606061,599de70d8a6cc5000128f980,67fe6e666cecbc9329ddf6d6,67fe72542cdd2ff9ed0a9360,,,,,,,,,,,,,,,,,,,,,,With Brainslug Difficult 2 No Money,12,images/assets/snowy_original.jpg,learning,20,images/assets/success.jpg,images/assets/gameover.jpg,,,,,,,,,,,,,0,1,1,3,1,,,,,,,,,,,,,,,,,,,,,,,,,,,,,,,,
,,,,,,,,,,,,599de70d8a6cc5000128f980,001,3,2025-04-15_10h54.12.410,avatar_quest_3AFC_legacy,2022.1.3,Win32,60.60606061,599de70d8a6cc5000128f980,67fe6e666cecbc9329ddf6d6,67fe72542cdd2ff9ed0a9360,,,,,,,,,,,,,,,,,,,,,,With Brainslug No Barriers No Money,0,images/assets/snowy_original.jpg,learning,10,images/assets/success.jpg,images/assets/gameover.jpg,,,,,,,,,,,,,0,2,2,5,1,,,,,,,,,,,,,,,,,,,,,,,,,,,,,,,,
,,,,,,,,,,,,599de70d8a6cc5000128f980,001,3,2025-04-15_10h54.12.410,avatar_quest_3AFC_legacy,2022.1.3,Win32,60.60606061,599de70d8a6cc5000128f980,67fe6e666cecbc9329ddf6d6,67fe72542cdd2ff9ed0a9360,"[""left"",""left"",""left"",""left"",""right"",""right"",""right"",""right"",""right"",""right"",""right"",""right"",""right"",""right"",""right"",""left"",""left"",""left"",""right"",""right"",""right"",""right"",""right"",""left"",""left""]","[1.4873999999761622,1.9606999999285222,2.2270000000000323,2.6392999999523568,2.924399999976174,3.2248999999761736,3.489399999976172,3.764899999976194,4.002100000023859,4.2527999999523445,4.492600000023856,5.044100000023889,5.379299999952366,5.683399999976189,5.992899999976203,6.076100000023871,6.308899999976177,6.611500000000035,7.076600000023859,7.317899999976191,7.535299999952315,7.791399999976193,8.10450000000003,8.55989999997621,8.770699999928524]",,calibration,With Brainslug Difficult 2 With Money,7,9.06325,9.0682,14,6,0,FALSE,na,na,na,na,,,,,,,,,,,,,,,,,,,,,,,,,,,,,,,,,,0,0,0,0,1,,,,,,,,,,,,,,,,,,,,,,,
,,,,,,,,,,,,599de70d8a6cc5000128f980,001,3,2025-04-15_10h54.12.410,avatar_quest_3AFC_legacy,2022.1.3,Win32,60.60606061,599de70d8a6cc5000128f980,67fe6e666cecbc9329ddf6d6,67fe72542cdd2ff9ed0a9360,,,,,,,,,,,,,,,,,,,,,,With Brainslug Difficult 2 With Money,12,images/assets/snowy_money.jpg,learning,20,images/assets/success_money.jpg,images/assets/gameover.jpg,,,,,,,,,,,,,0,3,3,2,1,,,,,,,,,,,,,,,,,,,,,,,,,,,,,,,,
,,,,,,,,,,,,599de70d8a6cc5000128f980,001,3,2025-04-15_10h54.12.410,avatar_quest_3AFC_legacy,2022.1.3,Win32,60.60606061,599de70d8a6cc5000128f980,67fe6e666cecbc9329ddf6d6,67fe72542cdd2ff9ed0a9360,,,,,,,,,,,,,,,,,,,,,,With Brainslug Difficult 1 With Money,6,images/assets/snowy_money.jpg,learning,20,images/assets/success_money.jpg,images/assets/gameover.jpg,,,,,,,,,,,,,0,4,4,0,1,,,,,,,,,,,,,,,,,,,,,,,,,,,,,,,,
,,,,,,,,,,,,599de70d8a6cc5000128f980,001,3,2025-04-15_10h54.12.410,avatar_quest_3AFC_legacy,2022.1.3,Win32,60.60606061,599de70d8a6cc5000128f980,67fe6e666cecbc9329ddf6d6,67fe72542cdd2ff9ed0a9360,,,,,,,,,,,,,,,,,,,,,,With Brainslug No Barriers With Money,0,images/assets/snowy_money.jpg,learning,10,images/assets/success_money.jpg,images/assets/gameover.jpg,,,,,,,,,,,,,0,5,5,4,1,,,,,,,,,,,,,,,,,,,,,,,,,,,,,,,,
,,,,,,,,,,,,599de70d8a6cc5000128f980,001,3,2025-04-15_10h54.12.410,avatar_quest_3AFC_legacy,2022.1.3,Win32,60.60606061,599de70d8a6cc5000128f980,67fe6e666cecbc9329ddf6d6,67fe72542cdd2ff9ed0a9360,,,,,,,,,,,,,,,,,,,,,,With Brainslug Difficult 1 No Money,6,images/assets/snowy_original.jpg,learning,20,images/assets/success.jpg,images/assets/gameover.jpg,,,,,,,,,,,,,0,6,6,1,1,,,,,,,,,,,,,,,,,,,,,,,,,,,,,,,,
,,,,,,,,,,,,599de70d8a6cc5000128f980,001,3,2025-04-15_10h54.12.410,avatar_quest_3AFC_legacy,2022.1.3,Win32,60.60606061,599de70d8a6cc5000128f980,67fe6e666cecbc9329ddf6d6,67fe72542cdd2ff9ed0a9360,,,,,,,,,,,,,,,,,,,,,,No Brainslug Difficult 2 With Money,12,images/assets/snowy_money.jpg,learning,20,images/assets/success_money.jpg,images/assets/gameover.jpg,,,,,,,,,,,,,0,7,7,7,1,,,,,,,,,,,,,,,,,,,,,,,,,,,,,,,,
,,,,,,,,,,,,599de70d8a6cc5000128f980,001,3,2025-04-15_10h54.12.410,avatar_quest_3AFC_legacy,2022.1.3,Win32,60.60606061,599de70d8a6cc5000128f980,67fe6e666cecbc9329ddf6d6,67fe72542cdd2ff9ed0a9360,,,,,,,,,,,,,,,,,,,,,,No Brainslug Difficult 1 No Money,6,images/assets/snowy_original.jpg,learning,20,images/assets/success.jpg,images/assets/gameover.jpg,,,,,,,,,,,,,0,8,8,6,1,,,,,,,,,,,,,,,,,,,,,,,,,,,,,,,,
,,,,,,,,,,,,599de70d8a6cc5000128f980,001,3,2025-04-15_10h54.12.410,avatar_quest_3AFC_legacy,2022.1.3,Win32,60.60606061,599de70d8a6cc5000128f980,67fe6e666cecbc9329ddf6d6,67fe72542cdd2ff9ed0a9360,,,,,,,,,,,,,,,,,,,,,,No Brainslug Difficult 2 No Money,12,images/assets/snowy_original.jpg,learning,20,images/assets/success.jpg,images/assets/gameover.jpg,,,,,,,,,,,,,0,9,9,8,1,,,,,,,,,,,,,,,,,,,,,,,,,,,,,,,,
,,,,,,,,,,,,599de70d8a6cc5000128f980,001,3,2025-04-15_10h54.12.410,avatar_quest_3AFC_legacy,2022.1.3,Win32,60.60606061,599de70d8a6cc5000128f980,67fe6e666cecbc9329ddf6d6,67fe72542cdd2ff9ed0a9360,,,,,,,,,,,,,,,,,,,,,,No Brainslug No Barriers No Money,0,images/assets/snowy_original.jpg,learning,10,images/assets/success.jpg,images/assets/gameover.jpg,,,,,,,,,,,,,0,10,10,10,1,,,,,,,,,,,,,,,,,,,,,,,,,,,,,,,,
,,,,,,,,,,,,599de70d8a6cc5000128f980,001,3,2025-04-15_10h54.12.410,avatar_quest_3AFC_legacy,2022.1.3,Win32,60.60606061,599de70d8a6cc5000128f980,67fe6e666cecbc9329ddf6d6,67fe72542cdd2ff9ed0a9360,,,,,,,,,,,,,,,,,,,,,,,,,,,,,,,,,,,,,,,,,,,,,,,,,,,,,,,3,0,3,0,1,,,,,,,,,,,,,,,,,,
,,,,,,,,,,,,599de70d8a6cc5000128f980,001,3,2025-04-15_10h54.12.410,avatar_quest_3AFC_legacy,2022.1.3,Win32,60.60606061,599de70d8a6cc5000128f980,67fe6e666cecbc9329ddf6d6,67fe72542cdd2ff9ed0a9360,,,,,,,,,,,,,,,,,,,,,,No Brainslug No Barriers With Money,0,images/assets/snowy_money.jpg,learning,10,images/assets/success_money.jpg,images/assets/gameover.jpg,,,,,,,,With Brainslug Difficult 2 With Money,With Brainslug Difficult 1 No Money,right,0.6464,"[""With Brainslug Difficult 1 No Money"",""With Brainslug Difficult 2 No Money""]",0,0,0,9,1,,,,,,,,,,,,,,,,,,,,,,,,,,,,,,,,
,,,,,,,,,,,,599de70d8a6cc5000128f980,001,3,2025-04-15_10h54.12.410,avatar_quest_3AFC_legacy,2022.1.3,Win32,60.60606061,599de70d8a6cc5000128f980,67fe6e666cecbc9329ddf6d6,67fe72542cdd2ff9ed0a9360,,,,,,,,,,,,,,,,,,,,,,With Brainslug Difficult 2 No Money,12,images/assets/snowy_original.jpg,learning,20,images/assets/success.jpg,images/assets/gameover.jpg,,,,,,,,,,,,,0,1,1,3,1,,,,,,,,,,,,,,,,,,,,,,,,,,,,,,,,
,,,,,,,,,,,,599de70d8a6cc5000128f980,001,3,2025-04-15_10h54.12.410,avatar_quest_3AFC_legacy,2022.1.3,Win32,60.60606061,599de70d8a6cc5000128f980,67fe6e666cecbc9329ddf6d6,67fe72542cdd2ff9ed0a9360,,,,,,,,,,,,,,,,,,,,,,With Brainslug No Barriers With Money,0,images/assets/snowy_money.jpg,learning,10,images/assets/success_money.jpg,images/assets/gameover.jpg,,,,,,,,,,,,,0,2,2,4,1,,,,,,,,,,,,,,,,,,,,,,,,,,,,,,,,
,,,,,,,,,,,,599de70d8a6cc5000128f980,001,3,2025-04-15_10h54.12.410,avatar_quest_3AFC_legacy,2022.1.3,Win32,60.60606061,599de70d8a6cc5000128f980,67fe6e666cecbc9329ddf6d6,67fe72542cdd2ff9ed0a9360,,,,,,,,,,,,,,,,,,,,,,No Brainslug No Barriers No Money,0,images/assets/snowy_original.jpg,learning,10,images/assets/success.jpg,images/assets/gameover.jpg,,,,,,,,,,,,,0,3,3,10,1,,,,,,,,,,,,,,,,,,,,,,,,,,,,,,,,
,,,,,,,,,,,,599de70d8a6cc5000128f980,001,3,2025-04-15_10h54.12.410,avatar_quest_3AFC_legacy,2022.1.3,Win32,60.60606061,599de70d8a6cc5000128f980,67fe6e666cecbc9329ddf6d6,67fe72542cdd2ff9ed0a9360,,,,,,,,,,,,,,,,,,,,,,With Brainslug No Barriers No Money,0,images/assets/snowy_original.jpg,learning,10,images/assets/success.jpg,images/assets/gameover.jpg,,,,,,,,,,,,,0,4,4,5,1,,,,,,,,,,,,,,,,,,,,,,,,,,,,,,,,
,,,,,,,,,,,,599de70d8a6cc5000128f980,001,3,2025-04-15_10h54.12.410,avatar_quest_3AFC_legacy,2022.1.3,Win32,60.60606061,599de70d8a6cc5000128f980,67fe6e666cecbc9329ddf6d6,67fe72542cdd2ff9ed0a9360,,,,,,,,,,,,,,,,,,,,,,With Brainslug Difficult 1 With Money,6,images/assets/snowy_money.jpg,learning,20,images/assets/success_money.jpg,images/assets/gameover.jpg,,,,,,,,,,,,,0,5,5,0,1,,,,,,,,,,,,,,,,,,,,,,,,,,,,,,,,
,,,,,,,,,,,,599de70d8a6cc5000128f980,001,3,2025-04-15_10h54.12.410,avatar_quest_3AFC_legacy,2022.1.3,Win32,60.60606061,599de70d8a6cc5000128f980,67fe6e666cecbc9329ddf6d6,67fe72542cdd2ff9ed0a9360,,,,,,,,,,,,,,,,,,,,,,With Brainslug Difficult 1 No Money,6,images/assets/snowy_original.jpg,learning,20,images/assets/success.jpg,images/assets/gameover.jpg,,,,,,,,,,,,,0,6,6,1,1,,,,,,,,,,,,,,,,,,,,,,,,,,,,,,,,
,,,,,,,,,,,,599de70d8a6cc5000128f980,001,3,2025-04-15_10h54.12.410,avatar_quest_3AFC_legacy,2022.1.3,Win32,60.60606061,599de70d8a6cc5000128f980,67fe6e666cecbc9329ddf6d6,67fe72542cdd2ff9ed0a9360,"[""right"",""left"",""right"",""left"",""left"",""left"",""right"",""right"",""left"",""left"",""right"",""right"",""right"",""right"",""right"",""left"",""left"",""left"",""left"",""left"",""left"",""left"",""left"",""left""]","[0.858799999952339,1.5670000000000073,2.1129999999999995,2.768399999976168,3.2633999999761727,3.663499999999999,4.429600000023868,4.881500000000017,5.434600000023863,5.850700000047709,6.055399999976146,6.3943999999761445,6.691299999952321,7.014200000047708,7.332600000023831,7.486399999976186,7.7527999999523445,7.9495000000000005,8.144100000023855,8.331600000023855,8.486399999976186,8.639700000047696,8.7862000000477,8.964799999952334]",,calibration,With Brainslug Difficult 2 With Money,8,9.06325,9.0678,11,9,0,FALSE,na,na,na,na,,,,,,,,,,,,,,,,,,,,,,,,,,,,,,,,,,0,0,0,0,1,,,,,,,,,,,,,,,,,,,,,,,
,,,,,,,,,,,,599de70d8a6cc5000128f980,001,3,2025-04-15_10h54.12.410,avatar_quest_3AFC_legacy,2022.1.3,Win32,60.60606061,599de70d8a6cc5000128f980,67fe6e666cecbc9329ddf6d6,67fe72542cdd2ff9ed0a9360,,,,,,,,,,,,,,,,,,,,,,With Brainslug Difficult 2 With Money,12,images/assets/snowy_money.jpg,learning,20,images/assets/success_money.jpg,images/assets/gameover.jpg,,,,,,,,,,,,,0,7,7,2,1,,,,,,,,,,,,,,,,,,,,,,,,,,,,,,,,
,,,,,,,,,,,,599de70d8a6cc5000128f980,001,3,2025-04-15_10h54.12.410,avatar_quest_3AFC_legacy,2022.1.3,Win32,60.60606061,599de70d8a6cc5000128f980,67fe6e666cecbc9329ddf6d6,67fe72542cdd2ff9ed0a9360,,,,,,,,,,,,,,,,,,,,,,No Brainslug Difficult 1 No Money,6,images/assets/snowy_original.jpg,learning,20,images/assets/success.jpg,images/assets/gameover.jpg,,,,,,,,,,,,,0,8,8,6,1,,,,,,,,,,,,,,,,,,,,,,,,,,,,,,,,
,,,,,,,,,,,,599de70d8a6cc5000128f980,001,3,2025-04-15_10h54.12.410,avatar_quest_3AFC_legacy,2022.1.3,Win32,60.60606061,599de70d8a6cc5000128f980,67fe6e666cecbc9329ddf6d6,67fe72542cdd2ff9ed0a9360,,,,,,,,,,,,,,,,,,,,,,No Brainslug Difficult 2 No Money,12,images/assets/snowy_original.jpg,learning,20,images/assets/success.jpg,images/assets/gameover.jpg,,,,,,,,,,,,,0,9,9,8,1,,,,,,,,,,,,,,,,,,,,,,,,,,,,,,,,
,,,,,,,,,,,,599de70d8a6cc5000128f980,001,3,2025-04-15_10h54.12.410,avatar_quest_3AFC_legacy,2022.1.3,Win32,60.60606061,599de70d8a6cc5000128f980,67fe6e666cecbc9329ddf6d6,67fe72542cdd2ff9ed0a9360,,,,,,,,,,,,,,,,,,,,,,No Brainslug Difficult 2 With Money,12,images/assets/snowy_money.jpg,learning,20,images/assets/success_money.jpg,images/assets/gameover.jpg,,,,,,,,,,,,,0,10,10,7,1,,,,,,,,,,,,,,,,,,,,,,,,,,,,,,,,
,,,,,,,,,,,,599de70d8a6cc5000128f980,001,3,2025-04-15_10h54.12.410,avatar_quest_3AFC_legacy,2022.1.3,Win32,60.60606061,599de70d8a6cc5000128f980,67fe6e666cecbc9329ddf6d6,67fe72542cdd2ff9ed0a9360,,,,,,,,,,,,,,,,,,,,,,,,,,,,,,,,,,,,,,,,,,,,,,,,,,,,,,,4,0,4,0,1,,,,,,,,,,,,,,,,,,
,,,,,,,,,,,,599de70d8a6cc5000128f980,001,3,2025-04-15_10h54.12.410,avatar_quest_3AFC_legacy,2022.1.3,Win32,60.60606061,599de70d8a6cc5000128f980,67fe6e666cecbc9329ddf6d6,67fe72542cdd2ff9ed0a9360,"[""right"",""right"",""left"",""left"",""left"",""left"",""left"",""left"",""left"",""left"",""left"",""right"",""right"",""right"",""left"",""left"",""left"",""right"",""right"",""right"",""right"",""right"",""right"",""left"",""left"",""left"",""right"",""right"",""right"",""right"",""right"",""right"",""left"",""left"",""right"",""right"",""right""]","[0.4796000000238223,0.8973999999761304,1.2471000000238064,1.6298999999761463,1.9516999999284508,2.208100000023819,2.4914999999999736,2.8454999999999586,3.1127999999523013,3.3182999999522735,3.739100000023825,4.151999999999987,4.525100000023826,4.721199999928444,4.907699999928468,5.096199999928444,5.266799999952298,5.507799999952283,5.716199999928449,5.902999999999963,6.090899999976159,6.242600000023799,6.4249999999999545,6.625899999976127,6.833499999999958,7.013499999999965,7.1512999999523,7.3761000000238255,7.526899999976138,7.697699999928432,7.864399999976115,8.055600000023787,8.225499999999954,8.37489999997615,8.474699999928475,8.72039999997611,8.859600000023818]",,calibration,With Brainslug Difficult 2 With Money,9,9.06325,9.0765,18,6,0,FALSE,na,na,na,na,,,,,,,,,,,,,,,,,,,,With Brainslug Difficult 2 With Money,With Brainslug Difficult 1 No Money,right,0.9432,"[""With Brainslug Difficult 1 No Money"",""With Brainslug Difficult 2 No Money""]",,,,,,,,,,0,0,0,0,1,,,,,,,,,,,,,,,,,,,,,,,
,,,,,,,,,,,,599de70d8a6cc5000128f980,001,3,2025-04-15_10h54.12.410,avatar_quest_3AFC_legacy,2022.1.3,Win32,60.60606061,599de70d8a6cc5000128f980,67fe6e666cecbc9329ddf6d6,67fe72542cdd2ff9ed0a9360,,,,,,,,,,,,,,,,,,,,,,With Brainslug Difficult 2 With Money,12,images/assets/snowy_money.jpg,learning,20,images/assets/success_money.jpg,images/assets/gameover.jpg,,,,,,,,,,,,,0,0,0,2,1,,,,,,,,,,,,,,,,,,,,,,,,,,,,,,,,
,,,,,,,,,,,,599de70d8a6cc5000128f980,001,3,2025-04-15_10h54.12.410,avatar_quest_3AFC_legacy,2022.1.3,Win32,60.60606061,599de70d8a6cc5000128f980,67fe6e666cecbc9329ddf6d6,67fe72542cdd2ff9ed0a9360,,,,,,,,,,,,,,,,,,,,,,No Brainslug Difficult 1 No Money,6,images/assets/snowy_original.jpg,learning,20,images/assets/success.jpg,images/assets/gameover.jpg,,,,,,,,,,,,,0,1,1,6,1,,,,,,,,,,,,,,,,,,,,,,,,,,,,,,,,
,,,,,,,,,,,,599de70d8a6cc5000128f980,001,3,2025-04-15_10h54.12.410,avatar_quest_3AFC_legacy,2022.1.3,Win32,60.60606061,599de70d8a6cc5000128f980,67fe6e666cecbc9329ddf6d6,67fe72542cdd2ff9ed0a9360,,,,,,,,,,,,,,,,,,,,,,No Brainslug Difficult 2 No Money,12,images/assets/snowy_original.jpg,learning,20,images/assets/success.jpg,images/assets/gameover.jpg,,,,,,,,,,,,,0,2,2,8,1,,,,,,,,,,,,,,,,,,,,,,,,,,,,,,,,
,,,,,,,,,,,,599de70d8a6cc5000128f980,001,3,2025-04-15_10h54.12.410,avatar_quest_3AFC_legacy,2022.1.3,Win32,60.60606061,599de70d8a6cc5000128f980,67fe6e666cecbc9329ddf6d6,67fe72542cdd2ff9ed0a9360,,,,,,,,,,,,,,,,,,,,,,With Brainslug Difficult 2 No Money,12,images/assets/snowy_original.jpg,learning,20,images/assets/success.jpg,images/assets/gameover.jpg,,,,,,,,,,,,,0,3,3,3,1,,,,,,,,,,,,,,,,,,,,,,,,,,,,,,,,
,,,,,,,,,,,,599de70d8a6cc5000128f980,001,3,2025-04-15_10h54.12.410,avatar_quest_3AFC_legacy,2022.1.3,Win32,60.60606061,599de70d8a6cc5000128f980,67fe6e666cecbc9329ddf6d6,67fe72542cdd2ff9ed0a9360,,,,,,,,,,,,,,,,,,,,,,No Brainslug No Barriers No Money,0,images/assets/snowy_original.jpg,learning,10,images/assets/success.jpg,images/assets/gameover.jpg,,,,,,,,,,,,,0,4,4,10,1,,,,,,,,,,,,,,,,,,,,,,,,,,,,,,,,
,,,,,,,,,,,,599de70d8a6cc5000128f980,001,3,2025-04-15_10h54.12.410,avatar_quest_3AFC_legacy,2022.1.3,Win32,60.60606061,599de70d8a6cc5000128f980,67fe6e666cecbc9329ddf6d6,67fe72542cdd2ff9ed0a9360,,,,,,,,,,,,,,,,,,,,,,With Brainslug No Barriers With Money,0,images/assets/snowy_money.jpg,learning,10,images/assets/success_money.jpg,images/assets/gameover.jpg,,,,,,,,,,,,,0,5,5,4,1,,,,,,,,,,,,,,,,,,,,,,,,,,,,,,,,
,,,,,,,,,,,,599de70d8a6cc5000128f980,001,3,2025-04-15_10h54.12.410,avatar_quest_3AFC_legacy,2022.1.3,Win32,60.60606061,599de70d8a6cc5000128f980,67fe6e666cecbc9329ddf6d6,67fe72542cdd2ff9ed0a9360,,,,,,,,,,,,,,,,,,,,,,With Brainslug Difficult 1 With Money,6,images/assets/snowy_money.jpg,learning,20,images/assets/success_money.jpg,images/assets/gameover.jpg,,,,,,,,,,,,,0,6,6,0,1,,,,,,,,,,,,,,,,,,,,,,,,,,,,,,,,
,,,,,,,,,,,,599de70d8a6cc5000128f980,001,3,2025-04-15_10h54.12.410,avatar_quest_3AFC_legacy,2022.1.3,Win32,60.60606061,599de70d8a6cc5000128f980,67fe6e666cecbc9329ddf6d6,67fe72542cdd2ff9ed0a9360,,,,,,,,,,,,,,,,,,,,,,No Brainslug Difficult 2 With Money,12,images/assets/snowy_money.jpg,learning,20,images/assets/success_money.jpg,images/assets/gameover.jpg,,,,,,,,,,,,,0,7,7,7,1,,,,,,,,,,,,,,,,,,,,,,,,,,,,,,,,
,,,,,,,,,,,,599de70d8a6cc5000128f980,001,3,2025-04-15_10h54.12.410,avatar_quest_3AFC_legacy,2022.1.3,Win32,60.60606061,599de70d8a6cc5000128f980,67fe6e666cecbc9329ddf6d6,67fe72542cdd2ff9ed0a9360,,,,,,,,,,,,,,,,,,,,,,With Brainslug No Barriers No Money,0,images/assets/snowy_original.jpg,learning,10,images/assets/success.jpg,images/assets/gameover.jpg,,,,,,,,,,,,,0,8,8,5,1,,,,,,,,,,,,,,,,,,,,,,,,,,,,,,,,
,,,,,,,,,,,,599de70d8a6cc5000128f980,001,3,2025-04-15_10h54.12.410,avatar_quest_3AFC_legacy,2022.1.3,Win32,60.60606061,599de70d8a6cc5000128f980,67fe6e666cecbc9329ddf6d6,67fe72542cdd2ff9ed0a9360,,,,,,,,,,,,,,,,,,,,,,With Brainslug Difficult 1 No Money,6,images/assets/snowy_original.jpg,learning,20,images/assets/success.jpg,images/assets/gameover.jpg,,,,,,,,,,,,,0,9,9,1,1,,,,,,,,,,,,,,,,,,,,,,,,,,,,,,,,
,,,,,,,,,,,,599de70d8a6cc5000128f980,001,3,2025-04-15_10h54.12.410,avatar_quest_3AFC_legacy,2022.1.3,Win32,60.60606061,599de70d8a6cc5000128f980,67fe6e666cecbc9329ddf6d6,67fe72542cdd2ff9ed0a9360,,,,,,,,,,,,,,,,,,,,,,No Brainslug No Barriers With Money,0,images/assets/snowy_money.jpg,learning,10,images/assets/success_money.jpg,images/assets/gameover.jpg,,,,,,,,,,,,,0,10,10,9,1,,,,,,,,,,,,,,,,,,,,,,,,,,,,,,,,
,,,,,,,,,,,,599de70d8a6cc5000128f980,001,3,2025-04-15_10h54.12.410,avatar_quest_3AFC_legacy,2022.1.3,Win32,60.60606061,599de70d8a6cc5000128f980,67fe6e666cecbc9329ddf6d6,67fe72542cdd2ff9ed0a9360,,,,,,,,,,,,,,,,,,,,,,,,,,,,,,,,,,,,,,,,,,,,,,,,,,,,,,,5,0,5,0,1,,,,,,,,,,,,,,,,,,
,,,,,,,,,,,,599de70d8a6cc5000128f980,001,3,2025-04-15_10h54.12.410,avatar_quest_3AFC_legacy,2022.1.3,Win32,60.60606061,599de70d8a6cc5000128f980,67fe6e666cecbc9329ddf6d6,67fe72542cdd2ff9ed0a9360,"[""right"",""right"",""right"",""left"",""left"",""left"",""left"",""right"",""right"",""right"",""right"",""right"",""right"",""right"",""left"",""left"",""left"",""left"",""right"",""right"",""right"",""left"",""left"",""left"",""left"",""right"",""right"",""right"",""right"",""right"",""left"",""left"",""left"",""left"",""right"",""right"",""right"",""right"",""right"",""left"",""left""]","[0.4883999999761386,0.9376000000238491,1.287499999999966,1.4582999999523167,1.6287000000476723,1.8245000000000005,2.0302999999523195,2.1846000000238064,2.4459999999999695,2.635200000047689,2.8107000000476887,3.0116000000238046,3.2212999999522935,3.4227999999523036,3.6028999999761595,3.8239999999999554,3.9836000000238414,4.174799999952313,4.392799999952274,4.655799999952308,4.893700000047659,5.125200000047641,5.32260000002384,5.512999999999977,5.670200000047657,5.927299999952311,6.176200000047686,6.329200000047649,6.518299999952319,6.684799999952304,6.882600000023842,7.091700000047638,7.2662999999523095,7.401600000023848,7.58660000002385,7.832499999999982,8.004799999952297,8.179399999976113,8.347700000047666,8.539499999999975,8.704999999999984]",,calibration,With Brainslug Difficult 2 With Money,10,9.06325,8.8748,22,9,0,TRUE,na,na,na,na,,,,,,,,,,,,,,,,,,,,With Brainslug Difficult 2 With Money,With Brainslug Difficult 1 No Money,right,0.4922,"[""With Brainslug Difficult 1 No Money"",""With Brainslug Difficult 2 No Money""]",,,,,,,,,,0,0,0,0,1,,,,,,,,,,,,,,,,,,,,,,,
,,,,,,,,,,,,599de70d8a6cc5000128f980,001,3,2025-04-15_10h54.12.410,avatar_quest_3AFC_legacy,2022.1.3,Win32,60.60606061,599de70d8a6cc5000128f980,67fe6e666cecbc9329ddf6d6,67fe72542cdd2ff9ed0a9360,,,,,,,,,,,,,,,,,,,,,,With Brainslug Difficult 2 With Money,12,images/assets/snowy_money.jpg,learning,20,images/assets/success_money.jpg,images/assets/gameover.jpg,,,,,,,,,,,,,0,0,0,2,1,,,,,,,,,,,,,,,,,,,,,,,,,,,,,,,,
,,,,,,,,,,,,599de70d8a6cc5000128f980,001,3,2025-04-15_10h54.12.410,avatar_quest_3AFC_legacy,2022.1.3,Win32,60.60606061,599de70d8a6cc5000128f980,67fe6e666cecbc9329ddf6d6,67fe72542cdd2ff9ed0a9360,,,,,,,,,,,,,,,,,,,,,,No Brainslug Difficult 1 No Money,6,images/assets/snowy_original.jpg,learning,20,images/assets/success.jpg,images/assets/gameover.jpg,,,,,,,,,,,,,0,1,1,6,1,,,,,,,,,,,,,,,,,,,,,,,,,,,,,,,,
,,,,,,,,,,,,599de70d8a6cc5000128f980,001,3,2025-04-15_10h54.12.410,avatar_quest_3AFC_legacy,2022.1.3,Win32,60.60606061,599de70d8a6cc5000128f980,67fe6e666cecbc9329ddf6d6,67fe72542cdd2ff9ed0a9360,,,,,,,,,,,,,,,,,,,,,,With Brainslug No Barriers No Money,0,images/assets/snowy_original.jpg,learning,10,images/assets/success.jpg,images/assets/gameover.jpg,,,,,,,,,,,,,0,2,2,5,1,,,,,,,,,,,,,,,,,,,,,,,,,,,,,,,,
,,,,,,,,,,,,599de70d8a6cc5000128f980,001,3,2025-04-15_10h54.12.410,avatar_quest_3AFC_legacy,2022.1.3,Win32,60.60606061,599de70d8a6cc5000128f980,67fe6e666cecbc9329ddf6d6,67fe72542cdd2ff9ed0a9360,,,,,,,,,,,,,,,,,,,,,,No Brainslug No Barriers No Money,0,images/assets/snowy_original.jpg,learning,10,images/assets/success.jpg,images/assets/gameover.jpg,,,,,,,,,,,,,0,3,3,10,1,,,,,,,,,,,,,,,,,,,,,,,,,,,,,,,,
,,,,,,,,,,,,599de70d8a6cc5000128f980,001,3,2025-04-15_10h54.12.410,avatar_quest_3AFC_legacy,2022.1.3,Win32,60.60606061,599de70d8a6cc5000128f980,67fe6e666cecbc9329ddf6d6,67fe72542cdd2ff9ed0a9360,,,,,,,,,,,,,,,,,,,,,,With Brainslug No Barriers With Money,0,images/assets/snowy_money.jpg,learning,10,images/assets/success_money.jpg,images/assets/gameover.jpg,,,,,,,,,,,,,0,4,4,4,1,,,,,,,,,,,,,,,,,,,,,,,,,,,,,,,,
,,,,,,,,,,,,599de70d8a6cc5000128f980,001,3,2025-04-15_10h54.12.410,avatar_quest_3AFC_legacy,2022.1.3,Win32,60.60606061,599de70d8a6cc5000128f980,67fe6e666cecbc9329ddf6d6,67fe72542cdd2ff9ed0a9360,,,,,,,,,,,,,,,,,,,,,,With Brainslug Difficult 2 No Money,12,images/assets/snowy_original.jpg,learning,20,images/assets/success.jpg,images/assets/gameover.jpg,,,,,,,,,,,,,0,5,5,3,1,,,,,,,,,,,,,,,,,,,,,,,,,,,,,,,,
,,,,,,,,,,,,599de70d8a6cc5000128f980,001,3,2025-04-15_10h54.12.410,avatar_quest_3AFC_legacy,2022.1.3,Win32,60.60606061,599de70d8a6cc5000128f980,67fe6e666cecbc9329ddf6d6,67fe72542cdd2ff9ed0a9360,,,,,,,,,,,,,,,,,,,,,,With Brainslug Difficult 1 No Money,6,images/assets/snowy_original.jpg,learning,20,images/assets/success.jpg,images/assets/gameover.jpg,,,,,,,,,,,,,0,6,6,1,1,,,,,,,,,,,,,,,,,,,,,,,,,,,,,,,,
,,,,,,,,,,,,599de70d8a6cc5000128f980,001,3,2025-04-15_10h54.12.410,avatar_quest_3AFC_legacy,2022.1.3,Win32,60.60606061,599de70d8a6cc5000128f980,67fe6e666cecbc9329ddf6d6,67fe72542cdd2ff9ed0a9360,,,,,,,,,,,,,,,,,,,,,,No Brainslug Difficult 2 With Money,12,images/assets/snowy_money.jpg,learning,20,images/assets/success_money.jpg,images/assets/gameover.jpg,,,,,,,,,,,,,0,7,7,7,1,,,,,,,,,,,,,,,,,,,,,,,,,,,,,,,,
,,,,,,,,,,,,599de70d8a6cc5000128f980,001,3,2025-04-15_10h54.12.410,avatar_quest_3AFC_legacy,2022.1.3,Win32,60.60606061,599de70d8a6cc5000128f980,67fe6e666cecbc9329ddf6d6,67fe72542cdd2ff9ed0a9360,,,,,,,,,,,,,,,,,,,,,,No Brainslug Difficult 2 No Money,12,images/assets/snowy_original.jpg,learning,20,images/assets/success.jpg,images/assets/gameover.jpg,,,,,,,,,,,,,0,8,8,8,1,,,,,,,,,,,,,,,,,,,,,,,,,,,,,,,,
,,,,,,,,,,,,599de70d8a6cc5000128f980,001,3,2025-04-15_10h54.12.410,avatar_quest_3AFC_legacy,2022.1.3,Win32,60.60606061,599de70d8a6cc5000128f980,67fe6e666cecbc9329ddf6d6,67fe72542cdd2ff9ed0a9360,,,,,,,,,,,,,,,,,,,,,,No Brainslug No Barriers With Money,0,images/assets/snowy_money.jpg,learning,10,images/assets/success_money.jpg,images/assets/gameover.jpg,,,,,,,,,,,,,0,9,9,9,1,,,,,,,,,,,,,,,,,,,,,,,,,,,,,,,,
,,,,,,,,,,,,599de70d8a6cc5000128f980,001,3,2025-04-15_10h54.12.410,avatar_quest_3AFC_legacy,2022.1.3,Win32,60.60606061,599de70d8a6cc5000128f980,67fe6e666cecbc9329ddf6d6,67fe72542cdd2ff9ed0a9360,,,,,,,,,,,,,,,,,,,,,,With Brainslug Difficult 1 With Money,6,images/assets/snowy_money.jpg,learning,20,images/assets/success_money.jpg,images/assets/gameover.jpg,,,,,,,,,,,,,0,10,10,0,1,,,,,,,,,,,,,,,,,,,,,,,,,,,,,,,,
,,,,,,,,,,,,599de70d8a6cc5000128f980,001,3,2025-04-15_10h54.12.410,avatar_quest_3AFC_legacy,2022.1.3,Win32,60.60606061,599de70d8a6cc5000128f980,67fe6e666cecbc9329ddf6d6,67fe72542cdd2ff9ed0a9360,,,,,,,,,,,,,,,,,,,,,,,,,,,,,,,,,,,,,,,,,,,,,,,,,,,,,,,6,0,6,0,1,,,,,,,,,,,,,,,,,,
,,,,,,,,,,,,599de70d8a6cc5000128f980,001,3,2025-04-15_10h54.12.410,avatar_quest_3AFC_legacy,2022.1.3,Win32,60.60606061,599de70d8a6cc5000128f980,67fe6e666cecbc9329ddf6d6,67fe72542cdd2ff9ed0a9360,,,,,,,,,,,,,,,,,,,,,,No Brainslug No Barriers With Money,0,images/assets/snowy_money.jpg,learning,10,images/assets/success_money.jpg,images/assets/gameover.jpg,,,,,,,,With Brainslug Difficult 2 With Money,With Brainslug Difficult 1 No Money,right,0.7035,"[""With Brainslug Difficult 1 No Money"",""With Brainslug Difficult 2 No Money""]",0,0,0,9,1,,,,,,,,,,,,,,,,,,,,,,,,,,,,,,,,
,,,,,,,,,,,,599de70d8a6cc5000128f980,001,3,2025-04-15_10h54.12.410,avatar_quest_3AFC_legacy,2022.1.3,Win32,60.60606061,599de70d8a6cc5000128f980,67fe6e666cecbc9329ddf6d6,67fe72542cdd2ff9ed0a9360,,,,,,,,,,,,,,,,,,,,,,With Brainslug Difficult 1 With Money,6,images/assets/snowy_money.jpg,learning,20,images/assets/success_money.jpg,images/assets/gameover.jpg,,,,,,,,,,,,,0,1,1,0,1,,,,,,,,,,,,,,,,,,,,,,,,,,,,,,,,
,,,,,,,,,,,,599de70d8a6cc5000128f980,001,3,2025-04-15_10h54.12.410,avatar_quest_3AFC_legacy,2022.1.3,Win32,60.60606061,599de70d8a6cc5000128f980,67fe6e666cecbc9329ddf6d6,67fe72542cdd2ff9ed0a9360,,,,,,,,,,,,,,,,,,,,,,With Brainslug Difficult 2 No Money,12,images/assets/snowy_original.jpg,learning,20,images/assets/success.jpg,images/assets/gameover.jpg,,,,,,,,,,,,,0,2,2,3,1,,,,,,,,,,,,,,,,,,,,,,,,,,,,,,,,
,,,,,,,,,,,,599de70d8a6cc5000128f980,001,3,2025-04-15_10h54.12.410,avatar_quest_3AFC_legacy,2022.1.3,Win32,60.60606061,599de70d8a6cc5000128f980,67fe6e666cecbc9329ddf6d6,67fe72542cdd2ff9ed0a9360,,,,,,,,,,,,,,,,,,,,,,No Brainslug Difficult 2 With Money,12,images/assets/snowy_money.jpg,learning,20,images/assets/success_money.jpg,images/assets/gameover.jpg,,,,,,,,,,,,,0,3,3,7,1,,,,,,,,,,,,,,,,,,,,,,,,,,,,,,,,
,,,,,,,,,,,,599de70d8a6cc5000128f980,001,3,2025-04-15_10h54.12.410,avatar_quest_3AFC_legacy,2022.1.3,Win32,60.60606061,599de70d8a6cc5000128f980,67fe6e666cecbc9329ddf6d6,67fe72542cdd2ff9ed0a9360,,,,,,,,,,,,,,,,,,,,,,With Brainslug No Barriers With Money,0,images/assets/snowy_money.jpg,learning,10,images/assets/success_money.jpg,images/assets/gameover.jpg,,,,,,,,,,,,,0,4,4,4,1,,,,,,,,,,,,,,,,,,,,,,,,,,,,,,,,
,,,,,,,,,,,,599de70d8a6cc5000128f980,001,3,2025-04-15_10h54.12.410,avatar_quest_3AFC_legacy,2022.1.3,Win32,60.60606061,599de70d8a6cc5000128f980,67fe6e666cecbc9329ddf6d6,67fe72542cdd2ff9ed0a9360,"[""right"",""right"",""left"",""right"",""left"",""left"",""left"",""left"",""left"",""right"",""right"",""right"",""right"",""right"",""right"",""right"",""right"",""right"",""left"",""left"",""right"",""right"",""right"",""right"",""left"",""left"",""left"",""right"",""right"",""right"",""right"",""right"",""right"",""right"",""left"",""left"",""left"",""right"",""right"",""right"",""right"",""right"",""left""]","[0.3713999999761768,0.5992999999523363,0.8178999999761913,0.8656999999284949,0.9669999999999845,1.1485999999046612,1.310299999952349,1.5188999999761563,1.6675999999046667,1.8003999999761504,2.035000000000025,2.1954999999999814,2.383699999928467,2.549500000000023,2.732399999976167,2.8965999999046517,3.0681999999284812,3.218099999904666,3.453199999928472,4.549199999928476,4.635899999976175,4.803699999928483,4.969499999999982,5.107799999952306,5.277799999952322,5.495599999904641,5.657299999952329,5.806899999976167,6.073599999904616,6.233799999952339,6.561099999904627,6.727599999904612,6.920599999904653,7.1137999999523345,7.313199999928486,7.478899999976193,7.646999999999991,7.889599999904647,8.110099999904662,8.260699999928477,8.441000000000031,8.609299999952327,8.900599999904614]",,calibration,With Brainslug Difficult 2 With Money,11,9.06325,9.0681,22,7,0,FALSE,na,na,na,na,,,,,,,,,,,,,,,,,,,,,,,,,,,,,,,,,,0,0,0,0,1,,,,,,,,,,,,,,,,,,,,,,,
,,,,,,,,,,,,599de70d8a6cc5000128f980,001,3,2025-04-15_10h54.12.410,avatar_quest_3AFC_legacy,2022.1.3,Win32,60.60606061,599de70d8a6cc5000128f980,67fe6e666cecbc9329ddf6d6,67fe72542cdd2ff9ed0a9360,,,,,,,,,,,,,,,,,,,,,,With Brainslug Difficult 2 With Money,12,images/assets/snowy_money.jpg,learning,20,images/assets/success_money.jpg,images/assets/gameover.jpg,,,,,,,,,,,,,0,5,5,2,1,,,,,,,,,,,,,,,,,,,,,,,,,,,,,,,,
,,,,,,,,,,,,599de70d8a6cc5000128f980,001,3,2025-04-15_10h54.12.410,avatar_quest_3AFC_legacy,2022.1.3,Win32,60.60606061,599de70d8a6cc5000128f980,67fe6e666cecbc9329ddf6d6,67fe72542cdd2ff9ed0a9360,,,,,,,,,,,,,,,,,,,,,,No Brainslug Difficult 2 No Money,12,images/assets/snowy_original.jpg,learning,20,images/assets/success.jpg,images/assets/gameover.jpg,,,,,,,,,,,,,0,6,6,8,1,,,,,,,,,,,,,,,,,,,,,,,,,,,,,,,,
,,,,,,,,,,,,599de70d8a6cc5000128f980,001,3,2025-04-15_10h54.12.410,avatar_quest_3AFC_legacy,2022.1.3,Win32,60.60606061,599de70d8a6cc5000128f980,67fe6e666cecbc9329ddf6d6,67fe72542cdd2ff9ed0a9360,,,,,,,,,,,,,,,,,,,,,,With Brainslug Difficult 1 No Money,6,images/assets/snowy_original.jpg,learning,20,images/assets/success.jpg,images/assets/gameover.jpg,,,,,,,,,,,,,0,7,7,1,1,,,,,,,,,,,,,,,,,,,,,,,,,,,,,,,,
,,,,,,,,,,,,599de70d8a6cc5000128f980,001,3,2025-04-15_10h54.12.410,avatar_quest_3AFC_legacy,2022.1.3,Win32,60.60606061,599de70d8a6cc5000128f980,67fe6e666cecbc9329ddf6d6,67fe72542cdd2ff9ed0a9360,,,,,,,,,,,,,,,,,,,,,,No Brainslug No Barriers No Money,0,images/assets/snowy_original.jpg,learning,10,images/assets/success.jpg,images/assets/gameover.jpg,,,,,,,,,,,,,0,8,8,10,1,,,,,,,,,,,,,,,,,,,,,,,,,,,,,,,,
,,,,,,,,,,,,599de70d8a6cc5000128f980,001,3,2025-04-15_10h54.12.410,avatar_quest_3AFC_legacy,2022.1.3,Win32,60.60606061,599de70d8a6cc5000128f980,67fe6e666cecbc9329ddf6d6,67fe72542cdd2ff9ed0a9360,,,,,,,,,,,,,,,,,,,,,,With Brainslug No Barriers No Money,0,images/assets/snowy_original.jpg,learning,10,images/assets/success.jpg,images/assets/gameover.jpg,,,,,,,,,,,,,0,9,9,5,1,,,,,,,,,,,,,,,,,,,,,,,,,,,,,,,,
,,,,,,,,,,,,599de70d8a6cc5000128f980,001,3,2025-04-15_10h54.12.410,avatar_quest_3AFC_legacy,2022.1.3,Win32,60.60606061,599de70d8a6cc5000128f980,67fe6e666cecbc9329ddf6d6,67fe72542cdd2ff9ed0a9360,,,,,,,,,,,,,,,,,,,,,,No Brainslug Difficult 1 No Money,6,images/assets/snowy_original.jpg,learning,20,images/assets/success.jpg,images/assets/gameover.jpg,,,,,,,,,,,,,0,10,10,6,1,,,,,,,,,,,,,,,,,,,,,,,,,,,,,,,,
,,,,,,,,,,,,599de70d8a6cc5000128f980,001,3,2025-04-15_10h54.12.410,avatar_quest_3AFC_legacy,2022.1.3,Win32,60.60606061,599de70d8a6cc5000128f980,67fe6e666cecbc9329ddf6d6,67fe72542cdd2ff9ed0a9360,,,,,,,,,,,,,,,,,,,,,,,,,,,,,,,,,,,,,,,,,,,,,,,,,,,,,,,7,0,7,0,1,,,,,,,,,,,,,,,,,,
,,,,,,,,,,,,599de70d8a6cc5000128f980,001,3,2025-04-15_10h54.12.410,avatar_quest_3AFC_legacy,2022.1.3,Win32,60.60606061,599de70d8a6cc5000128f980,67fe6e666cecbc9329ddf6d6,67fe72542cdd2ff9ed0a9360,,,,,,,,,,,,,,,,,,,,,,No Brainslug No Barriers No Money,0,images/assets/snowy_original.jpg,learning,10,images/assets/success.jpg,images/assets/gameover.jpg,,,,,,,,With Brainslug Difficult 1 No Money,With Brainslug Difficult 1 No Money,left,1.2754,"[""With Brainslug Difficult 2 No Money"",""With Brainslug Difficult 2 With Money""]",0,0,0,10,1,,,,,,,,,,,,,,,,,,,,,,,,,,,,,,,,
,,,,,,,,,,,,599de70d8a6cc5000128f980,001,3,2025-04-15_10h54.12.410,avatar_quest_3AFC_legacy,2022.1.3,Win32,60.60606061,599de70d8a6cc5000128f980,67fe6e666cecbc9329ddf6d6,67fe72542cdd2ff9ed0a9360,,,,,,,,,,,,,,,,,,,,,,No Brainslug Difficult 1 No Money,6,images/assets/snowy_original.jpg,learning,20,images/assets/success.jpg,images/assets/gameover.jpg,,,,,,,,,,,,,0,1,1,6,1,,,,,,,,,,,,,,,,,,,,,,,,,,,,,,,,
,,,,,,,,,,,,599de70d8a6cc5000128f980,001,3,2025-04-15_10h54.12.410,avatar_quest_3AFC_legacy,2022.1.3,Win32,60.60606061,599de70d8a6cc5000128f980,67fe6e666cecbc9329ddf6d6,67fe72542cdd2ff9ed0a9360,"[""left"",""right"",""right"",""left"",""left"",""left"",""right"",""right"",""right"",""right"",""right"",""right"",""right"",""right"",""right"",""right""]","[0.43469999992845487,0.7644999999999982,1.0208999999761659,1.303199999928495,1.9067999999523408,2.1527999999523217,2.3773999999761486,2.5918999999761354,2.7832999999523054,3.1550000000000296,3.413000000000011,3.597399999976176,3.7755000000000223,5.412899999976162,5.570399999976189,5.878699999928472]",,calibration,With Brainslug Difficult 1 No Money,12,9.06325,9.0807,8,3,0,FALSE,na,na,na,na,,,,,,,,,,,,,,,,,,,,,,,,,,,,,,,,,,0,0,0,0,1,,,,,,,,,,,,,,,,,,,,,,,
,,,,,,,,,,,,599de70d8a6cc5000128f980,001,3,2025-04-15_10h54.12.410,avatar_quest_3AFC_legacy,2022.1.3,Win32,60.60606061,599de70d8a6cc5000128f980,67fe6e666cecbc9329ddf6d6,67fe72542cdd2ff9ed0a9360,,,,,,,,,,,,,,,,,,,,,,With Brainslug Difficult 1 No Money,6,images/assets/snowy_original.jpg,learning,20,images/assets/success.jpg,images/assets/gameover.jpg,,,,,,,,,,,,,0,2,2,1,1,,,,,,,,,,,,,,,,,,,,,,,,,,,,,,,,
,,,,,,,,,,,,599de70d8a6cc5000128f980,001,3,2025-04-15_10h54.12.410,avatar_quest_3AFC_legacy,2022.1.3,Win32,60.60606061,599de70d8a6cc5000128f980,67fe6e666cecbc9329ddf6d6,67fe72542cdd2ff9ed0a9360,,,,,,,,,,,,,,,,,,,,,,With Brainslug No Barriers With Money,0,images/assets/snowy_money.jpg,learning,10,images/assets/success_money.jpg,images/assets/gameover.jpg,,,,,,,,,,,,,0,3,3,4,1,,,,,,,,,,,,,,,,,,,,,,,,,,,,,,,,
,,,,,,,,,,,,599de70d8a6cc5000128f980,001,3,2025-04-15_10h54.12.410,avatar_quest_3AFC_legacy,2022.1.3,Win32,60.60606061,599de70d8a6cc5000128f980,67fe6e666cecbc9329ddf6d6,67fe72542cdd2ff9ed0a9360,,,,,,,,,,,,,,,,,,,,,,With Brainslug No Barriers No Money,0,images/assets/snowy_original.jpg,learning,10,images/assets/success.jpg,images/assets/gameover.jpg,,,,,,,,,,,,,0,4,4,5,1,,,,,,,,,,,,,,,,,,,,,,,,,,,,,,,,
,,,,,,,,,,,,599de70d8a6cc5000128f980,001,3,2025-04-15_10h54.12.410,avatar_quest_3AFC_legacy,2022.1.3,Win32,60.60606061,599de70d8a6cc5000128f980,67fe6e666cecbc9329ddf6d6,67fe72542cdd2ff9ed0a9360,,,,,,,,,,,,,,,,,,,,,,With Brainslug Difficult 2 With Money,12,images/assets/snowy_money.jpg,learning,20,images/assets/success_money.jpg,images/assets/gameover.jpg,,,,,,,,,,,,,0,5,5,2,1,,,,,,,,,,,,,,,,,,,,,,,,,,,,,,,,
,,,,,,,,,,,,599de70d8a6cc5000128f980,001,3,2025-04-15_10h54.12.410,avatar_quest_3AFC_legacy,2022.1.3,Win32,60.60606061,599de70d8a6cc5000128f980,67fe6e666cecbc9329ddf6d6,67fe72542cdd2ff9ed0a9360,,,,,,,,,,,,,,,,,,,,,,No Brainslug No Barriers With Money,0,images/assets/snowy_money.jpg,learning,10,images/assets/success_money.jpg,images/assets/gameover.jpg,,,,,,,,,,,,,0,6,6,9,1,,,,,,,,,,,,,,,,,,,,,,,,,,,,,,,,
,,,,,,,,,,,,599de70d8a6cc5000128f980,001,3,2025-04-15_10h54.12.410,avatar_quest_3AFC_legacy,2022.1.3,Win32,60.60606061,599de70d8a6cc5000128f980,67fe6e666cecbc9329ddf6d6,67fe72542cdd2ff9ed0a9360,,,,,,,,,,,,,,,,,,,,,,No Brainslug Difficult 2 No Money,12,images/assets/snowy_original.jpg,learning,20,images/assets/success.jpg,images/assets/gameover.jpg,,,,,,,,,,,,,0,7,7,8,1,,,,,,,,,,,,,,,,,,,,,,,,,,,,,,,,
,,,,,,,,,,,,599de70d8a6cc5000128f980,001,3,2025-04-15_10h54.12.410,avatar_quest_3AFC_legacy,2022.1.3,Win32,60.60606061,599de70d8a6cc5000128f980,67fe6e666cecbc9329ddf6d6,67fe72542cdd2ff9ed0a9360,,,,,,,,,,,,,,,,,,,,,,With Brainslug Difficult 1 With Money,6,images/assets/snowy_money.jpg,learning,20,images/assets/success_money.jpg,images/assets/gameover.jpg,,,,,,,,,,,,,0,8,8,0,1,,,,,,,,,,,,,,,,,,,,,,,,,,,,,,,,
,,,,,,,,,,,,599de70d8a6cc5000128f980,001,3,2025-04-15_10h54.12.410,avatar_quest_3AFC_legacy,2022.1.3,Win32,60.60606061,599de70d8a6cc5000128f980,67fe6e666cecbc9329ddf6d6,67fe72542cdd2ff9ed0a9360,,,,,,,,,,,,,,,,,,,,,,With Brainslug Difficult 2 No Money,12,images/assets/snowy_original.jpg,learning,20,images/assets/success.jpg,images/assets/gameover.jpg,,,,,,,,,,,,,0,9,9,3,1,,,,,,,,,,,,,,,,,,,,,,,,,,,,,,,,
,,,,,,,,,,,,599de70d8a6cc5000128f980,001,3,2025-04-15_10h54.12.410,avatar_quest_3AFC_legacy,2022.1.3,Win32,60.60606061,599de70d8a6cc5000128f980,67fe6e666cecbc9329ddf6d6,67fe72542cdd2ff9ed0a9360,,,,,,,,,,,,,,,,,,,,,,No Brainslug Difficult 2 With Money,12,images/assets/snowy_money.jpg,learning,20,images/assets/success_money.jpg,images/assets/gameover.jpg,,,,,,,,,,,,,0,10,10,7,1,,,,,,,,,,,,,,,,,,,,,,,,,,,,,,,,
,,,,,,,,,,,,599de70d8a6cc5000128f980,001,3,2025-04-15_10h54.12.410,avatar_quest_3AFC_legacy,2022.1.3,Win32,60.60606061,599de70d8a6cc5000128f980,67fe6e666cecbc9329ddf6d6,67fe72542cdd2ff9ed0a9360,,,,,,,,,,,,,,,,,,,,,,,,,,,,,,,,,,,,,,,,,,,,,,,,,,,,,,,8,0,8,0,1,,,,,,,,,,,,,,,,,,
,,,,,,,,,,,,599de70d8a6cc5000128f980,001,3,2025-04-15_10h54.12.410,avatar_quest_3AFC_legacy,2022.1.3,Win32,60.60606061,599de70d8a6cc5000128f980,67fe6e666cecbc9329ddf6d6,67fe72542cdd2ff9ed0a9360,,,,,,,,,,,,,,,,,,,,,,No Brainslug No Barriers With Money,0,images/assets/snowy_money.jpg,learning,10,images/assets/success_money.jpg,images/assets/gameover.jpg,,,,,,,,With Brainslug Difficult 2 With Money,With Brainslug Difficult 1 No Money,right,1.1968,"[""With Brainslug Difficult 1 No Money"",""With Brainslug Difficult 2 No Money""]",0,0,0,9,1,,,,,,,,,,,,,,,,,,,,,,,,,,,,,,,,
,,,,,,,,,,,,599de70d8a6cc5000128f980,001,3,2025-04-15_10h54.12.410,avatar_quest_3AFC_legacy,2022.1.3,Win32,60.60606061,599de70d8a6cc5000128f980,67fe6e666cecbc9329ddf6d6,67fe72542cdd2ff9ed0a9360,,,,,,,,,,,,,,,,,,,,,,No Brainslug Difficult 1 No Money,6,images/assets/snowy_original.jpg,learning,20,images/assets/success.jpg,images/assets/gameover.jpg,,,,,,,,,,,,,0,1,1,6,1,,,,,,,,,,,,,,,,,,,,,,,,,,,,,,,,
,,,,,,,,,,,,599de70d8a6cc5000128f980,001,3,2025-04-15_10h54.12.410,avatar_quest_3AFC_legacy,2022.1.3,Win32,60.60606061,599de70d8a6cc5000128f980,67fe6e666cecbc9329ddf6d6,67fe72542cdd2ff9ed0a9360,,,,,,,,,,,,,,,,,,,,,,With Brainslug Difficult 1 With Money,6,images/assets/snowy_money.jpg,learning,20,images/assets/success_money.jpg,images/assets/gameover.jpg,,,,,,,,,,,,,0,2,2,0,1,,,,,,,,,,,,,,,,,,,,,,,,,,,,,,,,
,,,,,,,,,,,,599de70d8a6cc5000128f980,001,3,2025-04-15_10h54.12.410,avatar_quest_3AFC_legacy,2022.1.3,Win32,60.60606061,599de70d8a6cc5000128f980,67fe6e666cecbc9329ddf6d6,67fe72542cdd2ff9ed0a9360,,,,,,,,,,,,,,,,,,,,,,No Brainslug Difficult 2 No Money,12,images/assets/snowy_original.jpg,learning,20,images/assets/success.jpg,images/assets/gameover.jpg,,,,,,,,,,,,,0,3,3,8,1,,,,,,,,,,,,,,,,,,,,,,,,,,,,,,,,
,,,,,,,,,,,,599de70d8a6cc5000128f980,001,3,2025-04-15_10h54.12.410,avatar_quest_3AFC_legacy,2022.1.3,Win32,60.60606061,599de70d8a6cc5000128f980,67fe6e666cecbc9329ddf6d6,67fe72542cdd2ff9ed0a9360,,,,,,,,,,,,,,,,,,,,,,With Brainslug Difficult 1 No Money,6,images/assets/snowy_original.jpg,learning,20,images/assets/success.jpg,images/assets/gameover.jpg,,,,,,,,,,,,,0,4,4,1,1,,,,,,,,,,,,,,,,,,,,,,,,,,,,,,,,
,,,,,,,,,,,,599de70d8a6cc5000128f980,001,3,2025-04-15_10h54.12.410,avatar_quest_3AFC_legacy,2022.1.3,Win32,60.60606061,599de70d8a6cc5000128f980,67fe6e666cecbc9329ddf6d6,67fe72542cdd2ff9ed0a9360,,,,,,,,,,,,,,,,,,,,,,No Brainslug No Barriers No Money,0,images/assets/snowy_original.jpg,learning,10,images/assets/success.jpg,images/assets/gameover.jpg,,,,,,,,,,,,,0,5,5,10,1,,,,,,,,,,,,,,,,,,,,,,,,,,,,,,,,
,,,,,,,,,,,,599de70d8a6cc5000128f980,001,3,2025-04-15_10h54.12.410,avatar_quest_3AFC_legacy,2022.1.3,Win32,60.60606061,599de70d8a6cc5000128f980,67fe6e666cecbc9329ddf6d6,67fe72542cdd2ff9ed0a9360,,,,,,,,,,,,,,,,,,,,,,With Brainslug No Barriers No Money,0,images/assets/snowy_original.jpg,learning,10,images/assets/success.jpg,images/assets/gameover.jpg,,,,,,,,,,,,,0,6,6,5,1,,,,,,,,,,,,,,,,,,,,,,,,,,,,,,,,
,,,,,,,,,,,,599de70d8a6cc5000128f980,001,3,2025-04-15_10h54.12.410,avatar_quest_3AFC_legacy,2022.1.3,Win32,60.60606061,599de70d8a6cc5000128f980,67fe6e666cecbc9329ddf6d6,67fe72542cdd2ff9ed0a9360,,,,,,,,,,,,,,,,,,,,,,With Brainslug Difficult 2 No Money,12,images/assets/snowy_original.jpg,learning,20,images/assets/success.jpg,images/assets/gameover.jpg,,,,,,,,,,,,,0,7,7,3,1,,,,,,,,,,,,,,,,,,,,,,,,,,,,,,,,
,,,,,,,,,,,,599de70d8a6cc5000128f980,001,3,2025-04-15_10h54.12.410,avatar_quest_3AFC_legacy,2022.1.3,Win32,60.60606061,599de70d8a6cc5000128f980,67fe6e666cecbc9329ddf6d6,67fe72542cdd2ff9ed0a9360,,,,,,,,,,,,,,,,,,,,,,With Brainslug No Barriers With Money,0,images/assets/snowy_money.jpg,learning,10,images/assets/success_money.jpg,images/assets/gameover.jpg,,,,,,,,,,,,,0,8,8,4,1,,,,,,,,,,,,,,,,,,,,,,,,,,,,,,,,
,,,,,,,,,,,,599de70d8a6cc5000128f980,001,3,2025-04-15_10h54.12.410,avatar_quest_3AFC_legacy,2022.1.3,Win32,60.60606061,599de70d8a6cc5000128f980,67fe6e666cecbc9329ddf6d6,67fe72542cdd2ff9ed0a9360,"[""right"",""right"",""right"",""right"",""left"",""left"",""left"",""left"",""right"",""right"",""right"",""right"",""left"",""left"",""left"",""right"",""right"",""right"",""right"",""right"",""left"",""left"",""left"",""left"",""left"",""left"",""right"",""right"",""right"",""right"",""left"",""left"",""left"",""right"",""right"",""right"",""right"",""right"",""left"",""left"",""left"",""left"",""left""]","[0.5322000000476805,0.8149999999999977,1.0426000000238673,1.2797000000476828,1.4817999999523295,1.685299999952349,1.9077999999523172,2.126000000000033,2.2777000000476733,2.537600000023872,2.7445000000000164,2.9473999999761418,3.1951000000238423,3.3952999999523286,3.5952000000476687,3.7956000000238532,4.045000000000016,4.230799999952353,4.435000000000002,4.613200000047698,4.927500000000009,5.142600000023833,5.280700000047716,5.499600000023861,5.738600000023837,5.93129999995233,6.082799999952329,6.328700000047718,6.483600000023841,6.6793999999761695,6.9424999999999955,7.110100000023863,7.2762999999523,7.431600000023877,7.671899999976176,7.832100000023843,7.992999999999995,8.169200000047681,8.29849999999999,8.484500000000025,8.624000000000024,8.786299999952348,8.964299999952345]",,calibration,With Brainslug Difficult 2 With Money,13,9.06325,9.0638,12,9,0,FALSE,na,na,na,na,,,,,,,,,,,,,,,,,,,,,,,,,,,,,,,,,,0,0,0,0,1,,,,,,,,,,,,,,,,,,,,,,,
,,,,,,,,,,,,599de70d8a6cc5000128f980,001,3,2025-04-15_10h54.12.410,avatar_quest_3AFC_legacy,2022.1.3,Win32,60.60606061,599de70d8a6cc5000128f980,67fe6e666cecbc9329ddf6d6,67fe72542cdd2ff9ed0a9360,,,,,,,,,,,,,,,,,,,,,,With Brainslug Difficult 2 With Money,12,images/assets/snowy_money.jpg,learning,20,images/assets/success_money.jpg,images/assets/gameover.jpg,,,,,,,,,,,,,0,9,9,2,1,,,,,,,,,,,,,,,,,,,,,,,,,,,,,,,,
,,,,,,,,,,,,599de70d8a6cc5000128f980,001,3,2025-04-15_10h54.12.410,avatar_quest_3AFC_legacy,2022.1.3,Win32,60.60606061,599de70d8a6cc5000128f980,67fe6e666cecbc9329ddf6d6,67fe72542cdd2ff9ed0a9360,,,,,,,,,,,,,,,,,,,,,,No Brainslug Difficult 2 With Money,12,images/assets/snowy_money.jpg,learning,20,images/assets/success_money.jpg,images/assets/gameover.jpg,,,,,,,,,,,,,0,10,10,7,1,,,,,,,,,,,,,,,,,,,,,,,,,,,,,,,,
,,,,,,,,,,,,599de70d8a6cc5000128f980,001,3,2025-04-15_10h54.12.410,avatar_quest_3AFC_legacy,2022.1.3,Win32,60.60606061,599de70d8a6cc5000128f980,67fe6e666cecbc9329ddf6d6,67fe72542cdd2ff9ed0a9360,,,,,,,,,,,,,,,,,,,,,,,,,,,,,,,,,,,,,,,,,,,,,,,,,,,,,,,9,0,9,0,1,,,,,,,,,,,,,,,,,,
,,,,,,,,,,,,599de70d8a6cc5000128f980,001,3,2025-04-15_10h54.12.410,avatar_quest_3AFC_legacy,2022.1.3,Win32,60.60606061,599de70d8a6cc5000128f980,67fe6e666cecbc9329ddf6d6,67fe72542cdd2ff9ed0a9360,,,,,,,,,,,,,,,,,,,,,,With Brainslug No Barriers No Money,0,images/assets/snowy_original.jpg,learning,10,images/assets/success.jpg,images/assets/gameover.jpg,,,,,,,,With Brainslug Difficult 2 With Money,With Brainslug Difficult 1 No Money,right,0.5516,"[""With Brainslug Difficult 1 No Money"",""With Brainslug Difficult 2 No Money""]",0,0,0,5,1,,,,,,,,,,,,,,,,,,,,,,,,,,,,,,,,
,,,,,,,,,,,,599de70d8a6cc5000128f980,001,3,2025-04-15_10h54.12.410,avatar_quest_3AFC_legacy,2022.1.3,Win32,60.60606061,599de70d8a6cc5000128f980,67fe6e666cecbc9329ddf6d6,67fe72542cdd2ff9ed0a9360,"[""right"",""right"",""right"",""right"",""left"",""left"",""left"",""left"",""left"",""right"",""left"",""left"",""left"",""left"",""left"",""left"",""left"",""left"",""left"",""right"",""right"",""right"",""left"",""left"",""left"",""left"",""left"",""right"",""right"",""right"",""right"",""right"",""right"",""right"",""left"",""left"",""left"",""left"",""right"",""right"",""right"",""right"",""right"",""right"",""right""]","[0.448799999952314,0.719799999952329,0.9529999999999745,1.1793999999761695,1.3947999999523404,1.5760000000000218,1.7180000000000177,1.9352000000477005,2.1086000000238414,2.2762999999523004,2.4982000000476887,2.663899999976138,2.842200000047683,3.023200000047666,3.1995000000000005,3.378499999999974,3.540999999999997,3.6886000000238255,4.055799999952342,4.197999999999979,4.406999999999982,4.592600000023822,4.756799999952307,4.944700000047703,5.0962999999522935,5.282700000047669,5.4592000000477015,5.661600000023839,5.901899999976138,6.070100000023842,6.242799999952297,6.404999999999973,6.557700000047703,6.712899999976173,7.017999999999972,7.226999999999975,7.411000000000001,7.550999999999988,7.67929999995232,7.9072000000476805,8.07839999997617,8.24379999995233,8.447499999999991,8.64520000004768,8.962600000023826]",,calibration,With Brainslug Difficult 2 With Money,14,9.06325,9.0698,20,7,0,FALSE,na,na,na,na,,,,,,,,,,,,,,,,,,,,,,,,,,,,,,,,,,0,0,0,0,1,,,,,,,,,,,,,,,,,,,,,,,
,,,,,,,,,,,,599de70d8a6cc5000128f980,001,3,2025-04-15_10h54.12.410,avatar_quest_3AFC_legacy,2022.1.3,Win32,60.60606061,599de70d8a6cc5000128f980,67fe6e666cecbc9329ddf6d6,67fe72542cdd2ff9ed0a9360,,,,,,,,,,,,,,,,,,,,,,With Brainslug Difficult 2 With Money,12,images/assets/snowy_money.jpg,learning,20,images/assets/success_money.jpg,images/assets/gameover.jpg,,,,,,,,,,,,,0,1,1,2,1,,,,,,,,,,,,,,,,,,,,,,,,,,,,,,,,
,,,,,,,,,,,,599de70d8a6cc5000128f980,001,3,2025-04-15_10h54.12.410,avatar_quest_3AFC_legacy,2022.1.3,Win32,60.60606061,599de70d8a6cc5000128f980,67fe6e666cecbc9329ddf6d6,67fe72542cdd2ff9ed0a9360,,,,,,,,,,,,,,,,,,,,,,With Brainslug Difficult 1 No Money,6,images/assets/snowy_original.jpg,learning,20,images/assets/success.jpg,images/assets/gameover.jpg,,,,,,,,,,,,,0,2,2,1,1,,,,,,,,,,,,,,,,,,,,,,,,,,,,,,,,
,,,,,,,,,,,,599de70d8a6cc5000128f980,001,3,2025-04-15_10h54.12.410,avatar_quest_3AFC_legacy,2022.1.3,Win32,60.60606061,599de70d8a6cc5000128f980,67fe6e666cecbc9329ddf6d6,67fe72542cdd2ff9ed0a9360,,,,,,,,,,,,,,,,,,,,,,With Brainslug Difficult 2 No Money,12,images/assets/snowy_original.jpg,learning,20,images/assets/success.jpg,images/assets/gameover.jpg,,,,,,,,,,,,,0,3,3,3,1,,,,,,,,,,,,,,,,,,,,,,,,,,,,,,,,
,,,,,,,,,,,,599de70d8a6cc5000128f980,001,3,2025-04-15_10h54.12.410,avatar_quest_3AFC_legacy,2022.1.3,Win32,60.60606061,599de70d8a6cc5000128f980,67fe6e666cecbc9329ddf6d6,67fe72542cdd2ff9ed0a9360,,,,,,,,,,,,,,,,,,,,,,With Brainslug Difficult 1 With Money,6,images/assets/snowy_money.jpg,learning,20,images/assets/success_money.jpg,images/assets/gameover.jpg,,,,,,,,,,,,,0,4,4,0,1,,,,,,,,,,,,,,,,,,,,,,,,,,,,,,,,
,,,,,,,,,,,,599de70d8a6cc5000128f980,001,3,2025-04-15_10h54.12.410,avatar_quest_3AFC_legacy,2022.1.3,Win32,60.60606061,599de70d8a6cc5000128f980,67fe6e666cecbc9329ddf6d6,67fe72542cdd2ff9ed0a9360,,,,,,,,,,,,,,,,,,,,,,No Brainslug Difficult 2 No Money,12,images/assets/snowy_original.jpg,learning,20,images/assets/success.jpg,images/assets/gameover.jpg,,,,,,,,,,,,,0,5,5,8,1,,,,,,,,,,,,,,,,,,,,,,,,,,,,,,,,
,,,,,,,,,,,,599de70d8a6cc5000128f980,001,3,2025-04-15_10h54.12.410,avatar_quest_3AFC_legacy,2022.1.3,Win32,60.60606061,599de70d8a6cc5000128f980,67fe6e666cecbc9329ddf6d6,67fe72542cdd2ff9ed0a9360,,,,,,,,,,,,,,,,,,,,,,No Brainslug No Barriers No Money,0,images/assets/snowy_original.jpg,learning,10,images/assets/success.jpg,images/assets/gameover.jpg,,,,,,,,,,,,,0,6,6,10,1,,,,,,,,,,,,,,,,,,,,,,,,,,,,,,,,
,,,,,,,,,,,,599de70d8a6cc5000128f980,001,3,2025-04-15_10h54.12.410,avatar_quest_3AFC_legacy,2022.1.3,Win32,60.60606061,599de70d8a6cc5000128f980,67fe6e666cecbc9329ddf6d6,67fe72542cdd2ff9ed0a9360,,,,,,,,,,,,,,,,,,,,,,No Brainslug No Barriers With Money,0,images/assets/snowy_money.jpg,learning,10,images/assets/success_money.jpg,images/assets/gameover.jpg,,,,,,,,,,,,,0,7,7,9,1,,,,,,,,,,,,,,,,,,,,,,,,,,,,,,,,
,,,,,,,,,,,,599de70d8a6cc5000128f980,001,3,2025-04-15_10h54.12.410,avatar_quest_3AFC_legacy,2022.1.3,Win32,60.60606061,599de70d8a6cc5000128f980,67fe6e666cecbc9329ddf6d6,67fe72542cdd2ff9ed0a9360,,,,,,,,,,,,,,,,,,,,,,With Brainslug No Barriers With Money,0,images/assets/snowy_money.jpg,learning,10,images/assets/success_money.jpg,images/assets/gameover.jpg,,,,,,,,,,,,,0,8,8,4,1,,,,,,,,,,,,,,,,,,,,,,,,,,,,,,,,
,,,,,,,,,,,,599de70d8a6cc5000128f980,001,3,2025-04-15_10h54.12.410,avatar_quest_3AFC_legacy,2022.1.3,Win32,60.60606061,599de70d8a6cc5000128f980,67fe6e666cecbc9329ddf6d6,67fe72542cdd2ff9ed0a9360,,,,,,,,,,,,,,,,,,,,,,No Brainslug Difficult 2 With Money,12,images/assets/snowy_money.jpg,learning,20,images/assets/success_money.jpg,images/assets/gameover.jpg,,,,,,,,,,,,,0,9,9,7,1,,,,,,,,,,,,,,,,,,,,,,,,,,,,,,,,
,,,,,,,,,,,,599de70d8a6cc5000128f980,001,3,2025-04-15_10h54.12.410,avatar_quest_3AFC_legacy,2022.1.3,Win32,60.60606061,599de70d8a6cc5000128f980,67fe6e666cecbc9329ddf6d6,67fe72542cdd2ff9ed0a9360,,,,,,,,,,,,,,,,,,,,,,No Brainslug Difficult 1 No Money,6,images/assets/snowy_original.jpg,learning,20,images/assets/success.jpg,images/assets/gameover.jpg,,,,,,,,,,,,,0,10,10,6,1,,,,,,,,,,,,,,,,,,,,,,,,,,,,,,,,
,,,,,,,,,,,,599de70d8a6cc5000128f980,001,3,2025-04-15_10h54.12.410,avatar_quest_3AFC_legacy,2022.1.3,Win32,60.60606061,599de70d8a6cc5000128f980,67fe6e666cecbc9329ddf6d6,67fe72542cdd2ff9ed0a9360,,,,,,,,,,,,,,,,,,,,,,,,,,,,,,,,,,,,,,,,,,,,,,,,,,,,,,,10,0,10,0,1,,,,,,,,,,,,,,,,,,
,,,,,,,,,,,,599de70d8a6cc5000128f980,001,3,2025-04-15_10h54.12.410,avatar_quest_3AFC_legacy,2022.1.3,Win32,60.60606061,599de70d8a6cc5000128f980,67fe6e666cecbc9329ddf6d6,67fe72542cdd2ff9ed0a9360,"[""left"",""right"",""right"",""right"",""right"",""left"",""left"",""left"",""right"",""right"",""right"",""right"",""right"",""right"",""right"",""right"",""left"",""left"",""left"",""left"",""right"",""right"",""right"",""right"",""right"",""right"",""left"",""left"",""left"",""left"",""left"",""right"",""right"",""right"",""right"",""right"",""right"",""left"",""left"",""right"",""left"",""left"",""left"",""left"",""left"",""left"",""left"",""right""]","[0.32110000002381867,0.5022000000477078,0.8911000000238687,1.0285000000000082,1.2221000000238291,1.4279999999999973,1.5771000000238473,1.7565000000000168,2.090000000000032,2.3003999999761504,2.460700000047666,2.635600000023828,2.8868999999761513,3.058700000047679,3.240399999976148,3.3847999999522926,3.6483999999761636,3.815200000047696,3.9433999999761795,4.332799999952329,4.441799999952309,4.656999999999982,4.819000000000017,4.994700000047715,5.155200000047671,5.317399999976146,5.668000000000006,5.84889999997614,5.974600000023827,6.135600000023828,6.3066000000238205,6.459799999952338,6.650600000023871,6.805799999952342,6.975100000023872,7.153100000023869,7.2977999999523036,7.440399999976137,7.59050000000002,7.732299999952318,7.933499999999981,8.092899999976169,8.243100000023844,8.385499999999979,8.534700000047678,8.685700000047689,8.882399999976144,9.008500000000026]",,calibration,With Brainslug Difficult 2 With Money,15,9.06325,9.0717,23,9,0,FALSE,na,na,na,na,,,,,,,,,,,,,,,,,,,,With Brainslug Difficult 2 With Money,With Brainslug Difficult 1 No Money,right,0.5765,"[""With Brainslug Difficult 1 No Money"",""With Brainslug Difficult 2 No Money""]",,,,,,,,,,0,0,0,0,1,,,,,,,,,,,,,,,,,,,,,,,
,,,,,,,,,,,,599de70d8a6cc5000128f980,001,3,2025-04-15_10h54.12.410,avatar_quest_3AFC_legacy,2022.1.3,Win32,60.60606061,599de70d8a6cc5000128f980,67fe6e666cecbc9329ddf6d6,67fe72542cdd2ff9ed0a9360,,,,,,,,,,,,,,,,,,,,,,With Brainslug Difficult 2 With Money,12,images/assets/snowy_money.jpg,learning,20,images/assets/success_money.jpg,images/assets/gameover.jpg,,,,,,,,,,,,,0,0,0,2,1,,,,,,,,,,,,,,,,,,,,,,,,,,,,,,,,
,,,,,,,,,,,,599de70d8a6cc5000128f980,001,3,2025-04-15_10h54.12.410,avatar_quest_3AFC_legacy,2022.1.3,Win32,60.60606061,599de70d8a6cc5000128f980,67fe6e666cecbc9329ddf6d6,67fe72542cdd2ff9ed0a9360,,,,,,,,,,,,,,,,,,,,,,No Brainslug Difficult 2 No Money,12,images/assets/snowy_original.jpg,learning,20,images/assets/success.jpg,images/assets/gameover.jpg,,,,,,,,,,,,,0,1,1,8,1,,,,,,,,,,,,,,,,,,,,,,,,,,,,,,,,
,,,,,,,,,,,,599de70d8a6cc5000128f980,001,3,2025-04-15_10h54.12.410,avatar_quest_3AFC_legacy,2022.1.3,Win32,60.60606061,599de70d8a6cc5000128f980,67fe6e666cecbc9329ddf6d6,67fe72542cdd2ff9ed0a9360,,,,,,,,,,,,,,,,,,,,,,No Brainslug No Barriers No Money,0,images/assets/snowy_original.jpg,learning,10,images/assets/success.jpg,images/assets/gameover.jpg,,,,,,,,,,,,,0,2,2,10,1,,,,,,,,,,,,,,,,,,,,,,,,,,,,,,,,
,,,,,,,,,,,,599de70d8a6cc5000128f980,001,3,2025-04-15_10h54.12.410,avatar_quest_3AFC_legacy,2022.1.3,Win32,60.60606061,599de70d8a6cc5000128f980,67fe6e666cecbc9329ddf6d6,67fe72542cdd2ff9ed0a9360,,,,,,,,,,,,,,,,,,,,,,No Brainslug No Barriers With Money,0,images/assets/snowy_money.jpg,learning,10,images/assets/success_money.jpg,images/assets/gameover.jpg,,,,,,,,,,,,,0,3,3,9,1,,,,,,,,,,,,,,,,,,,,,,,,,,,,,,,,
,,,,,,,,,,,,599de70d8a6cc5000128f980,001,3,2025-04-15_10h54.12.410,avatar_quest_3AFC_legacy,2022.1.3,Win32,60.60606061,599de70d8a6cc5000128f980,67fe6e666cecbc9329ddf6d6,67fe72542cdd2ff9ed0a9360,,,,,,,,,,,,,,,,,,,,,,With Brainslug Difficult 2 No Money,12,images/assets/snowy_original.jpg,learning,20,images/assets/success.jpg,images/assets/gameover.jpg,,,,,,,,,,,,,0,4,4,3,1,,,,,,,,,,,,,,,,,,,,,,,,,,,,,,,,
,,,,,,,,,,,,599de70d8a6cc5000128f980,001,3,2025-04-15_10h54.12.410,avatar_quest_3AFC_legacy,2022.1.3,Win32,60.60606061,599de70d8a6cc5000128f980,67fe6e666cecbc9329ddf6d6,67fe72542cdd2ff9ed0a9360,,,,,,,,,,,,,,,,,,,,,,With Brainslug No Barriers No Money,0,images/assets/snowy_original.jpg,learning,10,images/assets/success.jpg,images/assets/gameover.jpg,,,,,,,,,,,,,0,5,5,5,1,,,,,,,,,,,,,,,,,,,,,,,,,,,,,,,,
,,,,,,,,,,,,599de70d8a6cc5000128f980,001,3,2025-04-15_10h54.12.410,avatar_quest_3AFC_legacy,2022.1.3,Win32,60.60606061,599de70d8a6cc5000128f980,67fe6e666cecbc9329ddf6d6,67fe72542cdd2ff9ed0a9360,,,,,,,,,,,,,,,,,,,,,,With Brainslug Difficult 1 With Money,6,images/assets/snowy_money.jpg,learning,20,images/assets/success_money.jpg,images/assets/gameover.jpg,,,,,,,,,,,,,0,6,6,0,1,,,,,,,,,,,,,,,,,,,,,,,,,,,,,,,,
,,,,,,,,,,,,599de70d8a6cc5000128f980,001,3,2025-04-15_10h54.12.410,avatar_quest_3AFC_legacy,2022.1.3,Win32,60.60606061,599de70d8a6cc5000128f980,67fe6e666cecbc9329ddf6d6,67fe72542cdd2ff9ed0a9360,,,,,,,,,,,,,,,,,,,,,,No Brainslug Difficult 2 With Money,12,images/assets/snowy_money.jpg,learning,20,images/assets/success_money.jpg,images/assets/gameover.jpg,,,,,,,,,,,,,0,7,7,7,1,,,,,,,,,,,,,,,,,,,,,,,,,,,,,,,,
,,,,,,,,,,,,599de70d8a6cc5000128f980,001,3,2025-04-15_10h54.12.410,avatar_quest_3AFC_legacy,2022.1.3,Win32,60.60606061,599de70d8a6cc5000128f980,67fe6e666cecbc9329ddf6d6,67fe72542cdd2ff9ed0a9360,,,,,,,,,,,,,,,,,,,,,,With Brainslug Difficult 1 No Money,6,images/assets/snowy_original.jpg,learning,20,images/assets/success.jpg,images/assets/gameover.jpg,,,,,,,,,,,,,0,8,8,1,1,,,,,,,,,,,,,,,,,,,,,,,,,,,,,,,,
,,,,,,,,,,,,599de70d8a6cc5000128f980,001,3,2025-04-15_10h54.12.410,avatar_quest_3AFC_legacy,2022.1.3,Win32,60.60606061,599de70d8a6cc5000128f980,67fe6e666cecbc9329ddf6d6,67fe72542cdd2ff9ed0a9360,,,,,,,,,,,,,,,,,,,,,,With Brainslug No Barriers With Money,0,images/assets/snowy_money.jpg,learning,10,images/assets/success_money.jpg,images/assets/gameover.jpg,,,,,,,,,,,,,0,9,9,4,1,,,,,,,,,,,,,,,,,,,,,,,,,,,,,,,,
,,,,,,,,,,,,599de70d8a6cc5000128f980,001,3,2025-04-15_10h54.12.410,avatar_quest_3AFC_legacy,2022.1.3,Win32,60.60606061,599de70d8a6cc5000128f980,67fe6e666cecbc9329ddf6d6,67fe72542cdd2ff9ed0a9360,,,,,,,,,,,,,,,,,,,,,,No Brainslug Difficult 1 No Money,6,images/assets/snowy_original.jpg,learning,20,images/assets/success.jpg,images/assets/gameover.jpg,,,,,,,,,,,,,0,10,10,6,1,,,,,,,,,,,,,,,,,,,,,,,,,,,,,,,,
,,,,,,,,,,,,599de70d8a6cc5000128f980,001,3,2025-04-15_10h54.12.410,avatar_quest_3AFC_legacy,2022.1.3,Win32,60.60606061,599de70d8a6cc5000128f980,67fe6e666cecbc9329ddf6d6,67fe72542cdd2ff9ed0a9360,,,,,,,,,,,,,,,,,,,,,,,,,,,,,,,,,,,,,,,,,,,,,,,,,,,,,,,11,0,11,0,1,,,,,,,,,,,,,,,,,,
,,,,,,,,,,,,599de70d8a6cc5000128f980,001,3,2025-04-15_10h54.12.410,avatar_quest_3AFC_legacy,2022.1.3,Win32,60.60606061,599de70d8a6cc5000128f980,67fe6e666cecbc9329ddf6d6,67fe72542cdd2ff9ed0a9360,,,,,,,,,,,,,,,,,,,,,,,,,,,,,,,,,,,,,,,,,,,,,,,,,,,,,,,,,,,,0,0,0,0,1,1,With Brainslug Difficult 1 No Money,images/assets/With Brainslug Difficult 1 No Money.png,With Brainslug Difficult 2 No Money,images/assets/With Brainslug Difficult 2 No Money.png,With Brainslug Difficult 2 With Money,images/assets/With Brainslug Difficult 2 With Money.png,Achievement vs. money,,,,,
,,,,,,,,,,,,599de70d8a6cc5000128f980,001,3,2025-04-15_10h54.12.410,avatar_quest_3AFC_legacy,2022.1.3,Win32,60.60606061,599de70d8a6cc5000128f980,67fe6e666cecbc9329ddf6d6,67fe72542cdd2ff9ed0a9360,"[""left"",""left"",""left"",""right"",""right"",""right"",""left"",""left"",""right"",""right"",""right"",""left"",""left"",""left"",""left"",""left"",""left"",""right"",""right"",""right"",""right"",""left""]","[1.110200000047655,1.4146000000238246,1.6128999999761504,1.880300000071486,2.2124999999999773,2.4603999999761186,2.8633999999761386,3.0807000000476705,3.3793000000715097,3.5960000000000036,3.7789999999999964,3.944100000023809,4.84510000002382,5.213800000071501,5.247500000000002,5.3974999999999795,5.558999999999969,5.742800000071497,5.927600000023858,6.092899999976169,6.266200000047661,6.542100000023822]",,calibration,No Brainslug No Barriers With Money,16,7.2506,6.7158,20,0,4,TRUE,na,na,na,na,,,,,,,,,,,,,,,,,,,,No Brainslug No Barriers With Money,No Brainslug No Barriers No Money,right,0.0008,"[""No Brainslug No Barriers No Money"",""No Brainslug Difficult 1 No Money""]",,,,,,,,,,0,0,0,0,1,,,,,,,,,,,,,,,,,,,,,,,
,,,,,,,,,,,,599de70d8a6cc5000128f980,001,3,2025-04-15_10h54.12.410,avatar_quest_3AFC_legacy,2022.1.3,Win32,60.60606061,599de70d8a6cc5000128f980,67fe6e666cecbc9329ddf6d6,67fe72542cdd2ff9ed0a9360,,,,,,,,,,,,,,,,,,,,,,No Brainslug No Barriers With Money,0,images/assets/snowy_money.jpg,learning,10,images/assets/success_money.jpg,images/assets/gameover.jpg,,,,,,,,,,,,,0,0,0,9,1,,,,,,,,,,,,,,,,,,,,,,,,,,,,,,,,
,,,,,,,,,,,,599de70d8a6cc5000128f980,001,3,2025-04-15_10h54.12.410,avatar_quest_3AFC_legacy,2022.1.3,Win32,60.60606061,599de70d8a6cc5000128f980,67fe6e666cecbc9329ddf6d6,67fe72542cdd2ff9ed0a9360,,,,,,,,,,,,,,,,,,,,,,With Brainslug No Barriers With Money,0,images/assets/snowy_money.jpg,learning,10,images/assets/success_money.jpg,images/assets/gameover.jpg,,,,,,,,,,,,,0,1,1,4,1,,,,,,,,,,,,,,,,,,,,,,,,,,,,,,,,
,,,,,,,,,,,,599de70d8a6cc5000128f980,001,3,2025-04-15_10h54.12.410,avatar_quest_3AFC_legacy,2022.1.3,Win32,60.60606061,599de70d8a6cc5000128f980,67fe6e666cecbc9329ddf6d6,67fe72542cdd2ff9ed0a9360,,,,,,,,,,,,,,,,,,,,,,No Brainslug Difficult 1 No Money,6,images/assets/snowy_original.jpg,learning,20,images/assets/success.jpg,images/assets/gameover.jpg,,,,,,,,,,,,,0,2,2,6,1,,,,,,,,,,,,,,,,,,,,,,,,,,,,,,,,
,,,,,,,,,,,,599de70d8a6cc5000128f980,001,3,2025-04-15_10h54.12.410,avatar_quest_3AFC_legacy,2022.1.3,Win32,60.60606061,599de70d8a6cc5000128f980,67fe6e666cecbc9329ddf6d6,67fe72542cdd2ff9ed0a9360,,,,,,,,,,,,,,,,,,,,,,No Brainslug No Barriers No Money,0,images/assets/snowy_original.jpg,learning,10,images/assets/success.jpg,images/assets/gameover.jpg,,,,,,,,,,,,,0,3,3,10,1,,,,,,,,,,,,,,,,,,,,,,,,,,,,,,,,
,,,,,,,,,,,,599de70d8a6cc5000128f980,001,3,2025-04-15_10h54.12.410,avatar_quest_3AFC_legacy,2022.1.3,Win32,60.60606061,599de70d8a6cc5000128f980,67fe6e666cecbc9329ddf6d6,67fe72542cdd2ff9ed0a9360,,,,,,,,,,,,,,,,,,,,,,With Brainslug No Barriers No Money,0,images/assets/snowy_original.jpg,learning,10,images/assets/success.jpg,images/assets/gameover.jpg,,,,,,,,,,,,,0,4,4,5,1,,,,,,,,,,,,,,,,,,,,,,,,,,,,,,,,
,,,,,,,,,,,,599de70d8a6cc5000128f980,001,3,2025-04-15_10h54.12.410,avatar_quest_3AFC_legacy,2022.1.3,Win32,60.60606061,599de70d8a6cc5000128f980,67fe6e666cecbc9329ddf6d6,67fe72542cdd2ff9ed0a9360,,,,,,,,,,,,,,,,,,,,,,No Brainslug Difficult 2 With Money,12,images/assets/snowy_money.jpg,learning,20,images/assets/success_money.jpg,images/assets/gameover.jpg,,,,,,,,,,,,,0,5,5,7,1,,,,,,,,,,,,,,,,,,,,,,,,,,,,,,,,
,,,,,,,,,,,,599de70d8a6cc5000128f980,001,3,2025-04-15_10h54.12.410,avatar_quest_3AFC_legacy,2022.1.3,Win32,60.60606061,599de70d8a6cc5000128f980,67fe6e666cecbc9329ddf6d6,67fe72542cdd2ff9ed0a9360,,,,,,,,,,,,,,,,,,,,,,With Brainslug Difficult 1 With Money,6,images/assets/snowy_money.jpg,learning,20,images/assets/success_money.jpg,images/assets/gameover.jpg,,,,,,,,,,,,,0,6,6,0,1,,,,,,,,,,,,,,,,,,,,,,,,,,,,,,,,
,,,,,,,,,,,,599de70d8a6cc5000128f980,001,3,2025-04-15_10h54.12.410,avatar_quest_3AFC_legacy,2022.1.3,Win32,60.60606061,599de70d8a6cc5000128f980,67fe6e666cecbc9329ddf6d6,67fe72542cdd2ff9ed0a9360,,,,,,,,,,,,,,,,,,,,,,With Brainslug Difficult 2 No Money,12,images/assets/snowy_original.jpg,learning,20,images/assets/success.jpg,images/assets/gameover.jpg,,,,,,,,,,,,,0,7,7,3,1,,,,,,,,,,,,,,,,,,,,,,,,,,,,,,,,
,,,,,,,,,,,,599de70d8a6cc5000128f980,001,3,2025-04-15_10h54.12.410,avatar_quest_3AFC_legacy,2022.1.3,Win32,60.60606061,599de70d8a6cc5000128f980,67fe6e666cecbc9329ddf6d6,67fe72542cdd2ff9ed0a9360,,,,,,,,,,,,,,,,,,,,,,No Brainslug Difficult 2 No Money,12,images/assets/snowy_original.jpg,learning,20,images/assets/success.jpg,images/assets/gameover.jpg,,,,,,,,,,,,,0,8,8,8,1,,,,,,,,,,,,,,,,,,,,,,,,,,,,,,,,
,,,,,,,,,,,,599de70d8a6cc5000128f980,001,3,2025-04-15_10h54.12.410,avatar_quest_3AFC_legacy,2022.1.3,Win32,60.60606061,599de70d8a6cc5000128f980,67fe6e666cecbc9329ddf6d6,67fe72542cdd2ff9ed0a9360,,,,,,,,,,,,,,,,,,,,,,With Brainslug Difficult 1 No Money,6,images/assets/snowy_original.jpg,learning,20,images/assets/success.jpg,images/assets/gameover.jpg,,,,,,,,,,,,,0,9,9,1,1,,,,,,,,,,,,,,,,,,,,,,,,,,,,,,,,
,,,,,,,,,,,,599de70d8a6cc5000128f980,001,3,2025-04-15_10h54.12.410,avatar_quest_3AFC_legacy,2022.1.3,Win32,60.60606061,599de70d8a6cc5000128f980,67fe6e666cecbc9329ddf6d6,67fe72542cdd2ff9ed0a9360,,,,,,,,,,,,,,,,,,,,,,With Brainslug Difficult 2 With Money,12,images/assets/snowy_money.jpg,learning,20,images/assets/success_money.jpg,images/assets/gameover.jpg,,,,,,,,,,,,,0,10,10,2,1,,,,,,,,,,,,,,,,,,,,,,,,,,,,,,,,
,,,,,,,,,,,,599de70d8a6cc5000128f980,001,3,2025-04-15_10h54.12.410,avatar_quest_3AFC_legacy,2022.1.3,Win32,60.60606061,599de70d8a6cc5000128f980,67fe6e666cecbc9329ddf6d6,67fe72542cdd2ff9ed0a9360,,,,,,,,,,,,,,,,,,,,,,,,,,,,,,,,,,,,,,,,,,,,,,,,,,,,,,,0,0,0,0,1,,,,,,,,,,,,,,,,,,
,,,,,,,,,,,,599de70d8a6cc5000128f980,001,3,2025-04-15_10h54.12.410,avatar_quest_3AFC_legacy,2022.1.3,Win32,60.60606061,599de70d8a6cc5000128f980,67fe6e666cecbc9329ddf6d6,67fe72542cdd2ff9ed0a9360,,,,,,,,,,,,,,,,,,,,,,With Brainslug No Barriers With Money,0,images/assets/snowy_money.jpg,learning,10,images/assets/success_money.jpg,images/assets/gameover.jpg,,,,,,,,No Brainslug No Barriers No Money,No Brainslug No Barriers No Money,left,0.7172,"[""No Brainslug Difficult 1 No Money"",""No Brainslug No Barriers With Money""]",0,0,0,4,1,,,,,,,,,,,,,,,,,,,,,,,,,,,,,,,,
,,,,,,,,,,,,599de70d8a6cc5000128f980,001,3,2025-04-15_10h54.12.410,avatar_quest_3AFC_legacy,2022.1.3,Win32,60.60606061,599de70d8a6cc5000128f980,67fe6e666cecbc9329ddf6d6,67fe72542cdd2ff9ed0a9360,"[""left"",""left"",""left"",""right"",""right"",""right"",""left"",""left"",""left"",""left"",""right"",""right"",""left"",""left"",""right"",""right"",""right"",""right"",""left"",""left"",""left"",""right"",""right"",""right"",""right"",""left""]","[0.32680000007150056,0.5267000000476969,0.6933000000714742,0.9782000000477069,1.194100000023866,1.4106000000238623,1.5778999999761822,1.7438000000715306,1.9608000000715151,2.1768000000715233,2.3594999999999686,2.610499999999945,2.7606000000237714,3.076899999976092,3.3932000000476705,3.81120000004762,4.026800000071489,4.21030000007147,4.444399999976099,4.594499999999925,4.859800000071459,4.927300000071455,5.126899999976104,5.327899999976125,5.493700000047625,5.693399999976123]",,calibration,No Brainslug No Barriers No Money,17,7.2506,5.7495,24,0,14,TRUE,na,na,na,na,,,,,,,,,,,,,,,,,,,,,,,,,,,,,,,,,,0,0,0,0,1,,,,,,,,,,,,,,,,,,,,,,,
,,,,,,,,,,,,599de70d8a6cc5000128f980,001,3,2025-04-15_10h54.12.410,avatar_quest_3AFC_legacy,2022.1.3,Win32,60.60606061,599de70d8a6cc5000128f980,67fe6e666cecbc9329ddf6d6,67fe72542cdd2ff9ed0a9360,,,,,,,,,,,,,,,,,,,,,,No Brainslug No Barriers No Money,0,images/assets/snowy_original.jpg,learning,10,images/assets/success.jpg,images/assets/gameover.jpg,,,,,,,,,,,,,0,1,1,10,1,,,,,,,,,,,,,,,,,,,,,,,,,,,,,,,,
,,,,,,,,,,,,599de70d8a6cc5000128f980,001,3,2025-04-15_10h54.12.410,avatar_quest_3AFC_legacy,2022.1.3,Win32,60.60606061,599de70d8a6cc5000128f980,67fe6e666cecbc9329ddf6d6,67fe72542cdd2ff9ed0a9360,,,,,,,,,,,,,,,,,,,,,,No Brainslug Difficult 1 No Money,6,images/assets/snowy_original.jpg,learning,20,images/assets/success.jpg,images/assets/gameover.jpg,,,,,,,,,,,,,0,2,2,6,1,,,,,,,,,,,,,,,,,,,,,,,,,,,,,,,,
,,,,,,,,,,,,599de70d8a6cc5000128f980,001,3,2025-04-15_10h54.12.410,avatar_quest_3AFC_legacy,2022.1.3,Win32,60.60606061,599de70d8a6cc5000128f980,67fe6e666cecbc9329ddf6d6,67fe72542cdd2ff9ed0a9360,,,,,,,,,,,,,,,,,,,,,,With Brainslug Difficult 1 With Money,6,images/assets/snowy_money.jpg,learning,20,images/assets/success_money.jpg,images/assets/gameover.jpg,,,,,,,,,,,,,0,3,3,0,1,,,,,,,,,,,,,,,,,,,,,,,,,,,,,,,,
,,,,,,,,,,,,599de70d8a6cc5000128f980,001,3,2025-04-15_10h54.12.410,avatar_quest_3AFC_legacy,2022.1.3,Win32,60.60606061,599de70d8a6cc5000128f980,67fe6e666cecbc9329ddf6d6,67fe72542cdd2ff9ed0a9360,,,,,,,,,,,,,,,,,,,,,,No Brainslug Difficult 2 No Money,12,images/assets/snowy_original.jpg,learning,20,images/assets/success.jpg,images/assets/gameover.jpg,,,,,,,,,,,,,0,4,4,8,1,,,,,,,,,,,,,,,,,,,,,,,,,,,,,,,,
,,,,,,,,,,,,599de70d8a6cc5000128f980,001,3,2025-04-15_10h54.12.410,avatar_quest_3AFC_legacy,2022.1.3,Win32,60.60606061,599de70d8a6cc5000128f980,67fe6e666cecbc9329ddf6d6,67fe72542cdd2ff9ed0a9360,,,,,,,,,,,,,,,,,,,,,,With Brainslug No Barriers No Money,0,images/assets/snowy_original.jpg,learning,10,images/assets/success.jpg,images/assets/gameover.jpg,,,,,,,,,,,,,0,5,5,5,1,,,,,,,,,,,,,,,,,,,,,,,,,,,,,,,,
,,,,,,,,,,,,599de70d8a6cc5000128f980,001,3,2025-04-15_10h54.12.410,avatar_quest_3AFC_legacy,2022.1.3,Win32,60.60606061,599de70d8a6cc5000128f980,67fe6e666cecbc9329ddf6d6,67fe72542cdd2ff9ed0a9360,,,,,,,,,,,,,,,,,,,,,,No Brainslug No Barriers With Money,0,images/assets/snowy_money.jpg,learning,10,images/assets/success_money.jpg,images/assets/gameover.jpg,,,,,,,,,,,,,0,6,6,9,1,,,,,,,,,,,,,,,,,,,,,,,,,,,,,,,,
,,,,,,,,,,,,599de70d8a6cc5000128f980,001,3,2025-04-15_10h54.12.410,avatar_quest_3AFC_legacy,2022.1.3,Win32,60.60606061,599de70d8a6cc5000128f980,67fe6e666cecbc9329ddf6d6,67fe72542cdd2ff9ed0a9360,,,,,,,,,,,,,,,,,,,,,,With Brainslug Difficult 2 No Money,12,images/assets/snowy_original.jpg,learning,20,images/assets/success.jpg,images/assets/gameover.jpg,,,,,,,,,,,,,0,7,7,3,1,,,,,,,,,,,,,,,,,,,,,,,,,,,,,,,,
,,,,,,,,,,,,599de70d8a6cc5000128f980,001,3,2025-04-15_10h54.12.410,avatar_quest_3AFC_legacy,2022.1.3,Win32,60.60606061,599de70d8a6cc5000128f980,67fe6e666cecbc9329ddf6d6,67fe72542cdd2ff9ed0a9360,,,,,,,,,,,,,,,,,,,,,,With Brainslug Difficult 2 With Money,12,images/assets/snowy_money.jpg,learning,20,images/assets/success_money.jpg,images/assets/gameover.jpg,,,,,,,,,,,,,0,8,8,2,1,,,,,,,,,,,,,,,,,,,,,,,,,,,,,,,,
,,,,,,,,,,,,599de70d8a6cc5000128f980,001,3,2025-04-15_10h54.12.410,avatar_quest_3AFC_legacy,2022.1.3,Win32,60.60606061,599de70d8a6cc5000128f980,67fe6e666cecbc9329ddf6d6,67fe72542cdd2ff9ed0a9360,,,,,,,,,,,,,,,,,,,,,,With Brainslug Difficult 1 No Money,6,images/assets/snowy_original.jpg,learning,20,images/assets/success.jpg,images/assets/gameover.jpg,,,,,,,,,,,,,0,9,9,1,1,,,,,,,,,,,,,,,,,,,,,,,,,,,,,,,,
,,,,,,,,,,,,599de70d8a6cc5000128f980,001,3,2025-04-15_10h54.12.410,avatar_quest_3AFC_legacy,2022.1.3,Win32,60.60606061,599de70d8a6cc5000128f980,67fe6e666cecbc9329ddf6d6,67fe72542cdd2ff9ed0a9360,,,,,,,,,,,,,,,,,,,,,,No Brainslug Difficult 2 With Money,12,images/assets/snowy_money.jpg,learning,20,images/assets/success_money.jpg,images/assets/gameover.jpg,,,,,,,,,,,,,0,10,10,7,1,,,,,,,,,,,,,,,,,,,,,,,,,,,,,,,,
,,,,,,,,,,,,599de70d8a6cc5000128f980,001,3,2025-04-15_10h54.12.410,avatar_quest_3AFC_legacy,2022.1.3,Win32,60.60606061,599de70d8a6cc5000128f980,67fe6e666cecbc9329ddf6d6,67fe72542cdd2ff9ed0a9360,,,,,,,,,,,,,,,,,,,,,,,,,,,,,,,,,,,,,,,,,,,,,,,,,,,,,,,1,0,1,0,1,,,,,,,,,,,,,,,,,,
,,,,,,,,,,,,599de70d8a6cc5000128f980,001,3,2025-04-15_10h54.12.410,avatar_quest_3AFC_legacy,2022.1.3,Win32,60.60606061,599de70d8a6cc5000128f980,67fe6e666cecbc9329ddf6d6,67fe72542cdd2ff9ed0a9360,,,,,,,,,,,,,,,,,,,,,,With Brainslug Difficult 2 No Money,12,images/assets/snowy_original.jpg,learning,20,images/assets/success.jpg,images/assets/gameover.jpg,,,,,,,,No Brainslug No Barriers With Money,No Brainslug No Barriers No Money,right,1.2101,"[""No Brainslug No Barriers No Money"",""No Brainslug Difficult 1 No Money""]",0,0,0,3,1,,,,,,,,,,,,,,,,,,,,,,,,,,,,,,,,
,,,,,,,,,,,,599de70d8a6cc5000128f980,001,3,2025-04-15_10h54.12.410,avatar_quest_3AFC_legacy,2022.1.3,Win32,60.60606061,599de70d8a6cc5000128f980,67fe6e666cecbc9329ddf6d6,67fe72542cdd2ff9ed0a9360,,,,,,,,,,,,,,,,,,,,,,No Brainslug No Barriers No Money,0,images/assets/snowy_original.jpg,learning,10,images/assets/success.jpg,images/assets/gameover.jpg,,,,,,,,,,,,,0,1,1,10,1,,,,,,,,,,,,,,,,,,,,,,,,,,,,,,,,
,,,,,,,,,,,,599de70d8a6cc5000128f980,001,3,2025-04-15_10h54.12.410,avatar_quest_3AFC_legacy,2022.1.3,Win32,60.60606061,599de70d8a6cc5000128f980,67fe6e666cecbc9329ddf6d6,67fe72542cdd2ff9ed0a9360,,,,,,,,,,,,,,,,,,,,,,No Brainslug Difficult 1 No Money,6,images/assets/snowy_original.jpg,learning,20,images/assets/success.jpg,images/assets/gameover.jpg,,,,,,,,,,,,,0,2,2,6,1,,,,,,,,,,,,,,,,,,,,,,,,,,,,,,,,
,,,,,,,,,,,,599de70d8a6cc5000128f980,001,3,2025-04-15_10h54.12.410,avatar_quest_3AFC_legacy,2022.1.3,Win32,60.60606061,599de70d8a6cc5000128f980,67fe6e666cecbc9329ddf6d6,67fe72542cdd2ff9ed0a9360,,,,,,,,,,,,,,,,,,,,,,With Brainslug Difficult 1 No Money,6,images/assets/snowy_original.jpg,learning,20,images/assets/success.jpg,images/assets/gameover.jpg,,,,,,,,,,,,,0,3,3,1,1,,,,,,,,,,,,,,,,,,,,,,,,,,,,,,,,
,,,,,,,,,,,,599de70d8a6cc5000128f980,001,3,2025-04-15_10h54.12.410,avatar_quest_3AFC_legacy,2022.1.3,Win32,60.60606061,599de70d8a6cc5000128f980,67fe6e666cecbc9329ddf6d6,67fe72542cdd2ff9ed0a9360,,,,,,,,,,,,,,,,,,,,,,With Brainslug No Barriers With Money,0,images/assets/snowy_money.jpg,learning,10,images/assets/success_money.jpg,images/assets/gameover.jpg,,,,,,,,,,,,,0,4,4,4,1,,,,,,,,,,,,,,,,,,,,,,,,,,,,,,,,
,,,,,,,,,,,,599de70d8a6cc5000128f980,001,3,2025-04-15_10h54.12.410,avatar_quest_3AFC_legacy,2022.1.3,Win32,60.60606061,599de70d8a6cc5000128f980,67fe6e666cecbc9329ddf6d6,67fe72542cdd2ff9ed0a9360,,,,,,,,,,,,,,,,,,,,,,With Brainslug Difficult 2 With Money,12,images/assets/snowy_money.jpg,learning,20,images/assets/success_money.jpg,images/assets/gameover.jpg,,,,,,,,,,,,,0,5,5,2,1,,,,,,,,,,,,,,,,,,,,,,,,,,,,,,,,
,,,,,,,,,,,,599de70d8a6cc5000128f980,001,3,2025-04-15_10h54.12.410,avatar_quest_3AFC_legacy,2022.1.3,Win32,60.60606061,599de70d8a6cc5000128f980,67fe6e666cecbc9329ddf6d6,67fe72542cdd2ff9ed0a9360,"[""right"",""right"",""left"",""left"",""left"",""right""]","[0.43929999995225444,0.643299999952319,0.8076999999284453,1.5069999999999482,1.7590999999046062,3.1225999999046508]",,calibration,No Brainslug No Barriers With Money,18,7.2506,5.4894,5,0,0,TRUE,na,na,na,na,,,,,,,,,,,,,,,,,,,,,,,,,,,,,,,,,,0,0,0,0,1,,,,,,,,,,,,,,,,,,,,,,,
,,,,,,,,,,,,599de70d8a6cc5000128f980,001,3,2025-04-15_10h54.12.410,avatar_quest_3AFC_legacy,2022.1.3,Win32,60.60606061,599de70d8a6cc5000128f980,67fe6e666cecbc9329ddf6d6,67fe72542cdd2ff9ed0a9360,,,,,,,,,,,,,,,,,,,,,,No Brainslug No Barriers With Money,0,images/assets/snowy_money.jpg,learning,10,images/assets/success_money.jpg,images/assets/gameover.jpg,,,,,,,,,,,,,0,6,6,9,1,,,,,,,,,,,,,,,,,,,,,,,,,,,,,,,,
,,,,,,,,,,,,599de70d8a6cc5000128f980,001,3,2025-04-15_10h54.12.410,avatar_quest_3AFC_legacy,2022.1.3,Win32,60.60606061,599de70d8a6cc5000128f980,67fe6e666cecbc9329ddf6d6,67fe72542cdd2ff9ed0a9360,,,,,,,,,,,,,,,,,,,,,,No Brainslug Difficult 2 No Money,12,images/assets/snowy_original.jpg,learning,20,images/assets/success.jpg,images/assets/gameover.jpg,,,,,,,,,,,,,0,7,7,8,1,,,,,,,,,,,,,,,,,,,,,,,,,,,,,,,,
,,,,,,,,,,,,599de70d8a6cc5000128f980,001,3,2025-04-15_10h54.12.410,avatar_quest_3AFC_legacy,2022.1.3,Win32,60.60606061,599de70d8a6cc5000128f980,67fe6e666cecbc9329ddf6d6,67fe72542cdd2ff9ed0a9360,,,,,,,,,,,,,,,,,,,,,,With Brainslug No Barriers No Money,0,images/assets/snowy_original.jpg,learning,10,images/assets/success.jpg,images/assets/gameover.jpg,,,,,,,,,,,,,0,8,8,5,1,,,,,,,,,,,,,,,,,,,,,,,,,,,,,,,,
,,,,,,,,,,,,599de70d8a6cc5000128f980,001,3,2025-04-15_10h54.12.410,avatar_quest_3AFC_legacy,2022.1.3,Win32,60.60606061,599de70d8a6cc5000128f980,67fe6e666cecbc9329ddf6d6,67fe72542cdd2ff9ed0a9360,,,,,,,,,,,,,,,,,,,,,,No Brainslug Difficult 2 With Money,12,images/assets/snowy_money.jpg,learning,20,images/assets/success_money.jpg,images/assets/gameover.jpg,,,,,,,,,,,,,0,9,9,7,1,,,,,,,,,,,,,,,,,,,,,,,,,,,,,,,,
,,,,,,,,,,,,599de70d8a6cc5000128f980,001,3,2025-04-15_10h54.12.410,avatar_quest_3AFC_legacy,2022.1.3,Win32,60.60606061,599de70d8a6cc5000128f980,67fe6e666cecbc9329ddf6d6,67fe72542cdd2ff9ed0a9360,,,,,,,,,,,,,,,,,,,,,,With Brainslug Difficult 1 With Money,6,images/assets/snowy_money.jpg,learning,20,images/assets/success_money.jpg,images/assets/gameover.jpg,,,,,,,,,,,,,0,10,10,0,1,,,,,,,,,,,,,,,,,,,,,,,,,,,,,,,,
,,,,,,,,,,,,599de70d8a6cc5000128f980,001,3,2025-04-15_10h54.12.410,avatar_quest_3AFC_legacy,2022.1.3,Win32,60.60606061,599de70d8a6cc5000128f980,67fe6e666cecbc9329ddf6d6,67fe72542cdd2ff9ed0a9360,,,,,,,,,,,,,,,,,,,,,,,,,,,,,,,,,,,,,,,,,,,,,,,,,,,,,,,2,0,2,0,1,,,,,,,,,,,,,,,,,,
,,,,,,,,,,,,599de70d8a6cc5000128f980,001,3,2025-04-15_10h54.12.410,avatar_quest_3AFC_legacy,2022.1.3,Win32,60.60606061,599de70d8a6cc5000128f980,67fe6e666cecbc9329ddf6d6,67fe72542cdd2ff9ed0a9360,,,,,,,,,,,,,,,,,,,,,,With Brainslug Difficult 1 No Money,6,images/assets/snowy_original.jpg,learning,20,images/assets/success.jpg,images/assets/gameover.jpg,,,,,,,,No Brainslug No Barriers With Money,No Brainslug No Barriers No Money,right,4.6175,"[""No Brainslug No Barriers No Money"",""No Brainslug Difficult 1 No Money""]",0,0,0,1,1,,,,,,,,,,,,,,,,,,,,,,,,,,,,,,,,
