instruction_mouse.x,instruction_mouse.y,instruction_mouse.leftButton,instruction_mouse.midButton,instruction_mouse.rightButton,instruction_mouse.clicked_name,introduce_general.thisRepN,introduce_general.thisTrialN,introduce_general.thisN,introduce_general.thisIndex,introduce_general.ran,thisInstruction,participant,session,game version,date,expName,psychopyVersion,OS,frameRate,PROLIFIC PID,STUDY ID,SESSION ID,move_resp.keys,move_resp.rt,end_resp.keys,phase,condition,trial_num,time_limit,completion_time,left_right_steps,number_of_obsticle_blocks,number_of_tree_blocks,quest_complete,responsivity_summary,av_inter_brainslug_intervals,proportion_jitter,jitter_direction_proportion_right,calibration_phase.thisRepN,calibration_phase.thisTrialN,calibration_phase.thisN,calibration_phase.thisIndex,calibration_phase.ran,BlockLabel,nObsticles,backgroundImage,phaseLabel,n_side_steps,success_im,gameover_im,success_condition,introduce_learning_or_choice.thisRepN,introduce_learning_or_choice.thisTrialN,introduce_learning_or_choice.thisN,introduce_learning_or_choice.thisIndex,introduce_learning_or_choice.ran,choice_resp.keys,chosen_quest,unchosen_quest,choice_resp_3afc.keys,choice_resp_3afc.rt,unchosen_quests,forced_choice_trial.thisRepN,forced_choice_trial.thisTrialN,forced_choice_trial.thisN,forced_choice_trial.thisIndex,forced_choice_trial.ran,enjoyment_slider.response,enjoyment_slider.rt,effort_slider.response,effort_slider.rt,show_loop2.thisRepN,show_loop2.thisTrialN,show_loop2.thisN,show_loop2.thisIndex,show_loop2.ran,trials_per_block.thisRepN,trials_per_block.thisTrialN,trials_per_block.thisN,trials_per_block.thisIndex,trials_per_block.ran,decision_phase_AFC.thisRepN,decision_phase_AFC.thisTrialN,decision_phase_AFC.thisN,decision_phase_AFC.thisIndex,decision_phase_AFC.ran,blockN,BlockLabel1,questIm1,BlockLabel2,questIm2,BlockLabel3,questIm3,quest_condition,showForcedChoice.thisRepN,showForcedChoice.thisTrialN,showForcedChoice.thisN,showForcedChoice.thisIndex,showForcedChoice.ran
0.406620382,-0.406481527,1,0,0,instruction_button,0,0,0,0,1,images/instructions_part1_LSM_taskversion1/Slide1.JPG,5b0b77a9d282ff00015b7531,001,3,2025-04-15_06h47.22.412,avatar_quest_3AFC_legacy,2022.1.3,Win32,119.047619,5b0b77a9d282ff00015b7531,67fe37cb3bd870bba73819bd,67fe38980acf42f4c0d2b490,,,,,,,,,,,,,,,,,,,,,,,,,,,,,,,,,,,,,,,,,,,,,,,,,,,,,,,,,,,,,,,,,,,,,,,,,,,,,
0.389953715,-0.4,1,0,0,instruction_button,0,1,1,1,1,images/instructions_part1_LSM_taskversion1/Slide2.JPG,5b0b77a9d282ff00015b7531,001,3,2025-04-15_06h47.22.412,avatar_quest_3AFC_legacy,2022.1.3,Win32,119.047619,5b0b77a9d282ff00015b7531,67fe37cb3bd870bba73819bd,67fe38980acf42f4c0d2b490,,,,,,,,,,,,,,,,,,,,,,,,,,,,,,,,,,,,,,,,,,,,,,,,,,,,,,,,,,,,,,,,,,,,,,,,,,,,,
0.379768575,-0.40462972,1,0,0,instruction_button,0,2,2,2,1,images/instructions_part1_LSM_taskversion1/Slide3.JPG,5b0b77a9d282ff00015b7531,001,3,2025-04-15_06h47.22.412,avatar_quest_3AFC_legacy,2022.1.3,Win32,119.047619,5b0b77a9d282ff00015b7531,67fe37cb3bd870bba73819bd,67fe38980acf42f4c0d2b490,,,,,,,,,,,,,,,,,,,,,,,,,,,,,,,,,,,,,,,,,,,,,,,,,,,,,,,,,,,,,,,,,,,,,,,,,,,,,
0.379768575,-0.40462972,1,0,0,instruction_button,0,3,3,3,1,images/instructions_part1_LSM_taskversion1/Slide3.5.JPG,5b0b77a9d282ff00015b7531,001,3,2025-04-15_06h47.22.412,avatar_quest_3AFC_legacy,2022.1.3,Win32,119.047619,5b0b77a9d282ff00015b7531,67fe37cb3bd870bba73819bd,67fe38980acf42f4c0d2b490,,,,,,,,,,,,,,,,,,,,,,,,,,,,,,,,,,,,,,,,,,,,,,,,,,,,,,,,,,,,,,,,,,,,,,,,,,,,,
0.379768575,-0.40462972,1,0,0,instruction_button,0,4,4,4,1,images/instructions_part1_LSM_taskversion1/Slide4.JPG,5b0b77a9d282ff00015b7531,001,3,2025-04-15_06h47.22.412,avatar_quest_3AFC_legacy,2022.1.3,Win32,119.047619,5b0b77a9d282ff00015b7531,67fe37cb3bd870bba73819bd,67fe38980acf42f4c0d2b490,,,,,,,,,,,,,,,,,,,,,,,,,,,,,,,,,,,,,,,,,,,,,,,,,,,,,,,,,,,,,,,,,,,,,,,,,,,,,
0.381620382,-0.39722229,1,0,0,instruction_button,0,5,5,5,1,images/instructions_part1_LSM_taskversion1/Slide6.5.JPG,5b0b77a9d282ff00015b7531,001,3,2025-04-15_06h47.22.412,avatar_quest_3AFC_legacy,2022.1.3,Win32,119.047619,5b0b77a9d282ff00015b7531,67fe37cb3bd870bba73819bd,67fe38980acf42f4c0d2b490,,,,,,,,,,,,,,,,,,,,,,,,,,,,,,,,,,,,,,,,,,,,,,,,,,,,,,,,,,,,,,,,,,,,,,,,,,,,,
,,,,,,,,,,,,5b0b77a9d282ff00015b7531,001,3,2025-04-15_06h47.22.412,avatar_quest_3AFC_legacy,2022.1.3,Win32,119.047619,5b0b77a9d282ff00015b7531,67fe37cb3bd870bba73819bd,67fe38980acf42f4c0d2b490,"[""left"",""left"",""right"",""right"",""right"",""right""]","[2.6800999999940416,3.592500000000001,3.846299999982108,4.106799999982115,4.512999999999991,5.313799999982109]",,calibration,No Brainslug No Barriers No Money,1,100,5.7534,5,0,0,TRUE,na,na,na,na,0,0,0,1,1,No Brainslug No Barriers No Money,0,images/assets/snowy_original.jpg,calibration,10,images/assets/success.jpg,images/assets/gameover.jpg,never,,,,,,,,,,,,,,,,,,,,,,,,,,,,,,,,,,,,,,,,,,,,,,,,
,,,,,,,,,,,,5b0b77a9d282ff00015b7531,001,3,2025-04-15_06h47.22.412,avatar_quest_3AFC_legacy,2022.1.3,Win32,119.047619,5b0b77a9d282ff00015b7531,67fe37cb3bd870bba73819bd,67fe38980acf42f4c0d2b490,"[""left"",""right"",""right"",""left"",""left"",""right""]","[2.399200000017885,4.060000000000002,4.373000000000005,5.916600000023848,6.35870000001789,7.319600000023854]",,calibration,No Brainslug No Barriers No Money,2,100,8.2469,6,0,37,TRUE,na,na,na,na,0,1,1,2,1,No Brainslug No Barriers No Money,0,images/assets/snowy_original.jpg,calibration,10,images/assets/success.jpg,images/assets/gameover.jpg,never,,,,,,,,,,,,,,,,,,,,,,,,,,,,,,,,,,,,,,,,,,,,,,,,
,,,,,,,,,,,,5b0b77a9d282ff00015b7531,001,3,2025-04-15_06h47.22.412,avatar_quest_3AFC_legacy,2022.1.3,Win32,119.047619,5b0b77a9d282ff00015b7531,67fe37cb3bd870bba73819bd,67fe38980acf42f4c0d2b490,"[""left"",""left"",""left"",""left"",""left"",""right""]","[2.881199999988084,3.5921999999880825,3.785399999976164,3.9231999999880856,4.524599999994052,4.864799999982125]",,calibration,No Brainslug No Barriers No Money,3,100,5.8032,4,0,0,TRUE,na,na,na,na,0,2,2,0,1,No Brainslug No Barriers No Money,0,images/assets/snowy_original.jpg,calibration,10,images/assets/success.jpg,images/assets/gameover.jpg,never,,,,,,,,,,,,,,,,,,,,,,,,,,,,,,,,,,,,,,,,,,,,,,,,
0.354768575,-0.392592672,1,0,0,instruction_button,,,,,,images/instructions_part2_LSM_taskversion3.jpg,5b0b77a9d282ff00015b7531,001,3,2025-04-15_06h47.22.412,avatar_quest_3AFC_legacy,2022.1.3,Win32,119.047619,5b0b77a9d282ff00015b7531,67fe37cb3bd870bba73819bd,67fe38980acf42f4c0d2b490,,,,,,,,,,,,,,,,,,,,,,,,,,,,,,0,0,0,0,1,,,,,,,,,,,,,,,,,,,,,,,,,,,,,,,,,,,,,,,,,,,
,,,,,,,,,,,,5b0b77a9d282ff00015b7531,001,3,2025-04-15_06h47.22.412,avatar_quest_3AFC_legacy,2022.1.3,Win32,119.047619,5b0b77a9d282ff00015b7531,67fe37cb3bd870bba73819bd,67fe38980acf42f4c0d2b490,,,,,,,,,,,,,,,,,,,,,,No Brainslug Difficult 1 No Money,6,images/assets/snowy_original.jpg,learning,20,images/assets/success.jpg,images/assets/gameover.jpg,,,,,,,,With Brainslug Difficult 1 No Money,With Brainslug Difficult 1 No Money,left,1.6359,"[""With Brainslug Difficult 2 No Money"",""With Brainslug Difficult 2 With Money""]",0,0,0,6,1,,,,,,,,,,,,,,,,,,,,,,,,,,,,,,,,
,,,,,,,,,,,,5b0b77a9d282ff00015b7531,001,3,2025-04-15_06h47.22.412,avatar_quest_3AFC_legacy,2022.1.3,Win32,119.047619,5b0b77a9d282ff00015b7531,67fe37cb3bd870bba73819bd,67fe38980acf42f4c0d2b490,,,,,,,,,,,,,,,,,,,,,,With Brainslug Difficult 2 With Money,12,images/assets/snowy_money.jpg,learning,20,images/assets/success_money.jpg,images/assets/gameover.jpg,,,,,,,,,,,,,0,1,1,2,1,,,,,,,,,,,,,,,,,,,,,,,,,,,,,,,,
,,,,,,,,,,,,5b0b77a9d282ff00015b7531,001,3,2025-04-15_06h47.22.412,avatar_quest_3AFC_legacy,2022.1.3,Win32,119.047619,5b0b77a9d282ff00015b7531,67fe37cb3bd870bba73819bd,67fe38980acf42f4c0d2b490,,,,,,,,,,,,,,,,,,,,,,With Brainslug Difficult 1 With Money,6,images/assets/snowy_money.jpg,learning,20,images/assets/success_money.jpg,images/assets/gameover.jpg,,,,,,,,,,,,,0,2,2,0,1,,,,,,,,,,,,,,,,,,,,,,,,,,,,,,,,
,,,,,,,,,,,,5b0b77a9d282ff00015b7531,001,3,2025-04-15_06h47.22.412,avatar_quest_3AFC_legacy,2022.1.3,Win32,119.047619,5b0b77a9d282ff00015b7531,67fe37cb3bd870bba73819bd,67fe38980acf42f4c0d2b490,,,,,,,,,,,,,,,,,,,,,,With Brainslug No Barriers With Money,0,images/assets/snowy_money.jpg,learning,10,images/assets/success_money.jpg,images/assets/gameover.jpg,,,,,,,,,,,,,0,3,3,4,1,,,,,,,,,,,,,,,,,,,,,,,,,,,,,,,,
,,,,,,,,,,,,5b0b77a9d282ff00015b7531,001,3,2025-04-15_06h47.22.412,avatar_quest_3AFC_legacy,2022.1.3,Win32,119.047619,5b0b77a9d282ff00015b7531,67fe37cb3bd870bba73819bd,67fe38980acf42f4c0d2b490,,,,,,,,,,,,,,,,,,,,,,With Brainslug No Barriers No Money,0,images/assets/snowy_original.jpg,learning,10,images/assets/success.jpg,images/assets/gameover.jpg,,,,,,,,,,,,,0,4,4,5,1,,,,,,,,,,,,,,,,,,,,,,,,,,,,,,,,
,,,,,,,,,,,,5b0b77a9d282ff00015b7531,001,3,2025-04-15_06h47.22.412,avatar_quest_3AFC_legacy,2022.1.3,Win32,119.047619,5b0b77a9d282ff00015b7531,67fe37cb3bd870bba73819bd,67fe38980acf42f4c0d2b490,,,,,,,,,,,,,,,,,,,,,,No Brainslug No Barriers With Money,0,images/assets/snowy_money.jpg,learning,10,images/assets/success_money.jpg,images/assets/gameover.jpg,,,,,,,,,,,,,0,5,5,9,1,,,,,,,,,,,,,,,,,,,,,,,,,,,,,,,,
,,,,,,,,,,,,5b0b77a9d282ff00015b7531,001,3,2025-04-15_06h47.22.412,avatar_quest_3AFC_legacy,2022.1.3,Win32,119.047619,5b0b77a9d282ff00015b7531,67fe37cb3bd870bba73819bd,67fe38980acf42f4c0d2b490,,,,,,,,,,,,,,,,,,,,,,No Brainslug Difficult 2 No Money,12,images/assets/snowy_original.jpg,learning,20,images/assets/success.jpg,images/assets/gameover.jpg,,,,,,,,,,,,,0,6,6,8,1,,,,,,,,,,,,,,,,,,,,,,,,,,,,,,,,
,,,,,,,,,,,,5b0b77a9d282ff00015b7531,001,3,2025-04-15_06h47.22.412,avatar_quest_3AFC_legacy,2022.1.3,Win32,119.047619,5b0b77a9d282ff00015b7531,67fe37cb3bd870bba73819bd,67fe38980acf42f4c0d2b490,,,,,,,,,,,,,,,,,,,,,,No Brainslug No Barriers No Money,0,images/assets/snowy_original.jpg,learning,10,images/assets/success.jpg,images/assets/gameover.jpg,,,,,,,,,,,,,0,7,7,10,1,,,,,,,,,,,,,,,,,,,,,,,,,,,,,,,,
,,,,,,,,,,,,5b0b77a9d282ff00015b7531,001,3,2025-04-15_06h47.22.412,avatar_quest_3AFC_legacy,2022.1.3,Win32,119.047619,5b0b77a9d282ff00015b7531,67fe37cb3bd870bba73819bd,67fe38980acf42f4c0d2b490,,,,,,,,,,,,,,,,,,,,,,No Brainslug Difficult 2 With Money,12,images/assets/snowy_money.jpg,learning,20,images/assets/success_money.jpg,images/assets/gameover.jpg,,,,,,,,,,,,,0,8,8,7,1,,,,,,,,,,,,,,,,,,,,,,,,,,,,,,,,
,,,,,,,,,,,,5b0b77a9d282ff00015b7531,001,3,2025-04-15_06h47.22.412,avatar_quest_3AFC_legacy,2022.1.3,Win32,119.047619,5b0b77a9d282ff00015b7531,67fe37cb3bd870bba73819bd,67fe38980acf42f4c0d2b490,,,,,,,,,,,,,,,,,,,,,,With Brainslug Difficult 2 No Money,12,images/assets/snowy_original.jpg,learning,20,images/assets/success.jpg,images/assets/gameover.jpg,,,,,,,,,,,,,0,9,9,3,1,,,,,,,,,,,,,,,,,,,,,,,,,,,,,,,,
,,,,,,,,,,,,5b0b77a9d282ff00015b7531,001,3,2025-04-15_06h47.22.412,avatar_quest_3AFC_legacy,2022.1.3,Win32,119.047619,5b0b77a9d282ff00015b7531,67fe37cb3bd870bba73819bd,67fe38980acf42f4c0d2b490,"[""down"",""right"",""right"",""left"",""left"",""left"",""left"",""left"",""right"",""left"",""left"",""left"",""left"",""right"",""right"",""right"",""left"",""left"",""left"",""left"",""left"",""left"",""left"",""left"",""right"",""right"",""right"",""down""]","[0.6098000000119157,1.2225999999940456,1.5914000000059616,2.709900000005959,2.9849999999999994,3.2719000000059566,3.8058000000119137,4.163699999988083,4.581800000011924,5.059199999988081,5.334900000005959,5.556300000011916,5.783500000000004,6.213800000011915,6.417400000005955,6.6284000000059535,7.043900000005962,7.248699999988077,7.466599999994045,7.611300000011923,7.831000000000003,7.974300000011922,8.122400000005953,8.34659999999404,8.797400000005965,9.088599999994045,9.43859999999404,9.588400000005961]",,calibration,With Brainslug Difficult 1 No Money,4,9.90175,9.969,11,3,0,FALSE,na,na,na,na,,,,,,,,,,,,,,,,,,,,,,,,,,,,,,,,,,0,0,0,0,1,,,,,,,,,,,,,,,,,,,,,,,
,,,,,,,,,,,,5b0b77a9d282ff00015b7531,001,3,2025-04-15_06h47.22.412,avatar_quest_3AFC_legacy,2022.1.3,Win32,119.047619,5b0b77a9d282ff00015b7531,67fe37cb3bd870bba73819bd,67fe38980acf42f4c0d2b490,,,,,,,,,,,,,,,,,,,,,,With Brainslug Difficult 1 No Money,6,images/assets/snowy_original.jpg,learning,20,images/assets/success.jpg,images/assets/gameover.jpg,,,,,,,,,,,,,0,10,10,1,1,,,,,,,,,,,,,,,,,,,,,,,,,,,,,,,,
,,,,,,,,,,,,5b0b77a9d282ff00015b7531,001,3,2025-04-15_06h47.22.412,avatar_quest_3AFC_legacy,2022.1.3,Win32,119.047619,5b0b77a9d282ff00015b7531,67fe37cb3bd870bba73819bd,67fe38980acf42f4c0d2b490,,,,,,,,,,,,,,,,,,,,,,,,,,,,,,,,,,,,,,,,,,,,,,,,,,,,,,,0,0,0,0,1,,,,,,,,,,,,,,,,,,
,,,,,,,,,,,,5b0b77a9d282ff00015b7531,001,3,2025-04-15_06h47.22.412,avatar_quest_3AFC_legacy,2022.1.3,Win32,119.047619,5b0b77a9d282ff00015b7531,67fe37cb3bd870bba73819bd,67fe38980acf42f4c0d2b490,,,,,,,,,,,,,,,,,,,,,,With Brainslug Difficult 1 With Money,6,images/assets/snowy_money.jpg,learning,20,images/assets/success_money.jpg,images/assets/gameover.jpg,,,,,,,,With Brainslug Difficult 2 No Money,With Brainslug Difficult 1 No Money,down,0.1225,"[""With Brainslug Difficult 1 No Money"",""With Brainslug Difficult 2 With Money""]",0,0,0,0,1,,,,,,,,,,,,,,,,,,,,,,,,,,,,,,,,
,,,,,,,,,,,,5b0b77a9d282ff00015b7531,001,3,2025-04-15_06h47.22.412,avatar_quest_3AFC_legacy,2022.1.3,Win32,119.047619,5b0b77a9d282ff00015b7531,67fe37cb3bd870bba73819bd,67fe38980acf42f4c0d2b490,,,,,,,,,,,,,,,,,,,,,,No Brainslug No Barriers With Money,0,images/assets/snowy_money.jpg,learning,10,images/assets/success_money.jpg,images/assets/gameover.jpg,,,,,,,,,,,,,0,1,1,9,1,,,,,,,,,,,,,,,,,,,,,,,,,,,,,,,,
,,,,,,,,,,,,5b0b77a9d282ff00015b7531,001,3,2025-04-15_06h47.22.412,avatar_quest_3AFC_legacy,2022.1.3,Win32,119.047619,5b0b77a9d282ff00015b7531,67fe37cb3bd870bba73819bd,67fe38980acf42f4c0d2b490,"[""left"",""left"",""down"",""right"",""right"",""right"",""right"",""left"",""left"",""right"",""left"",""left"",""left"",""right"",""right"",""left"",""right"",""left"",""right""]","[0.8832999999821141,1.4075999999940478,1.4780999999940434,2.37089999997616,2.7262999999821176,3.071799999982119,3.513899999976161,4.766299999982124,5.749699999988081,6.7650999999940495,7.155299999982134,7.610899999976169,7.959599999994069,8.24379999998213,8.508199999988094,8.654099999994045,9.066599999994068,9.278899999976161,9.837899999976187]",,calibration,With Brainslug Difficult 2 No Money,5,9.90175,9.9345,8,5,0,FALSE,na,na,na,na,,,,,,,,,,,,,,,,,,,,,,,,,,,,,,,,,,0,0,0,0,1,,,,,,,,,,,,,,,,,,,,,,,
,,,,,,,,,,,,5b0b77a9d282ff00015b7531,001,3,2025-04-15_06h47.22.412,avatar_quest_3AFC_legacy,2022.1.3,Win32,119.047619,5b0b77a9d282ff00015b7531,67fe37cb3bd870bba73819bd,67fe38980acf42f4c0d2b490,,,,,,,,,,,,,,,,,,,,,,With Brainslug Difficult 2 No Money,12,images/assets/snowy_original.jpg,learning,20,images/assets/success.jpg,images/assets/gameover.jpg,,,,,,,,,,,,,0,2,2,3,1,,,,,,,,,,,,,,,,,,,,,,,,,,,,,,,,
,,,,,,,,,,,,5b0b77a9d282ff00015b7531,001,3,2025-04-15_06h47.22.412,avatar_quest_3AFC_legacy,2022.1.3,Win32,119.047619,5b0b77a9d282ff00015b7531,67fe37cb3bd870bba73819bd,67fe38980acf42f4c0d2b490,,,,,,,,,,,,,,,,,,,,,,With Brainslug Difficult 2 With Money,12,images/assets/snowy_money.jpg,learning,20,images/assets/success_money.jpg,images/assets/gameover.jpg,,,,,,,,,,,,,0,3,3,2,1,,,,,,,,,,,,,,,,,,,,,,,,,,,,,,,,
,,,,,,,,,,,,5b0b77a9d282ff00015b7531,001,3,2025-04-15_06h47.22.412,avatar_quest_3AFC_legacy,2022.1.3,Win32,119.047619,5b0b77a9d282ff00015b7531,67fe37cb3bd870bba73819bd,67fe38980acf42f4c0d2b490,,,,,,,,,,,,,,,,,,,,,,No Brainslug Difficult 1 No Money,6,images/assets/snowy_original.jpg,learning,20,images/assets/success.jpg,images/assets/gameover.jpg,,,,,,,,,,,,,0,4,4,6,1,,,,,,,,,,,,,,,,,,,,,,,,,,,,,,,,
,,,,,,,,,,,,5b0b77a9d282ff00015b7531,001,3,2025-04-15_06h47.22.412,avatar_quest_3AFC_legacy,2022.1.3,Win32,119.047619,5b0b77a9d282ff00015b7531,67fe37cb3bd870bba73819bd,67fe38980acf42f4c0d2b490,,,,,,,,,,,,,,,,,,,,,,No Brainslug Difficult 2 No Money,12,images/assets/snowy_original.jpg,learning,20,images/assets/success.jpg,images/assets/gameover.jpg,,,,,,,,,,,,,0,5,5,8,1,,,,,,,,,,,,,,,,,,,,,,,,,,,,,,,,
,,,,,,,,,,,,5b0b77a9d282ff00015b7531,001,3,2025-04-15_06h47.22.412,avatar_quest_3AFC_legacy,2022.1.3,Win32,119.047619,5b0b77a9d282ff00015b7531,67fe37cb3bd870bba73819bd,67fe38980acf42f4c0d2b490,,,,,,,,,,,,,,,,,,,,,,With Brainslug Difficult 1 No Money,6,images/assets/snowy_original.jpg,learning,20,images/assets/success.jpg,images/assets/gameover.jpg,,,,,,,,,,,,,0,6,6,1,1,,,,,,,,,,,,,,,,,,,,,,,,,,,,,,,,
,,,,,,,,,,,,5b0b77a9d282ff00015b7531,001,3,2025-04-15_06h47.22.412,avatar_quest_3AFC_legacy,2022.1.3,Win32,119.047619,5b0b77a9d282ff00015b7531,67fe37cb3bd870bba73819bd,67fe38980acf42f4c0d2b490,,,,,,,,,,,,,,,,,,,,,,With Brainslug No Barriers With Money,0,images/assets/snowy_money.jpg,learning,10,images/assets/success_money.jpg,images/assets/gameover.jpg,,,,,,,,,,,,,0,7,7,4,1,,,,,,,,,,,,,,,,,,,,,,,,,,,,,,,,
,,,,,,,,,,,,5b0b77a9d282ff00015b7531,001,3,2025-04-15_06h47.22.412,avatar_quest_3AFC_legacy,2022.1.3,Win32,119.047619,5b0b77a9d282ff00015b7531,67fe37cb3bd870bba73819bd,67fe38980acf42f4c0d2b490,,,,,,,,,,,,,,,,,,,,,,No Brainslug Difficult 2 With Money,12,images/assets/snowy_money.jpg,learning,20,images/assets/success_money.jpg,images/assets/gameover.jpg,,,,,,,,,,,,,0,8,8,7,1,,,,,,,,,,,,,,,,,,,,,,,,,,,,,,,,
,,,,,,,,,,,,5b0b77a9d282ff00015b7531,001,3,2025-04-15_06h47.22.412,avatar_quest_3AFC_legacy,2022.1.3,Win32,119.047619,5b0b77a9d282ff00015b7531,67fe37cb3bd870bba73819bd,67fe38980acf42f4c0d2b490,,,,,,,,,,,,,,,,,,,,,,With Brainslug No Barriers No Money,0,images/assets/snowy_original.jpg,learning,10,images/assets/success.jpg,images/assets/gameover.jpg,,,,,,,,,,,,,0,9,9,5,1,,,,,,,,,,,,,,,,,,,,,,,,,,,,,,,,
,,,,,,,,,,,,5b0b77a9d282ff00015b7531,001,3,2025-04-15_06h47.22.412,avatar_quest_3AFC_legacy,2022.1.3,Win32,119.047619,5b0b77a9d282ff00015b7531,67fe37cb3bd870bba73819bd,67fe38980acf42f4c0d2b490,,,,,,,,,,,,,,,,,,,,,,No Brainslug No Barriers No Money,0,images/assets/snowy_original.jpg,learning,10,images/assets/success.jpg,images/assets/gameover.jpg,,,,,,,,,,,,,0,10,10,10,1,,,,,,,,,,,,,,,,,,,,,,,,,,,,,,,,
,,,,,,,,,,,,5b0b77a9d282ff00015b7531,001,3,2025-04-15_06h47.22.412,avatar_quest_3AFC_legacy,2022.1.3,Win32,119.047619,5b0b77a9d282ff00015b7531,67fe37cb3bd870bba73819bd,67fe38980acf42f4c0d2b490,,,,,,,,,,,,,,,,,,,,,,,,,,,,,,,,,,,,,,,,,,,,,,,,,,,,,,,1,0,1,0,1,,,,,,,,,,,,,,,,,,
,,,,,,,,,,,,5b0b77a9d282ff00015b7531,001,3,2025-04-15_06h47.22.412,avatar_quest_3AFC_legacy,2022.1.3,Win32,119.047619,5b0b77a9d282ff00015b7531,67fe37cb3bd870bba73819bd,67fe38980acf42f4c0d2b490,,,,,,,,,,,,,,,,,,,,,,With Brainslug Difficult 1 No Money,6,images/assets/snowy_original.jpg,learning,20,images/assets/success.jpg,images/assets/gameover.jpg,,,,,,,,With Brainslug Difficult 2 With Money,With Brainslug Difficult 1 No Money,right,0.74,"[""With Brainslug Difficult 1 No Money"",""With Brainslug Difficult 2 No Money""]",0,0,0,1,1,,,,,,,,,,,,,,,,,,,,,,,,,,,,,,,,
,,,,,,,,,,,,5b0b77a9d282ff00015b7531,001,3,2025-04-15_06h47.22.412,avatar_quest_3AFC_legacy,2022.1.3,Win32,119.047619,5b0b77a9d282ff00015b7531,67fe37cb3bd870bba73819bd,67fe38980acf42f4c0d2b490,,,,,,,,,,,,,,,,,,,,,,With Brainslug Difficult 1 With Money,6,images/assets/snowy_money.jpg,learning,20,images/assets/success_money.jpg,images/assets/gameover.jpg,,,,,,,,,,,,,0,1,1,0,1,,,,,,,,,,,,,,,,,,,,,,,,,,,,,,,,
,,,,,,,,,,,,5b0b77a9d282ff00015b7531,001,3,2025-04-15_06h47.22.412,avatar_quest_3AFC_legacy,2022.1.3,Win32,119.047619,5b0b77a9d282ff00015b7531,67fe37cb3bd870bba73819bd,67fe38980acf42f4c0d2b490,,,,,,,,,,,,,,,,,,,,,,No Brainslug Difficult 1 No Money,6,images/assets/snowy_original.jpg,learning,20,images/assets/success.jpg,images/assets/gameover.jpg,,,,,,,,,,,,,0,2,2,6,1,,,,,,,,,,,,,,,,,,,,,,,,,,,,,,,,
,,,,,,,,,,,,5b0b77a9d282ff00015b7531,001,3,2025-04-15_06h47.22.412,avatar_quest_3AFC_legacy,2022.1.3,Win32,119.047619,5b0b77a9d282ff00015b7531,67fe37cb3bd870bba73819bd,67fe38980acf42f4c0d2b490,,,,,,,,,,,,,,,,,,,,,,No Brainslug Difficult 2 No Money,12,images/assets/snowy_original.jpg,learning,20,images/assets/success.jpg,images/assets/gameover.jpg,,,,,,,,,,,,,0,3,3,8,1,,,,,,,,,,,,,,,,,,,,,,,,,,,,,,,,
,,,,,,,,,,,,5b0b77a9d282ff00015b7531,001,3,2025-04-15_06h47.22.412,avatar_quest_3AFC_legacy,2022.1.3,Win32,119.047619,5b0b77a9d282ff00015b7531,67fe37cb3bd870bba73819bd,67fe38980acf42f4c0d2b490,,,,,,,,,,,,,,,,,,,,,,No Brainslug Difficult 2 With Money,12,images/assets/snowy_money.jpg,learning,20,images/assets/success_money.jpg,images/assets/gameover.jpg,,,,,,,,,,,,,0,4,4,7,1,,,,,,,,,,,,,,,,,,,,,,,,,,,,,,,,
,,,,,,,,,,,,5b0b77a9d282ff00015b7531,001,3,2025-04-15_06h47.22.412,avatar_quest_3AFC_legacy,2022.1.3,Win32,119.047619,5b0b77a9d282ff00015b7531,67fe37cb3bd870bba73819bd,67fe38980acf42f4c0d2b490,,,,,,,,,,,,,,,,,,,,,,With Brainslug Difficult 2 No Money,12,images/assets/snowy_original.jpg,learning,20,images/assets/success.jpg,images/assets/gameover.jpg,,,,,,,,,,,,,0,5,5,3,1,,,,,,,,,,,,,,,,,,,,,,,,,,,,,,,,
,,,,,,,,,,,,5b0b77a9d282ff00015b7531,001,3,2025-04-15_06h47.22.412,avatar_quest_3AFC_legacy,2022.1.3,Win32,119.047619,5b0b77a9d282ff00015b7531,67fe37cb3bd870bba73819bd,67fe38980acf42f4c0d2b490,,,,,,,,,,,,,,,,,,,,,,With Brainslug No Barriers No Money,0,images/assets/snowy_original.jpg,learning,10,images/assets/success.jpg,images/assets/gameover.jpg,,,,,,,,,,,,,0,6,6,5,1,,,,,,,,,,,,,,,,,,,,,,,,,,,,,,,,
,,,,,,,,,,,,5b0b77a9d282ff00015b7531,001,3,2025-04-15_06h47.22.412,avatar_quest_3AFC_legacy,2022.1.3,Win32,119.047619,5b0b77a9d282ff00015b7531,67fe37cb3bd870bba73819bd,67fe38980acf42f4c0d2b490,,,,,,,,,,,,,,,,,,,,,,With Brainslug No Barriers With Money,0,images/assets/snowy_money.jpg,learning,10,images/assets/success_money.jpg,images/assets/gameover.jpg,,,,,,,,,,,,,0,7,7,4,1,,,,,,,,,,,,,,,,,,,,,,,,,,,,,,,,
,,,,,,,,,,,,5b0b77a9d282ff00015b7531,001,3,2025-04-15_06h47.22.412,avatar_quest_3AFC_legacy,2022.1.3,Win32,119.047619,5b0b77a9d282ff00015b7531,67fe37cb3bd870bba73819bd,67fe38980acf42f4c0d2b490,,,,,,,,,,,,,,,,,,,,,,No Brainslug No Barriers With Money,0,images/assets/snowy_money.jpg,learning,10,images/assets/success_money.jpg,images/assets/gameover.jpg,,,,,,,,,,,,,0,8,8,9,1,,,,,,,,,,,,,,,,,,,,,,,,,,,,,,,,
,,,,,,,,,,,,5b0b77a9d282ff00015b7531,001,3,2025-04-15_06h47.22.412,avatar_quest_3AFC_legacy,2022.1.3,Win32,119.047619,5b0b77a9d282ff00015b7531,67fe37cb3bd870bba73819bd,67fe38980acf42f4c0d2b490,,,,,,,,,,,,,,,,,,,,,,No Brainslug No Barriers No Money,0,images/assets/snowy_original.jpg,learning,10,images/assets/success.jpg,images/assets/gameover.jpg,,,,,,,,,,,,,0,9,9,10,1,,,,,,,,,,,,,,,,,,,,,,,,,,,,,,,,
,,,,,,,,,,,,5b0b77a9d282ff00015b7531,001,3,2025-04-15_06h47.22.412,avatar_quest_3AFC_legacy,2022.1.3,Win32,119.047619,5b0b77a9d282ff00015b7531,67fe37cb3bd870bba73819bd,67fe38980acf42f4c0d2b490,"[""left"",""left"",""right"",""right"",""right"",""left"",""left"",""left"",""left"",""left"",""right"",""right"",""left"",""left"",""left"",""left"",""right"",""right"",""left"",""left"",""left"",""right"",""right"",""right"",""down"",""down"",""right"",""right"",""right"",""right"",""right"",""right"",""right"",""left"",""left"",""left"",""right"",""right"",""right"",""right"",""left""]","[0.7152000000178873,1.309500000000014,1.5299000000059664,1.9000000000000057,2.251499999999993,2.321100000023847,2.6118000000119252,2.7628000000119073,2.9170000000000016,3.0689999999999884,3.297200000017881,3.4511000000238425,3.6734000000059552,3.806999999999988,3.967000000000013,4.117500000000007,4.264900000005952,4.4919000000059555,4.643300000011919,4.795300000011935,4.8807000000178675,5.179600000023839,5.3300000000000125,5.561600000023844,5.8462000000178875,5.999700000017867,6.210800000011915,6.346900000005974,6.496600000023847,6.646300000011934,6.784500000000008,6.928900000005967,7.077100000023847,7.2913000000119155,7.4410000000000025,7.583400000005952,7.720800000011934,7.86099999999999,8.060200000017886,8.195900000005963,8.774600000023838]",,calibration,With Brainslug Difficult 2 With Money,6,9.90175,8.8708,15,6,0,TRUE,na,na,na,na,,,,,,,,,,,,,,,,,,,,,,,,,,,,,,,,,,0,0,0,0,1,,,,,,,,,,,,,,,,,,,,,,,
,,,,,,,,,,,,5b0b77a9d282ff00015b7531,001,3,2025-04-15_06h47.22.412,avatar_quest_3AFC_legacy,2022.1.3,Win32,119.047619,5b0b77a9d282ff00015b7531,67fe37cb3bd870bba73819bd,67fe38980acf42f4c0d2b490,,,,,,,,,,,,,,,,,,,,,,With Brainslug Difficult 2 With Money,12,images/assets/snowy_money.jpg,learning,20,images/assets/success_money.jpg,images/assets/gameover.jpg,,,,,,,,,,,,,0,10,10,2,1,,,,,,,,,,,,,,,,,,,,,,,,,,,,,,,,
,,,,,,,,,,,,5b0b77a9d282ff00015b7531,001,3,2025-04-15_06h47.22.412,avatar_quest_3AFC_legacy,2022.1.3,Win32,119.047619,5b0b77a9d282ff00015b7531,67fe37cb3bd870bba73819bd,67fe38980acf42f4c0d2b490,,,,,,,,,,,,,,,,,,,,,,,,,,,,,,,,,,,,,,,,,,,,,,,,,,,,,,,2,0,2,0,1,,,,,,,,,,,,,,,,,,
,,,,,,,,,,,,5b0b77a9d282ff00015b7531,001,3,2025-04-15_06h47.22.412,avatar_quest_3AFC_legacy,2022.1.3,Win32,119.047619,5b0b77a9d282ff00015b7531,67fe37cb3bd870bba73819bd,67fe38980acf42f4c0d2b490,,,,,,,,,,,,,,,,,,,,,,No Brainslug No Barriers With Money,0,images/assets/snowy_money.jpg,learning,10,images/assets/success_money.jpg,images/assets/gameover.jpg,,,,,,,,With Brainslug Difficult 2 With Money,With Brainslug Difficult 1 No Money,right,0.6606,"[""With Brainslug Difficult 1 No Money"",""With Brainslug Difficult 2 No Money""]",0,0,0,9,1,,,,,,,,,,,,,,,,,,,,,,,,,,,,,,,,
,,,,,,,,,,,,5b0b77a9d282ff00015b7531,001,3,2025-04-15_06h47.22.412,avatar_quest_3AFC_legacy,2022.1.3,Win32,119.047619,5b0b77a9d282ff00015b7531,67fe37cb3bd870bba73819bd,67fe38980acf42f4c0d2b490,,,,,,,,,,,,,,,,,,,,,,No Brainslug Difficult 2 No Money,12,images/assets/snowy_original.jpg,learning,20,images/assets/success.jpg,images/assets/gameover.jpg,,,,,,,,,,,,,0,1,1,8,1,,,,,,,,,,,,,,,,,,,,,,,,,,,,,,,,
,,,,,,,,,,,,5b0b77a9d282ff00015b7531,001,3,2025-04-15_06h47.22.412,avatar_quest_3AFC_legacy,2022.1.3,Win32,119.047619,5b0b77a9d282ff00015b7531,67fe37cb3bd870bba73819bd,67fe38980acf42f4c0d2b490,,,,,,,,,,,,,,,,,,,,,,With Brainslug Difficult 2 No Money,12,images/assets/snowy_original.jpg,learning,20,images/assets/success.jpg,images/assets/gameover.jpg,,,,,,,,,,,,,0,2,2,3,1,,,,,,,,,,,,,,,,,,,,,,,,,,,,,,,,
,,,,,,,,,,,,5b0b77a9d282ff00015b7531,001,3,2025-04-15_06h47.22.412,avatar_quest_3AFC_legacy,2022.1.3,Win32,119.047619,5b0b77a9d282ff00015b7531,67fe37cb3bd870bba73819bd,67fe38980acf42f4c0d2b490,,,,,,,,,,,,,,,,,,,,,,With Brainslug Difficult 1 With Money,6,images/assets/snowy_money.jpg,learning,20,images/assets/success_money.jpg,images/assets/gameover.jpg,,,,,,,,,,,,,0,3,3,0,1,,,,,,,,,,,,,,,,,,,,,,,,,,,,,,,,
,,,,,,,,,,,,5b0b77a9d282ff00015b7531,001,3,2025-04-15_06h47.22.412,avatar_quest_3AFC_legacy,2022.1.3,Win32,119.047619,5b0b77a9d282ff00015b7531,67fe37cb3bd870bba73819bd,67fe38980acf42f4c0d2b490,,,,,,,,,,,,,,,,,,,,,,With Brainslug Difficult 1 No Money,6,images/assets/snowy_original.jpg,learning,20,images/assets/success.jpg,images/assets/gameover.jpg,,,,,,,,,,,,,0,4,4,1,1,,,,,,,,,,,,,,,,,,,,,,,,,,,,,,,,
,,,,,,,,,,,,5b0b77a9d282ff00015b7531,001,3,2025-04-15_06h47.22.412,avatar_quest_3AFC_legacy,2022.1.3,Win32,119.047619,5b0b77a9d282ff00015b7531,67fe37cb3bd870bba73819bd,67fe38980acf42f4c0d2b490,,,,,,,,,,,,,,,,,,,,,,No Brainslug Difficult 1 No Money,6,images/assets/snowy_original.jpg,learning,20,images/assets/success.jpg,images/assets/gameover.jpg,,,,,,,,,,,,,0,5,5,6,1,,,,,,,,,,,,,,,,,,,,,,,,,,,,,,,,
,,,,,,,,,,,,5b0b77a9d282ff00015b7531,001,3,2025-04-15_06h47.22.412,avatar_quest_3AFC_legacy,2022.1.3,Win32,119.047619,5b0b77a9d282ff00015b7531,67fe37cb3bd870bba73819bd,67fe38980acf42f4c0d2b490,,,,,,,,,,,,,,,,,,,,,,No Brainslug Difficult 2 With Money,12,images/assets/snowy_money.jpg,learning,20,images/assets/success_money.jpg,images/assets/gameover.jpg,,,,,,,,,,,,,0,6,6,7,1,,,,,,,,,,,,,,,,,,,,,,,,,,,,,,,,
,,,,,,,,,,,,5b0b77a9d282ff00015b7531,001,3,2025-04-15_06h47.22.412,avatar_quest_3AFC_legacy,2022.1.3,Win32,119.047619,5b0b77a9d282ff00015b7531,67fe37cb3bd870bba73819bd,67fe38980acf42f4c0d2b490,,,,,,,,,,,,,,,,,,,,,,With Brainslug No Barriers No Money,0,images/assets/snowy_original.jpg,learning,10,images/assets/success.jpg,images/assets/gameover.jpg,,,,,,,,,,,,,0,7,7,5,1,,,,,,,,,,,,,,,,,,,,,,,,,,,,,,,,
,,,,,,,,,,,,5b0b77a9d282ff00015b7531,001,3,2025-04-15_06h47.22.412,avatar_quest_3AFC_legacy,2022.1.3,Win32,119.047619,5b0b77a9d282ff00015b7531,67fe37cb3bd870bba73819bd,67fe38980acf42f4c0d2b490,"[""left"",""left"",""left"",""left"",""left"",""right"",""right"",""right"",""right"",""right"",""left"",""left"",""left"",""left"",""left"",""right"",""right"",""right"",""right"",""right"",""left"",""left"",""left"",""left"",""right"",""right"",""right"",""left"",""left"",""left"",""left"",""right"",""right"",""right"",""right"",""right"",""right"",""left"",""left"",""left"",""left"",""right"",""left"",""right"",""right"",""right"",""right"",""right"",""right"",""right"",""right"",""left"",""right"",""left"",""left""]","[0.5696999999880745,0.7729999999999961,0.9110999999940361,0.9851999999880832,1.133699999988096,1.271399999976154,1.4215000000000089,1.5700000000000216,1.7238999999761688,1.859499999999997,1.9350000000000023,2.149699999988087,2.2241999999880875,2.3621999999880927,2.5660000000000025,2.9247999999821275,3.248000000000019,3.680599999994058,4.241799999982135,4.502399999976177,4.722299999982113,4.9293999999761695,5.069299999982121,5.2171999999880825,5.362500000000011,5.509099999994049,5.6452999999821145,5.781499999999994,5.916599999994048,5.989599999994056,6.140399999976154,6.279399999976164,6.4231999999881,6.646799999982136,6.793599999994058,6.929000000000002,7.131500000000017,7.333399999976166,7.482299999982132,7.7675000000000125,7.986599999994041,8.128199999988084,8.203099999994038,8.33850000000001,8.462199999988087,8.605599999994041,8.745799999982125,8.821500000000015,8.969599999994045,9.099899999976174,9.235399999976153,9.365399999976177,9.426399999976155,9.623099999994054,9.768099999994035]",,calibration,With Brainslug Difficult 2 With Money,7,9.90175,9.93,25,7,0,FALSE,na,na,na,na,,,,,,,,,,,,,,,,,,,,,,,,,,,,,,,,,,0,0,0,0,1,,,,,,,,,,,,,,,,,,,,,,,
,,,,,,,,,,,,5b0b77a9d282ff00015b7531,001,3,2025-04-15_06h47.22.412,avatar_quest_3AFC_legacy,2022.1.3,Win32,119.047619,5b0b77a9d282ff00015b7531,67fe37cb3bd870bba73819bd,67fe38980acf42f4c0d2b490,,,,,,,,,,,,,,,,,,,,,,With Brainslug Difficult 2 With Money,12,images/assets/snowy_money.jpg,learning,20,images/assets/success_money.jpg,images/assets/gameover.jpg,,,,,,,,,,,,,0,8,8,2,1,,,,,,,,,,,,,,,,,,,,,,,,,,,,,,,,
,,,,,,,,,,,,5b0b77a9d282ff00015b7531,001,3,2025-04-15_06h47.22.412,avatar_quest_3AFC_legacy,2022.1.3,Win32,119.047619,5b0b77a9d282ff00015b7531,67fe37cb3bd870bba73819bd,67fe38980acf42f4c0d2b490,,,,,,,,,,,,,,,,,,,,,,With Brainslug No Barriers With Money,0,images/assets/snowy_money.jpg,learning,10,images/assets/success_money.jpg,images/assets/gameover.jpg,,,,,,,,,,,,,0,9,9,4,1,,,,,,,,,,,,,,,,,,,,,,,,,,,,,,,,
,,,,,,,,,,,,5b0b77a9d282ff00015b7531,001,3,2025-04-15_06h47.22.412,avatar_quest_3AFC_legacy,2022.1.3,Win32,119.047619,5b0b77a9d282ff00015b7531,67fe37cb3bd870bba73819bd,67fe38980acf42f4c0d2b490,,,,,,,,,,,,,,,,,,,,,,No Brainslug No Barriers No Money,0,images/assets/snowy_original.jpg,learning,10,images/assets/success.jpg,images/assets/gameover.jpg,,,,,,,,,,,,,0,10,10,10,1,,,,,,,,,,,,,,,,,,,,,,,,,,,,,,,,
,,,,,,,,,,,,5b0b77a9d282ff00015b7531,001,3,2025-04-15_06h47.22.412,avatar_quest_3AFC_legacy,2022.1.3,Win32,119.047619,5b0b77a9d282ff00015b7531,67fe37cb3bd870bba73819bd,67fe38980acf42f4c0d2b490,,,,,,,,,,,,,,,,,,,,,,,,,,,,,,,,,,,,,,,,,,,,,,,,,,,,,,,3,0,3,0,1,,,,,,,,,,,,,,,,,,
,,,,,,,,,,,,5b0b77a9d282ff00015b7531,001,3,2025-04-15_06h47.22.412,avatar_quest_3AFC_legacy,2022.1.3,Win32,119.047619,5b0b77a9d282ff00015b7531,67fe37cb3bd870bba73819bd,67fe38980acf42f4c0d2b490,,,,,,,,,,,,,,,,,,,,,,No Brainslug Difficult 2 With Money,12,images/assets/snowy_money.jpg,learning,20,images/assets/success_money.jpg,images/assets/gameover.jpg,,,,,,,,With Brainslug Difficult 2 With Money,With Brainslug Difficult 1 No Money,right,0.0809,"[""With Brainslug Difficult 1 No Money"",""With Brainslug Difficult 2 No Money""]",0,0,0,7,1,,,,,,,,,,,,,,,,,,,,,,,,,,,,,,,,
,,,,,,,,,,,,5b0b77a9d282ff00015b7531,001,3,2025-04-15_06h47.22.412,avatar_quest_3AFC_legacy,2022.1.3,Win32,119.047619,5b0b77a9d282ff00015b7531,67fe37cb3bd870bba73819bd,67fe38980acf42f4c0d2b490,,,,,,,,,,,,,,,,,,,,,,With Brainslug No Barriers With Money,0,images/assets/snowy_money.jpg,learning,10,images/assets/success_money.jpg,images/assets/gameover.jpg,,,,,,,,,,,,,0,1,1,4,1,,,,,,,,,,,,,,,,,,,,,,,,,,,,,,,,
,,,,,,,,,,,,5b0b77a9d282ff00015b7531,001,3,2025-04-15_06h47.22.412,avatar_quest_3AFC_legacy,2022.1.3,Win32,119.047619,5b0b77a9d282ff00015b7531,67fe37cb3bd870bba73819bd,67fe38980acf42f4c0d2b490,,,,,,,,,,,,,,,,,,,,,,No Brainslug No Barriers With Money,0,images/assets/snowy_money.jpg,learning,10,images/assets/success_money.jpg,images/assets/gameover.jpg,,,,,,,,,,,,,0,2,2,9,1,,,,,,,,,,,,,,,,,,,,,,,,,,,,,,,,
,,,,,,,,,,,,5b0b77a9d282ff00015b7531,001,3,2025-04-15_06h47.22.412,avatar_quest_3AFC_legacy,2022.1.3,Win32,119.047619,5b0b77a9d282ff00015b7531,67fe37cb3bd870bba73819bd,67fe38980acf42f4c0d2b490,,,,,,,,,,,,,,,,,,,,,,No Brainslug Difficult 1 No Money,6,images/assets/snowy_original.jpg,learning,20,images/assets/success.jpg,images/assets/gameover.jpg,,,,,,,,,,,,,0,3,3,6,1,,,,,,,,,,,,,,,,,,,,,,,,,,,,,,,,
,,,,,,,,,,,,5b0b77a9d282ff00015b7531,001,3,2025-04-15_06h47.22.412,avatar_quest_3AFC_legacy,2022.1.3,Win32,119.047619,5b0b77a9d282ff00015b7531,67fe37cb3bd870bba73819bd,67fe38980acf42f4c0d2b490,"[""right"",""right"",""right"",""right"",""right"",""right"",""left"",""left"",""left"",""left"",""right"",""right"",""right"",""left"",""left"",""left"",""left"",""left"",""left"",""left"",""left"",""down"",""right"",""right"",""right"",""left"",""left"",""left"",""left"",""left"",""right"",""right"",""right"",""right"",""right"",""right"",""right"",""right"",""right"",""right"",""right"",""right"",""right"",""left"",""left"",""left"",""left"",""left"",""left"",""left"",""left"",""left""]","[0.3626999999880809,0.5150000000000148,0.7040000000000077,0.9159000000059621,1.0473000000119157,1.1964000000059514,1.3515999999940504,1.503300000011933,1.6550000000000011,1.8536999999880948,1.928400000005979,2.077099999994033,2.2076999999880798,2.3478000000119152,2.4871999999880927,2.6386999999880913,2.845699999988085,2.994800000011935,3.131099999994035,3.4095000000000084,3.614099999994039,3.743400000005977,4.111000000000018,4.254500000000007,4.4010000000000105,4.60269999998809,5.083500000000015,5.22769999998809,5.372699999988072,5.805499999999995,6.030099999994036,6.242099999994053,6.372900000005956,6.511900000005966,6.659300000011939,6.84880000001192,7.073300000011926,7.275699999988092,7.3514000000059525,7.498699999988077,7.63300000000001,7.707800000011929,7.855400000005972,8.089099999994033,8.303099999994032,8.456300000011936,8.668199999988076,9.02709999999405,9.172599999994048,9.402999999999992,9.548400000005955,9.690699999988084]",,calibration,With Brainslug Difficult 2 With Money,8,9.90175,9.9296,18,4,0,FALSE,na,na,na,na,,,,,,,,,,,,,,,,,,,,,,,,,,,,,,,,,,0,0,0,0,1,,,,,,,,,,,,,,,,,,,,,,,
,,,,,,,,,,,,5b0b77a9d282ff00015b7531,001,3,2025-04-15_06h47.22.412,avatar_quest_3AFC_legacy,2022.1.3,Win32,119.047619,5b0b77a9d282ff00015b7531,67fe37cb3bd870bba73819bd,67fe38980acf42f4c0d2b490,,,,,,,,,,,,,,,,,,,,,,With Brainslug Difficult 2 With Money,12,images/assets/snowy_money.jpg,learning,20,images/assets/success_money.jpg,images/assets/gameover.jpg,,,,,,,,,,,,,0,4,4,2,1,,,,,,,,,,,,,,,,,,,,,,,,,,,,,,,,
,,,,,,,,,,,,5b0b77a9d282ff00015b7531,001,3,2025-04-15_06h47.22.412,avatar_quest_3AFC_legacy,2022.1.3,Win32,119.047619,5b0b77a9d282ff00015b7531,67fe37cb3bd870bba73819bd,67fe38980acf42f4c0d2b490,,,,,,,,,,,,,,,,,,,,,,With Brainslug Difficult 1 No Money,6,images/assets/snowy_original.jpg,learning,20,images/assets/success.jpg,images/assets/gameover.jpg,,,,,,,,,,,,,0,5,5,1,1,,,,,,,,,,,,,,,,,,,,,,,,,,,,,,,,
,,,,,,,,,,,,5b0b77a9d282ff00015b7531,001,3,2025-04-15_06h47.22.412,avatar_quest_3AFC_legacy,2022.1.3,Win32,119.047619,5b0b77a9d282ff00015b7531,67fe37cb3bd870bba73819bd,67fe38980acf42f4c0d2b490,,,,,,,,,,,,,,,,,,,,,,With Brainslug Difficult 2 No Money,12,images/assets/snowy_original.jpg,learning,20,images/assets/success.jpg,images/assets/gameover.jpg,,,,,,,,,,,,,0,6,6,3,1,,,,,,,,,,,,,,,,,,,,,,,,,,,,,,,,
,,,,,,,,,,,,5b0b77a9d282ff00015b7531,001,3,2025-04-15_06h47.22.412,avatar_quest_3AFC_legacy,2022.1.3,Win32,119.047619,5b0b77a9d282ff00015b7531,67fe37cb3bd870bba73819bd,67fe38980acf42f4c0d2b490,,,,,,,,,,,,,,,,,,,,,,With Brainslug No Barriers No Money,0,images/assets/snowy_original.jpg,learning,10,images/assets/success.jpg,images/assets/gameover.jpg,,,,,,,,,,,,,0,7,7,5,1,,,,,,,,,,,,,,,,,,,,,,,,,,,,,,,,
,,,,,,,,,,,,5b0b77a9d282ff00015b7531,001,3,2025-04-15_06h47.22.412,avatar_quest_3AFC_legacy,2022.1.3,Win32,119.047619,5b0b77a9d282ff00015b7531,67fe37cb3bd870bba73819bd,67fe38980acf42f4c0d2b490,,,,,,,,,,,,,,,,,,,,,,With Brainslug Difficult 1 With Money,6,images/assets/snowy_money.jpg,learning,20,images/assets/success_money.jpg,images/assets/gameover.jpg,,,,,,,,,,,,,0,8,8,0,1,,,,,,,,,,,,,,,,,,,,,,,,,,,,,,,,
,,,,,,,,,,,,5b0b77a9d282ff00015b7531,001,3,2025-04-15_06h47.22.412,avatar_quest_3AFC_legacy,2022.1.3,Win32,119.047619,5b0b77a9d282ff00015b7531,67fe37cb3bd870bba73819bd,67fe38980acf42f4c0d2b490,,,,,,,,,,,,,,,,,,,,,,No Brainslug Difficult 2 No Money,12,images/assets/snowy_original.jpg,learning,20,images/assets/success.jpg,images/assets/gameover.jpg,,,,,,,,,,,,,0,9,9,8,1,,,,,,,,,,,,,,,,,,,,,,,,,,,,,,,,
,,,,,,,,,,,,5b0b77a9d282ff00015b7531,001,3,2025-04-15_06h47.22.412,avatar_quest_3AFC_legacy,2022.1.3,Win32,119.047619,5b0b77a9d282ff00015b7531,67fe37cb3bd870bba73819bd,67fe38980acf42f4c0d2b490,,,,,,,,,,,,,,,,,,,,,,No Brainslug No Barriers No Money,0,images/assets/snowy_original.jpg,learning,10,images/assets/success.jpg,images/assets/gameover.jpg,,,,,,,,,,,,,0,10,10,10,1,,,,,,,,,,,,,,,,,,,,,,,,,,,,,,,,
,,,,,,,,,,,,5b0b77a9d282ff00015b7531,001,3,2025-04-15_06h47.22.412,avatar_quest_3AFC_legacy,2022.1.3,Win32,119.047619,5b0b77a9d282ff00015b7531,67fe37cb3bd870bba73819bd,67fe38980acf42f4c0d2b490,,,,,,,,,,,,,,,,,,,,,,,,,,,,,,,,,,,,,,,,,,,,,,,,,,,,,,,4,0,4,0,1,,,,,,,,,,,,,,,,,,
,,,,,,,,,,,,5b0b77a9d282ff00015b7531,001,3,2025-04-15_06h47.22.412,avatar_quest_3AFC_legacy,2022.1.3,Win32,119.047619,5b0b77a9d282ff00015b7531,67fe37cb3bd870bba73819bd,67fe38980acf42f4c0d2b490,,,,,,,,,,,,,,,,,,,,,,No Brainslug Difficult 1 No Money,6,images/assets/snowy_original.jpg,learning,20,images/assets/success.jpg,images/assets/gameover.jpg,,,,,,,,With Brainslug Difficult 1 No Money,With Brainslug Difficult 1 No Money,left,0.0061,"[""With Brainslug Difficult 2 No Money"",""With Brainslug Difficult 2 With Money""]",0,0,0,6,1,,,,,,,,,,,,,,,,,,,,,,,,,,,,,,,,
,,,,,,,,,,,,5b0b77a9d282ff00015b7531,001,3,2025-04-15_06h47.22.412,avatar_quest_3AFC_legacy,2022.1.3,Win32,119.047619,5b0b77a9d282ff00015b7531,67fe37cb3bd870bba73819bd,67fe38980acf42f4c0d2b490,,,,,,,,,,,,,,,,,,,,,,No Brainslug Difficult 2 With Money,12,images/assets/snowy_money.jpg,learning,20,images/assets/success_money.jpg,images/assets/gameover.jpg,,,,,,,,,,,,,0,1,1,7,1,,,,,,,,,,,,,,,,,,,,,,,,,,,,,,,,
,,,,,,,,,,,,5b0b77a9d282ff00015b7531,001,3,2025-04-15_06h47.22.412,avatar_quest_3AFC_legacy,2022.1.3,Win32,119.047619,5b0b77a9d282ff00015b7531,67fe37cb3bd870bba73819bd,67fe38980acf42f4c0d2b490,,,,,,,,,,,,,,,,,,,,,,No Brainslug No Barriers No Money,0,images/assets/snowy_original.jpg,learning,10,images/assets/success.jpg,images/assets/gameover.jpg,,,,,,,,,,,,,0,2,2,10,1,,,,,,,,,,,,,,,,,,,,,,,,,,,,,,,,
,,,,,,,,,,,,5b0b77a9d282ff00015b7531,001,3,2025-04-15_06h47.22.412,avatar_quest_3AFC_legacy,2022.1.3,Win32,119.047619,5b0b77a9d282ff00015b7531,67fe37cb3bd870bba73819bd,67fe38980acf42f4c0d2b490,,,,,,,,,,,,,,,,,,,,,,With Brainslug Difficult 2 No Money,12,images/assets/snowy_original.jpg,learning,20,images/assets/success.jpg,images/assets/gameover.jpg,,,,,,,,,,,,,0,3,3,3,1,,,,,,,,,,,,,,,,,,,,,,,,,,,,,,,,
,,,,,,,,,,,,5b0b77a9d282ff00015b7531,001,3,2025-04-15_06h47.22.412,avatar_quest_3AFC_legacy,2022.1.3,Win32,119.047619,5b0b77a9d282ff00015b7531,67fe37cb3bd870bba73819bd,67fe38980acf42f4c0d2b490,,,,,,,,,,,,,,,,,,,,,,With Brainslug No Barriers No Money,0,images/assets/snowy_original.jpg,learning,10,images/assets/success.jpg,images/assets/gameover.jpg,,,,,,,,,,,,,0,4,4,5,1,,,,,,,,,,,,,,,,,,,,,,,,,,,,,,,,
,,,,,,,,,,,,5b0b77a9d282ff00015b7531,001,3,2025-04-15_06h47.22.412,avatar_quest_3AFC_legacy,2022.1.3,Win32,119.047619,5b0b77a9d282ff00015b7531,67fe37cb3bd870bba73819bd,67fe38980acf42f4c0d2b490,"[""left"",""left"",""left"",""right"",""right"",""right"",""right"",""left"",""left"",""left"",""right"",""right"",""right"",""right"",""right"",""left"",""left"",""left"",""left"",""left""]","[0.5142999999821143,0.686000000000007,0.91429999998212,1.4867999999821109,1.9152999999821247,2.071799999982119,2.302299999982125,2.8511999999880686,3.0625999999940348,3.328499999999991,3.728299999982113,3.948900000005949,4.171799999982113,4.318999999999988,4.586900000005954,4.805999999999983,5.0164000000059445,5.164199999988085,5.305499999999995,5.512900000005942]",,calibration,With Brainslug Difficult 1 No Money,9,9.90175,6.0427,12,1,0,TRUE,na,na,na,na,,,,,,,,,,,,,,,,,,,,,,,,,,,,,,,,,,0,0,0,0,1,,,,,,,,,,,,,,,,,,,,,,,
,,,,,,,,,,,,5b0b77a9d282ff00015b7531,001,3,2025-04-15_06h47.22.412,avatar_quest_3AFC_legacy,2022.1.3,Win32,119.047619,5b0b77a9d282ff00015b7531,67fe37cb3bd870bba73819bd,67fe38980acf42f4c0d2b490,,,,,,,,,,,,,,,,,,,,,,With Brainslug Difficult 1 No Money,6,images/assets/snowy_original.jpg,learning,20,images/assets/success.jpg,images/assets/gameover.jpg,,,,,,,,,,,,,0,5,5,1,1,,,,,,,,,,,,,,,,,,,,,,,,,,,,,,,,
,,,,,,,,,,,,5b0b77a9d282ff00015b7531,001,3,2025-04-15_06h47.22.412,avatar_quest_3AFC_legacy,2022.1.3,Win32,119.047619,5b0b77a9d282ff00015b7531,67fe37cb3bd870bba73819bd,67fe38980acf42f4c0d2b490,,,,,,,,,,,,,,,,,,,,,,With Brainslug Difficult 1 With Money,6,images/assets/snowy_money.jpg,learning,20,images/assets/success_money.jpg,images/assets/gameover.jpg,,,,,,,,,,,,,0,6,6,0,1,,,,,,,,,,,,,,,,,,,,,,,,,,,,,,,,
,,,,,,,,,,,,5b0b77a9d282ff00015b7531,001,3,2025-04-15_06h47.22.412,avatar_quest_3AFC_legacy,2022.1.3,Win32,119.047619,5b0b77a9d282ff00015b7531,67fe37cb3bd870bba73819bd,67fe38980acf42f4c0d2b490,,,,,,,,,,,,,,,,,,,,,,With Brainslug No Barriers With Money,0,images/assets/snowy_money.jpg,learning,10,images/assets/success_money.jpg,images/assets/gameover.jpg,,,,,,,,,,,,,0,7,7,4,1,,,,,,,,,,,,,,,,,,,,,,,,,,,,,,,,
,,,,,,,,,,,,5b0b77a9d282ff00015b7531,001,3,2025-04-15_06h47.22.412,avatar_quest_3AFC_legacy,2022.1.3,Win32,119.047619,5b0b77a9d282ff00015b7531,67fe37cb3bd870bba73819bd,67fe38980acf42f4c0d2b490,,,,,,,,,,,,,,,,,,,,,,No Brainslug No Barriers With Money,0,images/assets/snowy_money.jpg,learning,10,images/assets/success_money.jpg,images/assets/gameover.jpg,,,,,,,,,,,,,0,8,8,9,1,,,,,,,,,,,,,,,,,,,,,,,,,,,,,,,,
,,,,,,,,,,,,5b0b77a9d282ff00015b7531,001,3,2025-04-15_06h47.22.412,avatar_quest_3AFC_legacy,2022.1.3,Win32,119.047619,5b0b77a9d282ff00015b7531,67fe37cb3bd870bba73819bd,67fe38980acf42f4c0d2b490,,,,,,,,,,,,,,,,,,,,,,No Brainslug Difficult 2 No Money,12,images/assets/snowy_original.jpg,learning,20,images/assets/success.jpg,images/assets/gameover.jpg,,,,,,,,,,,,,0,9,9,8,1,,,,,,,,,,,,,,,,,,,,,,,,,,,,,,,,
,,,,,,,,,,,,5b0b77a9d282ff00015b7531,001,3,2025-04-15_06h47.22.412,avatar_quest_3AFC_legacy,2022.1.3,Win32,119.047619,5b0b77a9d282ff00015b7531,67fe37cb3bd870bba73819bd,67fe38980acf42f4c0d2b490,,,,,,,,,,,,,,,,,,,,,,With Brainslug Difficult 2 With Money,12,images/assets/snowy_money.jpg,learning,20,images/assets/success_money.jpg,images/assets/gameover.jpg,,,,,,,,,,,,,0,10,10,2,1,,,,,,,,,,,,,,,,,,,,,,,,,,,,,,,,
,,,,,,,,,,,,5b0b77a9d282ff00015b7531,001,3,2025-04-15_06h47.22.412,avatar_quest_3AFC_legacy,2022.1.3,Win32,119.047619,5b0b77a9d282ff00015b7531,67fe37cb3bd870bba73819bd,67fe38980acf42f4c0d2b490,,,,,,,,,,,,,,,,,,,,,,,,,,,,,,,,,,,,,,,,,,,,,,,,,,,,,,,5,0,5,0,1,,,,,,,,,,,,,,,,,,
,,,,,,,,,,,,5b0b77a9d282ff00015b7531,001,3,2025-04-15_06h47.22.412,avatar_quest_3AFC_legacy,2022.1.3,Win32,119.047619,5b0b77a9d282ff00015b7531,67fe37cb3bd870bba73819bd,67fe38980acf42f4c0d2b490,,,,,,,,,,,,,,,,,,,,,,No Brainslug No Barriers No Money,0,images/assets/snowy_original.jpg,learning,10,images/assets/success.jpg,images/assets/gameover.jpg,,,,,,,,With Brainslug Difficult 2 With Money,With Brainslug Difficult 1 No Money,right,0.4956,"[""With Brainslug Difficult 1 No Money"",""With Brainslug Difficult 2 No Money""]",0,0,0,10,1,,,,,,,,,,,,,,,,,,,,,,,,,,,,,,,,
,,,,,,,,,,,,5b0b77a9d282ff00015b7531,001,3,2025-04-15_06h47.22.412,avatar_quest_3AFC_legacy,2022.1.3,Win32,119.047619,5b0b77a9d282ff00015b7531,67fe37cb3bd870bba73819bd,67fe38980acf42f4c0d2b490,"[""left"",""right"",""left"",""right"",""right"",""right"",""right"",""right"",""right"",""left"",""left"",""left"",""left"",""left"",""left"",""left"",""right"",""right"",""right"",""left"",""right"",""right"",""left"",""left"",""left"",""left"",""left"",""right"",""right"",""right"",""right"",""right"",""right"",""left"",""right"",""right"",""left"",""right"",""right"",""left"",""right"",""right"",""right"",""right"",""right"",""right"",""right"",""right"",""left"",""left"",""left"",""left"",""right"",""right"",""right"",""right"",""right"",""right"",""right""]","[0.7190999999940573,1.6118000000119252,2.105200000017902,2.666300000011944,3.228800000011944,3.654000000000025,3.8665999999940652,3.997200000017898,4.1485999999940475,4.364700000017905,4.561300000011926,4.698099999994042,4.843500000000006,4.975599999994046,5.10480000001192,5.242500000000007,5.242700000017891,5.393200000017885,5.53120000001789,5.606599999994046,5.668300000011925,5.742300000011937,5.8132000000179005,5.954200000017892,6.097099999994043,6.170700000017888,6.313900000005987,6.375,6.448700000017908,6.59759999999406,6.65809999999405,6.780300000011948,6.915099999994055,6.990500000000026,7.05230000001194,7.197900000005973,7.272300000011938,7.339300000011946,7.488099999994063,7.549800000011942,7.549900000005977,7.690200000017882,7.840200000017887,7.911500000000018,8.054599999994053,8.130400000005977,8.271300000011934,8.419099999994046,8.494300000011947,8.643400000005983,8.79709999999406,8.863099999994063,9.012700000017901,9.151400000005964,9.291700000017897,9.442800000011943,9.518200000017885,9.66840000000596,9.807900000005986]",,calibration,With Brainslug Difficult 2 With Money,10,9.90175,9.9105,28,5,0,FALSE,na,na,na,na,,,,,,,,,,,,,,,,,,,,,,,,,,,,,,,,,,0,0,0,0,1,,,,,,,,,,,,,,,,,,,,,,,
,,,,,,,,,,,,5b0b77a9d282ff00015b7531,001,3,2025-04-15_06h47.22.412,avatar_quest_3AFC_legacy,2022.1.3,Win32,119.047619,5b0b77a9d282ff00015b7531,67fe37cb3bd870bba73819bd,67fe38980acf42f4c0d2b490,,,,,,,,,,,,,,,,,,,,,,With Brainslug Difficult 2 With Money,12,images/assets/snowy_money.jpg,learning,20,images/assets/success_money.jpg,images/assets/gameover.jpg,,,,,,,,,,,,,0,1,1,2,1,,,,,,,,,,,,,,,,,,,,,,,,,,,,,,,,
,,,,,,,,,,,,5b0b77a9d282ff00015b7531,001,3,2025-04-15_06h47.22.412,avatar_quest_3AFC_legacy,2022.1.3,Win32,119.047619,5b0b77a9d282ff00015b7531,67fe37cb3bd870bba73819bd,67fe38980acf42f4c0d2b490,,,,,,,,,,,,,,,,,,,,,,No Brainslug Difficult 1 No Money,6,images/assets/snowy_original.jpg,learning,20,images/assets/success.jpg,images/assets/gameover.jpg,,,,,,,,,,,,,0,2,2,6,1,,,,,,,,,,,,,,,,,,,,,,,,,,,,,,,,
,,,,,,,,,,,,5b0b77a9d282ff00015b7531,001,3,2025-04-15_06h47.22.412,avatar_quest_3AFC_legacy,2022.1.3,Win32,119.047619,5b0b77a9d282ff00015b7531,67fe37cb3bd870bba73819bd,67fe38980acf42f4c0d2b490,,,,,,,,,,,,,,,,,,,,,,With Brainslug No Barriers With Money,0,images/assets/snowy_money.jpg,learning,10,images/assets/success_money.jpg,images/assets/gameover.jpg,,,,,,,,,,,,,0,3,3,4,1,,,,,,,,,,,,,,,,,,,,,,,,,,,,,,,,
,,,,,,,,,,,,5b0b77a9d282ff00015b7531,001,3,2025-04-15_06h47.22.412,avatar_quest_3AFC_legacy,2022.1.3,Win32,119.047619,5b0b77a9d282ff00015b7531,67fe37cb3bd870bba73819bd,67fe38980acf42f4c0d2b490,,,,,,,,,,,,,,,,,,,,,,With Brainslug Difficult 2 No Money,12,images/assets/snowy_original.jpg,learning,20,images/assets/success.jpg,images/assets/gameover.jpg,,,,,,,,,,,,,0,4,4,3,1,,,,,,,,,,,,,,,,,,,,,,,,,,,,,,,,
,,,,,,,,,,,,5b0b77a9d282ff00015b7531,001,3,2025-04-15_06h47.22.412,avatar_quest_3AFC_legacy,2022.1.3,Win32,119.047619,5b0b77a9d282ff00015b7531,67fe37cb3bd870bba73819bd,67fe38980acf42f4c0d2b490,,,,,,,,,,,,,,,,,,,,,,With Brainslug Difficult 1 With Money,6,images/assets/snowy_money.jpg,learning,20,images/assets/success_money.jpg,images/assets/gameover.jpg,,,,,,,,,,,,,0,5,5,0,1,,,,,,,,,,,,,,,,,,,,,,,,,,,,,,,,
,,,,,,,,,,,,5b0b77a9d282ff00015b7531,001,3,2025-04-15_06h47.22.412,avatar_quest_3AFC_legacy,2022.1.3,Win32,119.047619,5b0b77a9d282ff00015b7531,67fe37cb3bd870bba73819bd,67fe38980acf42f4c0d2b490,,,,,,,,,,,,,,,,,,,,,,No Brainslug Difficult 2 With Money,12,images/assets/snowy_money.jpg,learning,20,images/assets/success_money.jpg,images/assets/gameover.jpg,,,,,,,,,,,,,0,6,6,7,1,,,,,,,,,,,,,,,,,,,,,,,,,,,,,,,,
,,,,,,,,,,,,5b0b77a9d282ff00015b7531,001,3,2025-04-15_06h47.22.412,avatar_quest_3AFC_legacy,2022.1.3,Win32,119.047619,5b0b77a9d282ff00015b7531,67fe37cb3bd870bba73819bd,67fe38980acf42f4c0d2b490,,,,,,,,,,,,,,,,,,,,,,No Brainslug Difficult 2 No Money,12,images/assets/snowy_original.jpg,learning,20,images/assets/success.jpg,images/assets/gameover.jpg,,,,,,,,,,,,,0,7,7,8,1,,,,,,,,,,,,,,,,,,,,,,,,,,,,,,,,
,,,,,,,,,,,,5b0b77a9d282ff00015b7531,001,3,2025-04-15_06h47.22.412,avatar_quest_3AFC_legacy,2022.1.3,Win32,119.047619,5b0b77a9d282ff00015b7531,67fe37cb3bd870bba73819bd,67fe38980acf42f4c0d2b490,,,,,,,,,,,,,,,,,,,,,,No Brainslug No Barriers With Money,0,images/assets/snowy_money.jpg,learning,10,images/assets/success_money.jpg,images/assets/gameover.jpg,,,,,,,,,,,,,0,8,8,9,1,,,,,,,,,,,,,,,,,,,,,,,,,,,,,,,,
,,,,,,,,,,,,5b0b77a9d282ff00015b7531,001,3,2025-04-15_06h47.22.412,avatar_quest_3AFC_legacy,2022.1.3,Win32,119.047619,5b0b77a9d282ff00015b7531,67fe37cb3bd870bba73819bd,67fe38980acf42f4c0d2b490,,,,,,,,,,,,,,,,,,,,,,With Brainslug Difficult 1 No Money,6,images/assets/snowy_original.jpg,learning,20,images/assets/success.jpg,images/assets/gameover.jpg,,,,,,,,,,,,,0,9,9,1,1,,,,,,,,,,,,,,,,,,,,,,,,,,,,,,,,
,,,,,,,,,,,,5b0b77a9d282ff00015b7531,001,3,2025-04-15_06h47.22.412,avatar_quest_3AFC_legacy,2022.1.3,Win32,119.047619,5b0b77a9d282ff00015b7531,67fe37cb3bd870bba73819bd,67fe38980acf42f4c0d2b490,,,,,,,,,,,,,,,,,,,,,,With Brainslug No Barriers No Money,0,images/assets/snowy_original.jpg,learning,10,images/assets/success.jpg,images/assets/gameover.jpg,,,,,,,,,,,,,0,10,10,5,1,,,,,,,,,,,,,,,,,,,,,,,,,,,,,,,,
,,,,,,,,,,,,5b0b77a9d282ff00015b7531,001,3,2025-04-15_06h47.22.412,avatar_quest_3AFC_legacy,2022.1.3,Win32,119.047619,5b0b77a9d282ff00015b7531,67fe37cb3bd870bba73819bd,67fe38980acf42f4c0d2b490,,,,,,,,,,,,,,,,,,,,,,,,,,,,,,,,,,,,,,,,,,,,,,,,,,,,,,,6,0,6,0,1,,,,,,,,,,,,,,,,,,
,,,,,,,,,,,,5b0b77a9d282ff00015b7531,001,3,2025-04-15_06h47.22.412,avatar_quest_3AFC_legacy,2022.1.3,Win32,119.047619,5b0b77a9d282ff00015b7531,67fe37cb3bd870bba73819bd,67fe38980acf42f4c0d2b490,,,,,,,,,,,,,,,,,,,,,,No Brainslug No Barriers With Money,0,images/assets/snowy_money.jpg,learning,10,images/assets/success_money.jpg,images/assets/gameover.jpg,,,,,,,,With Brainslug Difficult 1 No Money,With Brainslug Difficult 1 No Money,left,0.0488,"[""With Brainslug Difficult 2 No Money"",""With Brainslug Difficult 2 With Money""]",0,0,0,9,1,,,,,,,,,,,,,,,,,,,,,,,,,,,,,,,,
,,,,,,,,,,,,5b0b77a9d282ff00015b7531,001,3,2025-04-15_06h47.22.412,avatar_quest_3AFC_legacy,2022.1.3,Win32,119.047619,5b0b77a9d282ff00015b7531,67fe37cb3bd870bba73819bd,67fe38980acf42f4c0d2b490,,,,,,,,,,,,,,,,,,,,,,With Brainslug Difficult 2 With Money,12,images/assets/snowy_money.jpg,learning,20,images/assets/success_money.jpg,images/assets/gameover.jpg,,,,,,,,,,,,,0,1,1,2,1,,,,,,,,,,,,,,,,,,,,,,,,,,,,,,,,
,,,,,,,,,,,,5b0b77a9d282ff00015b7531,001,3,2025-04-15_06h47.22.412,avatar_quest_3AFC_legacy,2022.1.3,Win32,119.047619,5b0b77a9d282ff00015b7531,67fe37cb3bd870bba73819bd,67fe38980acf42f4c0d2b490,,,,,,,,,,,,,,,,,,,,,,With Brainslug No Barriers No Money,0,images/assets/snowy_original.jpg,learning,10,images/assets/success.jpg,images/assets/gameover.jpg,,,,,,,,,,,,,0,2,2,5,1,,,,,,,,,,,,,,,,,,,,,,,,,,,,,,,,
,,,,,,,,,,,,5b0b77a9d282ff00015b7531,001,3,2025-04-15_06h47.22.412,avatar_quest_3AFC_legacy,2022.1.3,Win32,119.047619,5b0b77a9d282ff00015b7531,67fe37cb3bd870bba73819bd,67fe38980acf42f4c0d2b490,,,,,,,,,,,,,,,,,,,,,,With Brainslug Difficult 1 With Money,6,images/assets/snowy_money.jpg,learning,20,images/assets/success_money.jpg,images/assets/gameover.jpg,,,,,,,,,,,,,0,3,3,0,1,,,,,,,,,,,,,,,,,,,,,,,,,,,,,,,,
,,,,,,,,,,,,5b0b77a9d282ff00015b7531,001,3,2025-04-15_06h47.22.412,avatar_quest_3AFC_legacy,2022.1.3,Win32,119.047619,5b0b77a9d282ff00015b7531,67fe37cb3bd870bba73819bd,67fe38980acf42f4c0d2b490,,,,,,,,,,,,,,,,,,,,,,No Brainslug Difficult 2 No Money,12,images/assets/snowy_original.jpg,learning,20,images/assets/success.jpg,images/assets/gameover.jpg,,,,,,,,,,,,,0,4,4,8,1,,,,,,,,,,,,,,,,,,,,,,,,,,,,,,,,
,,,,,,,,,,,,5b0b77a9d282ff00015b7531,001,3,2025-04-15_06h47.22.412,avatar_quest_3AFC_legacy,2022.1.3,Win32,119.047619,5b0b77a9d282ff00015b7531,67fe37cb3bd870bba73819bd,67fe38980acf42f4c0d2b490,,,,,,,,,,,,,,,,,,,,,,With Brainslug Difficult 2 No Money,12,images/assets/snowy_original.jpg,learning,20,images/assets/success.jpg,images/assets/gameover.jpg,,,,,,,,,,,,,0,5,5,3,1,,,,,,,,,,,,,,,,,,,,,,,,,,,,,,,,
,,,,,,,,,,,,5b0b77a9d282ff00015b7531,001,3,2025-04-15_06h47.22.412,avatar_quest_3AFC_legacy,2022.1.3,Win32,119.047619,5b0b77a9d282ff00015b7531,67fe37cb3bd870bba73819bd,67fe38980acf42f4c0d2b490,,,,,,,,,,,,,,,,,,,,,,No Brainslug Difficult 1 No Money,6,images/assets/snowy_original.jpg,learning,20,images/assets/success.jpg,images/assets/gameover.jpg,,,,,,,,,,,,,0,6,6,6,1,,,,,,,,,,,,,,,,,,,,,,,,,,,,,,,,
,,,,,,,,,,,,5b0b77a9d282ff00015b7531,001,3,2025-04-15_06h47.22.412,avatar_quest_3AFC_legacy,2022.1.3,Win32,119.047619,5b0b77a9d282ff00015b7531,67fe37cb3bd870bba73819bd,67fe38980acf42f4c0d2b490,,,,,,,,,,,,,,,,,,,,,,No Brainslug No Barriers No Money,0,images/assets/snowy_original.jpg,learning,10,images/assets/success.jpg,images/assets/gameover.jpg,,,,,,,,,,,,,0,7,7,10,1,,,,,,,,,,,,,,,,,,,,,,,,,,,,,,,,
,,,,,,,,,,,,5b0b77a9d282ff00015b7531,001,3,2025-04-15_06h47.22.412,avatar_quest_3AFC_legacy,2022.1.3,Win32,119.047619,5b0b77a9d282ff00015b7531,67fe37cb3bd870bba73819bd,67fe38980acf42f4c0d2b490,"[""right"",""left"",""left"",""left"",""left"",""right"",""right"",""right"",""right"",""right"",""right"",""right"",""right"",""right"",""right"",""left"",""left"",""left"",""left"",""left"",""right"",""right"",""right"",""right"",""right"",""right"",""right"",""left"",""left"",""left"",""left"",""left"",""left"",""left"",""left"",""left"",""left"",""left"",""left""]","[0.49049999999999727,0.6245000000000118,0.7930000000000064,0.9373000000119305,1.1454999999999984,1.2082000000178823,1.7674000000059493,1.9721000000238291,2.0491000000238273,2.3353000000119266,2.4754000000059477,2.6260000000000048,2.774900000005971,2.9109000000059666,2.991500000000002,3.1285000000000025,3.267600000023833,3.411400000005955,3.5544000000059555,3.700700000017889,3.9204000000059693,4.07370000001788,4.225900000005964,4.3654000000059625,4.432700000017888,4.645300000011929,4.722300000011927,4.99380000001193,5.136900000005966,5.285900000005967,5.420200000017871,5.572400000005956,5.721400000005957,5.875100000023849,5.944500000000005,6.086700000017885,6.28720000001789,6.36280000001193,6.516200000017875]",,calibration,With Brainslug Difficult 1 No Money,11,9.90175,6.9818,12,2,0,TRUE,na,na,na,na,,,,,,,,,,,,,,,,,,,,,,,,,,,,,,,,,,0,0,0,0,1,,,,,,,,,,,,,,,,,,,,,,,
,,,,,,,,,,,,5b0b77a9d282ff00015b7531,001,3,2025-04-15_06h47.22.412,avatar_quest_3AFC_legacy,2022.1.3,Win32,119.047619,5b0b77a9d282ff00015b7531,67fe37cb3bd870bba73819bd,67fe38980acf42f4c0d2b490,,,,,,,,,,,,,,,,,,,,,,With Brainslug Difficult 1 No Money,6,images/assets/snowy_original.jpg,learning,20,images/assets/success.jpg,images/assets/gameover.jpg,,,,,,,,,,,,,0,8,8,1,1,,,,,,,,,,,,,,,,,,,,,,,,,,,,,,,,
,,,,,,,,,,,,5b0b77a9d282ff00015b7531,001,3,2025-04-15_06h47.22.412,avatar_quest_3AFC_legacy,2022.1.3,Win32,119.047619,5b0b77a9d282ff00015b7531,67fe37cb3bd870bba73819bd,67fe38980acf42f4c0d2b490,,,,,,,,,,,,,,,,,,,,,,With Brainslug No Barriers With Money,0,images/assets/snowy_money.jpg,learning,10,images/assets/success_money.jpg,images/assets/gameover.jpg,,,,,,,,,,,,,0,9,9,4,1,,,,,,,,,,,,,,,,,,,,,,,,,,,,,,,,
,,,,,,,,,,,,5b0b77a9d282ff00015b7531,001,3,2025-04-15_06h47.22.412,avatar_quest_3AFC_legacy,2022.1.3,Win32,119.047619,5b0b77a9d282ff00015b7531,67fe37cb3bd870bba73819bd,67fe38980acf42f4c0d2b490,,,,,,,,,,,,,,,,,,,,,,No Brainslug Difficult 2 With Money,12,images/assets/snowy_money.jpg,learning,20,images/assets/success_money.jpg,images/assets/gameover.jpg,,,,,,,,,,,,,0,10,10,7,1,,,,,,,,,,,,,,,,,,,,,,,,,,,,,,,,
,,,,,,,,,,,,5b0b77a9d282ff00015b7531,001,3,2025-04-15_06h47.22.412,avatar_quest_3AFC_legacy,2022.1.3,Win32,119.047619,5b0b77a9d282ff00015b7531,67fe37cb3bd870bba73819bd,67fe38980acf42f4c0d2b490,,,,,,,,,,,,,,,,,,,,,,,,,,,,,,,,,,,,,,,,,,,,,,,,,,,,,,,7,0,7,0,1,,,,,,,,,,,,,,,,,,
,,,,,,,,,,,,5b0b77a9d282ff00015b7531,001,3,2025-04-15_06h47.22.412,avatar_quest_3AFC_legacy,2022.1.3,Win32,119.047619,5b0b77a9d282ff00015b7531,67fe37cb3bd870bba73819bd,67fe38980acf42f4c0d2b490,,,,,,,,,,,,,,,,,,,,,,With Brainslug No Barriers No Money,0,images/assets/snowy_original.jpg,learning,10,images/assets/success.jpg,images/assets/gameover.jpg,,,,,,,,With Brainslug Difficult 2 With Money,With Brainslug Difficult 1 No Money,right,0.67,"[""With Brainslug Difficult 1 No Money"",""With Brainslug Difficult 2 No Money""]",0,0,0,5,1,,,,,,,,,,,,,,,,,,,,,,,,,,,,,,,,
,,,,,,,,,,,,5b0b77a9d282ff00015b7531,001,3,2025-04-15_06h47.22.412,avatar_quest_3AFC_legacy,2022.1.3,Win32,119.047619,5b0b77a9d282ff00015b7531,67fe37cb3bd870bba73819bd,67fe38980acf42f4c0d2b490,"[""left"",""left"",""left"",""left"",""right"",""right"",""right"",""right"",""left"",""left"",""left"",""right"",""right"",""left"",""left"",""right"",""right"",""right"",""left"",""left"",""left"",""right"",""right"",""right"",""left"",""left"",""left"",""left"",""right"",""right"",""right"",""right"",""left"",""left"",""left"",""left"",""right"",""right"",""left"",""left"",""left"",""left"",""right"",""right"",""right"",""right"",""right"",""right""]","[0.6481000000238453,0.9511000000238425,1.1016000000238364,1.3245000000000005,1.5335000000000036,1.6843000000119162,1.841200000017892,1.982300000011918,2.2064000000059707,2.3426000000238503,2.5468000000119275,2.8824000000059584,3.2476000000238514,3.3230000000000075,3.5366000000238387,3.6754999999999995,3.822100000023852,4.033600000023853,4.300600000023849,4.441100000023852,4.574200000017868,4.848200000017869,4.924499999999995,5.123500000000007,5.256800000011907,5.462800000011924,5.611999999999995,5.739600000023842,5.872900000005956,6.016700000017892,6.234800000011916,6.4563000000119075,6.4565000000000055,6.6593000000119105,6.808300000011911,6.9526000000238355,7.163800000011918,7.310400000005956,7.384900000005956,7.5898000000119055,7.726200000017883,7.92949999999999,8.131700000017872,8.281700000017878,8.419800000011918,8.549000000000007,8.696600000023835,8.895600000023848]",,calibration,With Brainslug Difficult 2 With Money,12,9.90175,9.0701,26,9,0,TRUE,na,na,na,na,,,,,,,,,,,,,,,,,,,,,,,,,,,,,,,,,,0,0,0,0,1,,,,,,,,,,,,,,,,,,,,,,,
,,,,,,,,,,,,5b0b77a9d282ff00015b7531,001,3,2025-04-15_06h47.22.412,avatar_quest_3AFC_legacy,2022.1.3,Win32,119.047619,5b0b77a9d282ff00015b7531,67fe37cb3bd870bba73819bd,67fe38980acf42f4c0d2b490,,,,,,,,,,,,,,,,,,,,,,With Brainslug Difficult 2 With Money,12,images/assets/snowy_money.jpg,learning,20,images/assets/success_money.jpg,images/assets/gameover.jpg,,,,,,,,,,,,,0,1,1,2,1,,,,,,,,,,,,,,,,,,,,,,,,,,,,,,,,
,,,,,,,,,,,,5b0b77a9d282ff00015b7531,001,3,2025-04-15_06h47.22.412,avatar_quest_3AFC_legacy,2022.1.3,Win32,119.047619,5b0b77a9d282ff00015b7531,67fe37cb3bd870bba73819bd,67fe38980acf42f4c0d2b490,,,,,,,,,,,,,,,,,,,,,,No Brainslug No Barriers No Money,0,images/assets/snowy_original.jpg,learning,10,images/assets/success.jpg,images/assets/gameover.jpg,,,,,,,,,,,,,0,2,2,10,1,,,,,,,,,,,,,,,,,,,,,,,,,,,,,,,,
,,,,,,,,,,,,5b0b77a9d282ff00015b7531,001,3,2025-04-15_06h47.22.412,avatar_quest_3AFC_legacy,2022.1.3,Win32,119.047619,5b0b77a9d282ff00015b7531,67fe37cb3bd870bba73819bd,67fe38980acf42f4c0d2b490,,,,,,,,,,,,,,,,,,,,,,With Brainslug Difficult 1 No Money,6,images/assets/snowy_original.jpg,learning,20,images/assets/success.jpg,images/assets/gameover.jpg,,,,,,,,,,,,,0,3,3,1,1,,,,,,,,,,,,,,,,,,,,,,,,,,,,,,,,
,,,,,,,,,,,,5b0b77a9d282ff00015b7531,001,3,2025-04-15_06h47.22.412,avatar_quest_3AFC_legacy,2022.1.3,Win32,119.047619,5b0b77a9d282ff00015b7531,67fe37cb3bd870bba73819bd,67fe38980acf42f4c0d2b490,,,,,,,,,,,,,,,,,,,,,,No Brainslug No Barriers With Money,0,images/assets/snowy_money.jpg,learning,10,images/assets/success_money.jpg,images/assets/gameover.jpg,,,,,,,,,,,,,0,4,4,9,1,,,,,,,,,,,,,,,,,,,,,,,,,,,,,,,,
,,,,,,,,,,,,5b0b77a9d282ff00015b7531,001,3,2025-04-15_06h47.22.412,avatar_quest_3AFC_legacy,2022.1.3,Win32,119.047619,5b0b77a9d282ff00015b7531,67fe37cb3bd870bba73819bd,67fe38980acf42f4c0d2b490,,,,,,,,,,,,,,,,,,,,,,No Brainslug Difficult 1 No Money,6,images/assets/snowy_original.jpg,learning,20,images/assets/success.jpg,images/assets/gameover.jpg,,,,,,,,,,,,,0,5,5,6,1,,,,,,,,,,,,,,,,,,,,,,,,,,,,,,,,
,,,,,,,,,,,,5b0b77a9d282ff00015b7531,001,3,2025-04-15_06h47.22.412,avatar_quest_3AFC_legacy,2022.1.3,Win32,119.047619,5b0b77a9d282ff00015b7531,67fe37cb3bd870bba73819bd,67fe38980acf42f4c0d2b490,,,,,,,,,,,,,,,,,,,,,,No Brainslug Difficult 2 No Money,12,images/assets/snowy_original.jpg,learning,20,images/assets/success.jpg,images/assets/gameover.jpg,,,,,,,,,,,,,0,6,6,8,1,,,,,,,,,,,,,,,,,,,,,,,,,,,,,,,,
,,,,,,,,,,,,5b0b77a9d282ff00015b7531,001,3,2025-04-15_06h47.22.412,avatar_quest_3AFC_legacy,2022.1.3,Win32,119.047619,5b0b77a9d282ff00015b7531,67fe37cb3bd870bba73819bd,67fe38980acf42f4c0d2b490,,,,,,,,,,,,,,,,,,,,,,With Brainslug Difficult 1 With Money,6,images/assets/snowy_money.jpg,learning,20,images/assets/success_money.jpg,images/assets/gameover.jpg,,,,,,,,,,,,,0,7,7,0,1,,,,,,,,,,,,,,,,,,,,,,,,,,,,,,,,
,,,,,,,,,,,,5b0b77a9d282ff00015b7531,001,3,2025-04-15_06h47.22.412,avatar_quest_3AFC_legacy,2022.1.3,Win32,119.047619,5b0b77a9d282ff00015b7531,67fe37cb3bd870bba73819bd,67fe38980acf42f4c0d2b490,,,,,,,,,,,,,,,,,,,,,,With Brainslug Difficult 2 No Money,12,images/assets/snowy_original.jpg,learning,20,images/assets/success.jpg,images/assets/gameover.jpg,,,,,,,,,,,,,0,8,8,3,1,,,,,,,,,,,,,,,,,,,,,,,,,,,,,,,,
,,,,,,,,,,,,5b0b77a9d282ff00015b7531,001,3,2025-04-15_06h47.22.412,avatar_quest_3AFC_legacy,2022.1.3,Win32,119.047619,5b0b77a9d282ff00015b7531,67fe37cb3bd870bba73819bd,67fe38980acf42f4c0d2b490,,,,,,,,,,,,,,,,,,,,,,No Brainslug Difficult 2 With Money,12,images/assets/snowy_money.jpg,learning,20,images/assets/success_money.jpg,images/assets/gameover.jpg,,,,,,,,,,,,,0,9,9,7,1,,,,,,,,,,,,,,,,,,,,,,,,,,,,,,,,
,,,,,,,,,,,,5b0b77a9d282ff00015b7531,001,3,2025-04-15_06h47.22.412,avatar_quest_3AFC_legacy,2022.1.3,Win32,119.047619,5b0b77a9d282ff00015b7531,67fe37cb3bd870bba73819bd,67fe38980acf42f4c0d2b490,,,,,,,,,,,,,,,,,,,,,,With Brainslug No Barriers With Money,0,images/assets/snowy_money.jpg,learning,10,images/assets/success_money.jpg,images/assets/gameover.jpg,,,,,,,,,,,,,0,10,10,4,1,,,,,,,,,,,,,,,,,,,,,,,,,,,,,,,,
,,,,,,,,,,,,5b0b77a9d282ff00015b7531,001,3,2025-04-15_06h47.22.412,avatar_quest_3AFC_legacy,2022.1.3,Win32,119.047619,5b0b77a9d282ff00015b7531,67fe37cb3bd870bba73819bd,67fe38980acf42f4c0d2b490,,,,,,,,,,,,,,,,,,,,,,,,,,,,,,,,,,,,,,,,,,,,,,,,,,,,,,,8,0,8,0,1,,,,,,,,,,,,,,,,,,
,,,,,,,,,,,,5b0b77a9d282ff00015b7531,001,3,2025-04-15_06h47.22.412,avatar_quest_3AFC_legacy,2022.1.3,Win32,119.047619,5b0b77a9d282ff00015b7531,67fe37cb3bd870bba73819bd,67fe38980acf42f4c0d2b490,"[""left"",""left"",""left"",""left"",""left"",""left"",""right"",""right"",""right"",""right"",""right"",""left"",""left"",""left"",""left"",""right"",""right"",""right"",""left"",""left"",""left"",""right"",""left"",""left"",""right"",""right"",""right"",""right"",""right"",""right"",""right"",""left"",""left"",""left"",""right"",""right"",""right"",""right"",""right"",""left"",""right"",""right"",""left"",""left"",""right"",""right"",""right"",""right"",""right"",""left"",""right"",""right"",""right""]","[0.0819000000059873,0.22370000001788526,0.3675000000000068,0.5706000000238589,0.7894000000059691,1.1463000000119337,1.3583000000119227,1.5745000000000005,1.7003000000119357,1.841200000017892,1.9167000000178973,2.0678000000119425,2.209900000005973,2.3939000000059707,2.591900000005978,2.661600000023867,2.7362000000179023,2.8732000000179028,2.946300000011945,3.1558000000119364,3.4210000000000207,3.480300000011937,3.6935000000000002,3.913800000011946,4.056800000011947,4.197100000023852,4.334900000005973,4.398100000023845,4.547900000005967,4.701800000011929,4.846000000000004,4.920700000017888,5.130800000011931,5.3331000000238475,5.606700000017895,5.682800000011923,5.8193000000119355,5.956100000023866,6.079200000017892,6.220800000011934,6.3629999999999995,6.499900000005965,6.635200000017903,6.893800000011936,7.033800000011922,7.179100000023851,7.303000000000026,7.437900000005982,7.58860000002386,7.588700000017894,7.788600000023848,8.005000000000024,8.075000000000017]",,calibration,With Brainslug Difficult 2 With Money,13,9.90175,8.1607,27,5,0,TRUE,na,na,na,na,,,,,,,,,,,,,,,,,,,,With Brainslug Difficult 2 With Money,With Brainslug Difficult 1 No Money,right,0.612,"[""With Brainslug Difficult 1 No Money"",""With Brainslug Difficult 2 No Money""]",,,,,,,,,,0,0,0,0,1,,,,,,,,,,,,,,,,,,,,,,,
,,,,,,,,,,,,5b0b77a9d282ff00015b7531,001,3,2025-04-15_06h47.22.412,avatar_quest_3AFC_legacy,2022.1.3,Win32,119.047619,5b0b77a9d282ff00015b7531,67fe37cb3bd870bba73819bd,67fe38980acf42f4c0d2b490,,,,,,,,,,,,,,,,,,,,,,With Brainslug Difficult 2 With Money,12,images/assets/snowy_money.jpg,learning,20,images/assets/success_money.jpg,images/assets/gameover.jpg,,,,,,,,,,,,,0,0,0,2,1,,,,,,,,,,,,,,,,,,,,,,,,,,,,,,,,
,,,,,,,,,,,,5b0b77a9d282ff00015b7531,001,3,2025-04-15_06h47.22.412,avatar_quest_3AFC_legacy,2022.1.3,Win32,119.047619,5b0b77a9d282ff00015b7531,67fe37cb3bd870bba73819bd,67fe38980acf42f4c0d2b490,,,,,,,,,,,,,,,,,,,,,,With Brainslug Difficult 1 No Money,6,images/assets/snowy_original.jpg,learning,20,images/assets/success.jpg,images/assets/gameover.jpg,,,,,,,,,,,,,0,1,1,1,1,,,,,,,,,,,,,,,,,,,,,,,,,,,,,,,,
,,,,,,,,,,,,5b0b77a9d282ff00015b7531,001,3,2025-04-15_06h47.22.412,avatar_quest_3AFC_legacy,2022.1.3,Win32,119.047619,5b0b77a9d282ff00015b7531,67fe37cb3bd870bba73819bd,67fe38980acf42f4c0d2b490,,,,,,,,,,,,,,,,,,,,,,No Brainslug Difficult 1 No Money,6,images/assets/snowy_original.jpg,learning,20,images/assets/success.jpg,images/assets/gameover.jpg,,,,,,,,,,,,,0,2,2,6,1,,,,,,,,,,,,,,,,,,,,,,,,,,,,,,,,
,,,,,,,,,,,,5b0b77a9d282ff00015b7531,001,3,2025-04-15_06h47.22.412,avatar_quest_3AFC_legacy,2022.1.3,Win32,119.047619,5b0b77a9d282ff00015b7531,67fe37cb3bd870bba73819bd,67fe38980acf42f4c0d2b490,,,,,,,,,,,,,,,,,,,,,,No Brainslug No Barriers With Money,0,images/assets/snowy_money.jpg,learning,10,images/assets/success_money.jpg,images/assets/gameover.jpg,,,,,,,,,,,,,0,3,3,9,1,,,,,,,,,,,,,,,,,,,,,,,,,,,,,,,,
,,,,,,,,,,,,5b0b77a9d282ff00015b7531,001,3,2025-04-15_06h47.22.412,avatar_quest_3AFC_legacy,2022.1.3,Win32,119.047619,5b0b77a9d282ff00015b7531,67fe37cb3bd870bba73819bd,67fe38980acf42f4c0d2b490,,,,,,,,,,,,,,,,,,,,,,No Brainslug Difficult 2 No Money,12,images/assets/snowy_original.jpg,learning,20,images/assets/success.jpg,images/assets/gameover.jpg,,,,,,,,,,,,,0,4,4,8,1,,,,,,,,,,,,,,,,,,,,,,,,,,,,,,,,
,,,,,,,,,,,,5b0b77a9d282ff00015b7531,001,3,2025-04-15_06h47.22.412,avatar_quest_3AFC_legacy,2022.1.3,Win32,119.047619,5b0b77a9d282ff00015b7531,67fe37cb3bd870bba73819bd,67fe38980acf42f4c0d2b490,,,,,,,,,,,,,,,,,,,,,,No Brainslug No Barriers No Money,0,images/assets/snowy_original.jpg,learning,10,images/assets/success.jpg,images/assets/gameover.jpg,,,,,,,,,,,,,0,5,5,10,1,,,,,,,,,,,,,,,,,,,,,,,,,,,,,,,,
,,,,,,,,,,,,5b0b77a9d282ff00015b7531,001,3,2025-04-15_06h47.22.412,avatar_quest_3AFC_legacy,2022.1.3,Win32,119.047619,5b0b77a9d282ff00015b7531,67fe37cb3bd870bba73819bd,67fe38980acf42f4c0d2b490,,,,,,,,,,,,,,,,,,,,,,With Brainslug No Barriers With Money,0,images/assets/snowy_money.jpg,learning,10,images/assets/success_money.jpg,images/assets/gameover.jpg,,,,,,,,,,,,,0,6,6,4,1,,,,,,,,,,,,,,,,,,,,,,,,,,,,,,,,
,,,,,,,,,,,,5b0b77a9d282ff00015b7531,001,3,2025-04-15_06h47.22.412,avatar_quest_3AFC_legacy,2022.1.3,Win32,119.047619,5b0b77a9d282ff00015b7531,67fe37cb3bd870bba73819bd,67fe38980acf42f4c0d2b490,,,,,,,,,,,,,,,,,,,,,,With Brainslug Difficult 1 With Money,6,images/assets/snowy_money.jpg,learning,20,images/assets/success_money.jpg,images/assets/gameover.jpg,,,,,,,,,,,,,0,7,7,0,1,,,,,,,,,,,,,,,,,,,,,,,,,,,,,,,,
,,,,,,,,,,,,5b0b77a9d282ff00015b7531,001,3,2025-04-15_06h47.22.412,avatar_quest_3AFC_legacy,2022.1.3,Win32,119.047619,5b0b77a9d282ff00015b7531,67fe37cb3bd870bba73819bd,67fe38980acf42f4c0d2b490,,,,,,,,,,,,,,,,,,,,,,With Brainslug Difficult 2 No Money,12,images/assets/snowy_original.jpg,learning,20,images/assets/success.jpg,images/assets/gameover.jpg,,,,,,,,,,,,,0,8,8,3,1,,,,,,,,,,,,,,,,,,,,,,,,,,,,,,,,
,,,,,,,,,,,,5b0b77a9d282ff00015b7531,001,3,2025-04-15_06h47.22.412,avatar_quest_3AFC_legacy,2022.1.3,Win32,119.047619,5b0b77a9d282ff00015b7531,67fe37cb3bd870bba73819bd,67fe38980acf42f4c0d2b490,,,,,,,,,,,,,,,,,,,,,,No Brainslug Difficult 2 With Money,12,images/assets/snowy_money.jpg,learning,20,images/assets/success_money.jpg,images/assets/gameover.jpg,,,,,,,,,,,,,0,9,9,7,1,,,,,,,,,,,,,,,,,,,,,,,,,,,,,,,,
,,,,,,,,,,,,5b0b77a9d282ff00015b7531,001,3,2025-04-15_06h47.22.412,avatar_quest_3AFC_legacy,2022.1.3,Win32,119.047619,5b0b77a9d282ff00015b7531,67fe37cb3bd870bba73819bd,67fe38980acf42f4c0d2b490,,,,,,,,,,,,,,,,,,,,,,With Brainslug No Barriers No Money,0,images/assets/snowy_original.jpg,learning,10,images/assets/success.jpg,images/assets/gameover.jpg,,,,,,,,,,,,,0,10,10,5,1,,,,,,,,,,,,,,,,,,,,,,,,,,,,,,,,
,,,,,,,,,,,,5b0b77a9d282ff00015b7531,001,3,2025-04-15_06h47.22.412,avatar_quest_3AFC_legacy,2022.1.3,Win32,119.047619,5b0b77a9d282ff00015b7531,67fe37cb3bd870bba73819bd,67fe38980acf42f4c0d2b490,,,,,,,,,,,,,,,,,,,,,,,,,,,,,,,,,,,,,,,,,,,,,,,,,,,,,,,9,0,9,0,1,,,,,,,,,,,,,,,,,,
,,,,,,,,,,,,5b0b77a9d282ff00015b7531,001,3,2025-04-15_06h47.22.412,avatar_quest_3AFC_legacy,2022.1.3,Win32,119.047619,5b0b77a9d282ff00015b7531,67fe37cb3bd870bba73819bd,67fe38980acf42f4c0d2b490,,,,,,,,,,,,,,,,,,,,,,No Brainslug No Barriers With Money,0,images/assets/snowy_money.jpg,learning,10,images/assets/success_money.jpg,images/assets/gameover.jpg,,,,,,,,With Brainslug Difficult 2 With Money,With Brainslug Difficult 1 No Money,right,0.2233,"[""With Brainslug Difficult 1 No Money"",""With Brainslug Difficult 2 No Money""]",0,0,0,9,1,,,,,,,,,,,,,,,,,,,,,,,,,,,,,,,,
,,,,,,,,,,,,5b0b77a9d282ff00015b7531,001,3,2025-04-15_06h47.22.412,avatar_quest_3AFC_legacy,2022.1.3,Win32,119.047619,5b0b77a9d282ff00015b7531,67fe37cb3bd870bba73819bd,67fe38980acf42f4c0d2b490,"[""right"",""right"",""right"",""right"",""left"",""left"",""left"",""left"",""right"",""right"",""right"",""right"",""left"",""left"",""left"",""left"",""left"",""left"",""left"",""left"",""right"",""right"",""right"",""right"",""right"",""right"",""right"",""left"",""left"",""left"",""left"",""right"",""right"",""left"",""left"",""left"",""left"",""right"",""right"",""right"",""right"",""left"",""left"",""left"",""right"",""right"",""right"",""right"",""right"",""left"",""left"",""left"",""right"",""right"",""right"",""right"",""right"",""left"",""left"",""left"",""left"",""right"",""right"",""right""]","[0.0076999999880627,0.23540000000593864,0.3070999999940227,0.44159999999402544,0.519199999988075,0.7391999999880738,0.8890999999940163,1.039999999999992,1.1883000000119068,1.33480000001191,1.4804000000059432,1.621900000005951,1.6894000000059464,1.9149000000059573,2.0589999999999975,2.2133000000119125,2.4299999999999784,2.787800000011913,3.070300000011912,3.215699999988061,3.6353000000119096,4.009199999988056,4.227699999988062,4.42859999999402,4.577199999988068,4.719499999999982,4.873300000011909,5.029199999988066,5.179000000000002,5.324599999994035,5.542199999988071,5.617699999988076,5.761699999988082,5.9163000000119155,6.05540000000596,6.2855999999940195,6.362300000011913,6.5071999999880745,6.581400000005942,6.721000000000004,6.86790000000596,6.932499999999976,7.131,7.280199999988071,7.412499999999994,7.547800000011904,7.69780000001191,7.7724999999999795,7.915199999988062,7.9858000000119205,8.140699999988072,8.278199999988061,8.539500000000004,8.667099999994036,8.822499999999991,8.884199999988056,9.021999999999991,9.097800000011915,9.295599999994039,9.370999999999981,9.509699999988072,9.634599999994037,9.779800000011903,9.845099999994034]",,calibration,With Brainslug Difficult 2 With Money,14,9.90175,9.9446,32,6,0,FALSE,na,na,na,na,,,,,,,,,,,,,,,,,,,,,,,,,,,,,,,,,,0,0,0,0,1,,,,,,,,,,,,,,,,,,,,,,,
,,,,,,,,,,,,5b0b77a9d282ff00015b7531,001,3,2025-04-15_06h47.22.412,avatar_quest_3AFC_legacy,2022.1.3,Win32,119.047619,5b0b77a9d282ff00015b7531,67fe37cb3bd870bba73819bd,67fe38980acf42f4c0d2b490,,,,,,,,,,,,,,,,,,,,,,With Brainslug Difficult 2 With Money,12,images/assets/snowy_money.jpg,learning,20,images/assets/success_money.jpg,images/assets/gameover.jpg,,,,,,,,,,,,,0,1,1,2,1,,,,,,,,,,,,,,,,,,,,,,,,,,,,,,,,
,,,,,,,,,,,,5b0b77a9d282ff00015b7531,001,3,2025-04-15_06h47.22.412,avatar_quest_3AFC_legacy,2022.1.3,Win32,119.047619,5b0b77a9d282ff00015b7531,67fe37cb3bd870bba73819bd,67fe38980acf42f4c0d2b490,,,,,,,,,,,,,,,,,,,,,,With Brainslug Difficult 1 No Money,6,images/assets/snowy_original.jpg,learning,20,images/assets/success.jpg,images/assets/gameover.jpg,,,,,,,,,,,,,0,2,2,1,1,,,,,,,,,,,,,,,,,,,,,,,,,,,,,,,,
,,,,,,,,,,,,5b0b77a9d282ff00015b7531,001,3,2025-04-15_06h47.22.412,avatar_quest_3AFC_legacy,2022.1.3,Win32,119.047619,5b0b77a9d282ff00015b7531,67fe37cb3bd870bba73819bd,67fe38980acf42f4c0d2b490,,,,,,,,,,,,,,,,,,,,,,With Brainslug No Barriers With Money,0,images/assets/snowy_money.jpg,learning,10,images/assets/success_money.jpg,images/assets/gameover.jpg,,,,,,,,,,,,,0,3,3,4,1,,,,,,,,,,,,,,,,,,,,,,,,,,,,,,,,
,,,,,,,,,,,,5b0b77a9d282ff00015b7531,001,3,2025-04-15_06h47.22.412,avatar_quest_3AFC_legacy,2022.1.3,Win32,119.047619,5b0b77a9d282ff00015b7531,67fe37cb3bd870bba73819bd,67fe38980acf42f4c0d2b490,,,,,,,,,,,,,,,,,,,,,,No Brainslug Difficult 2 No Money,12,images/assets/snowy_original.jpg,learning,20,images/assets/success.jpg,images/assets/gameover.jpg,,,,,,,,,,,,,0,4,4,8,1,,,,,,,,,,,,,,,,,,,,,,,,,,,,,,,,
,,,,,,,,,,,,5b0b77a9d282ff00015b7531,001,3,2025-04-15_06h47.22.412,avatar_quest_3AFC_legacy,2022.1.3,Win32,119.047619,5b0b77a9d282ff00015b7531,67fe37cb3bd870bba73819bd,67fe38980acf42f4c0d2b490,,,,,,,,,,,,,,,,,,,,,,With Brainslug No Barriers No Money,0,images/assets/snowy_original.jpg,learning,10,images/assets/success.jpg,images/assets/gameover.jpg,,,,,,,,,,,,,0,5,5,5,1,,,,,,,,,,,,,,,,,,,,,,,,,,,,,,,,
,,,,,,,,,,,,5b0b77a9d282ff00015b7531,001,3,2025-04-15_06h47.22.412,avatar_quest_3AFC_legacy,2022.1.3,Win32,119.047619,5b0b77a9d282ff00015b7531,67fe37cb3bd870bba73819bd,67fe38980acf42f4c0d2b490,,,,,,,,,,,,,,,,,,,,,,No Brainslug No Barriers No Money,0,images/assets/snowy_original.jpg,learning,10,images/assets/success.jpg,images/assets/gameover.jpg,,,,,,,,,,,,,0,6,6,10,1,,,,,,,,,,,,,,,,,,,,,,,,,,,,,,,,
,,,,,,,,,,,,5b0b77a9d282ff00015b7531,001,3,2025-04-15_06h47.22.412,avatar_quest_3AFC_legacy,2022.1.3,Win32,119.047619,5b0b77a9d282ff00015b7531,67fe37cb3bd870bba73819bd,67fe38980acf42f4c0d2b490,,,,,,,,,,,,,,,,,,,,,,No Brainslug Difficult 1 No Money,6,images/assets/snowy_original.jpg,learning,20,images/assets/success.jpg,images/assets/gameover.jpg,,,,,,,,,,,,,0,7,7,6,1,,,,,,,,,,,,,,,,,,,,,,,,,,,,,,,,
,,,,,,,,,,,,5b0b77a9d282ff00015b7531,001,3,2025-04-15_06h47.22.412,avatar_quest_3AFC_legacy,2022.1.3,Win32,119.047619,5b0b77a9d282ff00015b7531,67fe37cb3bd870bba73819bd,67fe38980acf42f4c0d2b490,,,,,,,,,,,,,,,,,,,,,,No Brainslug Difficult 2 With Money,12,images/assets/snowy_money.jpg,learning,20,images/assets/success_money.jpg,images/assets/gameover.jpg,,,,,,,,,,,,,0,8,8,7,1,,,,,,,,,,,,,,,,,,,,,,,,,,,,,,,,
,,,,,,,,,,,,5b0b77a9d282ff00015b7531,001,3,2025-04-15_06h47.22.412,avatar_quest_3AFC_legacy,2022.1.3,Win32,119.047619,5b0b77a9d282ff00015b7531,67fe37cb3bd870bba73819bd,67fe38980acf42f4c0d2b490,,,,,,,,,,,,,,,,,,,,,,With Brainslug Difficult 2 No Money,12,images/assets/snowy_original.jpg,learning,20,images/assets/success.jpg,images/assets/gameover.jpg,,,,,,,,,,,,,0,9,9,3,1,,,,,,,,,,,,,,,,,,,,,,,,,,,,,,,,
,,,,,,,,,,,,5b0b77a9d282ff00015b7531,001,3,2025-04-15_06h47.22.412,avatar_quest_3AFC_legacy,2022.1.3,Win32,119.047619,5b0b77a9d282ff00015b7531,67fe37cb3bd870bba73819bd,67fe38980acf42f4c0d2b490,,,,,,,,,,,,,,,,,,,,,,With Brainslug Difficult 1 With Money,6,images/assets/snowy_money.jpg,learning,20,images/assets/success_money.jpg,images/assets/gameover.jpg,,,,,,,,,,,,,0,10,10,0,1,,,,,,,,,,,,,,,,,,,,,,,,,,,,,,,,
,,,,,,,,,,,,5b0b77a9d282ff00015b7531,001,3,2025-04-15_06h47.22.412,avatar_quest_3AFC_legacy,2022.1.3,Win32,119.047619,5b0b77a9d282ff00015b7531,67fe37cb3bd870bba73819bd,67fe38980acf42f4c0d2b490,,,,,,,,,,,,,,,,,,,,,,,,,,,,,,,,,,,,,,,,,,,,,,,,,,,,,,,10,0,10,0,1,,,,,,,,,,,,,,,,,,
,,,,,,,,,,,,5b0b77a9d282ff00015b7531,001,3,2025-04-15_06h47.22.412,avatar_quest_3AFC_legacy,2022.1.3,Win32,119.047619,5b0b77a9d282ff00015b7531,67fe37cb3bd870bba73819bd,67fe38980acf42f4c0d2b490,,,,,,,,,,,,,,,,,,,,,,No Brainslug Difficult 2 No Money,12,images/assets/snowy_original.jpg,learning,20,images/assets/success.jpg,images/assets/gameover.jpg,,,,,,,,With Brainslug Difficult 2 With Money,With Brainslug Difficult 1 No Money,right,0.3146,"[""With Brainslug Difficult 1 No Money"",""With Brainslug Difficult 2 No Money""]",0,0,0,8,1,,,,,,,,,,,,,,,,,,,,,,,,,,,,,,,,
,,,,,,,,,,,,5b0b77a9d282ff00015b7531,001,3,2025-04-15_06h47.22.412,avatar_quest_3AFC_legacy,2022.1.3,Win32,119.047619,5b0b77a9d282ff00015b7531,67fe37cb3bd870bba73819bd,67fe38980acf42f4c0d2b490,"[""left"",""left"",""left"",""left"",""right"",""right"",""right"",""left"",""left"",""left"",""right"",""right"",""left"",""left"",""left"",""left"",""left"",""left"",""left"",""left"",""left"",""left"",""left"",""down"",""left"",""left"",""right"",""right"",""right"",""right"",""right"",""up"",""right"",""right""]","[0.7341999999880784,0.9495999999940352,1.090699999988061,1.391099999994026,1.7166999999880659,1.9371999999880813,2.2261999999880686,2.4547999999821,2.650199999988075,2.789500000000004,2.9395999999940443,3.3004999999999995,3.495199999988074,3.9931999999880645,4.334199999988073,5.165299999982125,5.811099999994042,6.209699999988061,6.403999999999996,6.538499999999999,6.737699999988081,6.941499999999991,7.091099999994043,7.286199999988071,7.286099999994036,7.627299999982114,7.854799999982106,7.99819999998806,8.202399999976137,8.402599999994038,8.734199999988078,9.031599999994029,9.321499999999986,9.688399999976156]",,calibration,With Brainslug Difficult 2 With Money,15,9.90175,9.9171,12,3,0,FALSE,na,na,na,na,,,,,,,,,,,,,,,,,,,,,,,,,,,,,,,,,,0,0,0,0,1,,,,,,,,,,,,,,,,,,,,,,,
,,,,,,,,,,,,5b0b77a9d282ff00015b7531,001,3,2025-04-15_06h47.22.412,avatar_quest_3AFC_legacy,2022.1.3,Win32,119.047619,5b0b77a9d282ff00015b7531,67fe37cb3bd870bba73819bd,67fe38980acf42f4c0d2b490,,,,,,,,,,,,,,,,,,,,,,With Brainslug Difficult 2 With Money,12,images/assets/snowy_money.jpg,learning,20,images/assets/success_money.jpg,images/assets/gameover.jpg,,,,,,,,,,,,,0,1,1,2,1,,,,,,,,,,,,,,,,,,,,,,,,,,,,,,,,
,,,,,,,,,,,,5b0b77a9d282ff00015b7531,001,3,2025-04-15_06h47.22.412,avatar_quest_3AFC_legacy,2022.1.3,Win32,119.047619,5b0b77a9d282ff00015b7531,67fe37cb3bd870bba73819bd,67fe38980acf42f4c0d2b490,,,,,,,,,,,,,,,,,,,,,,No Brainslug No Barriers No Money,0,images/assets/snowy_original.jpg,learning,10,images/assets/success.jpg,images/assets/gameover.jpg,,,,,,,,,,,,,0,2,2,10,1,,,,,,,,,,,,,,,,,,,,,,,,,,,,,,,,
,,,,,,,,,,,,5b0b77a9d282ff00015b7531,001,3,2025-04-15_06h47.22.412,avatar_quest_3AFC_legacy,2022.1.3,Win32,119.047619,5b0b77a9d282ff00015b7531,67fe37cb3bd870bba73819bd,67fe38980acf42f4c0d2b490,,,,,,,,,,,,,,,,,,,,,,With Brainslug No Barriers No Money,0,images/assets/snowy_original.jpg,learning,10,images/assets/success.jpg,images/assets/gameover.jpg,,,,,,,,,,,,,0,3,3,5,1,,,,,,,,,,,,,,,,,,,,,,,,,,,,,,,,
,,,,,,,,,,,,5b0b77a9d282ff00015b7531,001,3,2025-04-15_06h47.22.412,avatar_quest_3AFC_legacy,2022.1.3,Win32,119.047619,5b0b77a9d282ff00015b7531,67fe37cb3bd870bba73819bd,67fe38980acf42f4c0d2b490,,,,,,,,,,,,,,,,,,,,,,With Brainslug Difficult 1 With Money,6,images/assets/snowy_money.jpg,learning,20,images/assets/success_money.jpg,images/assets/gameover.jpg,,,,,,,,,,,,,0,4,4,0,1,,,,,,,,,,,,,,,,,,,,,,,,,,,,,,,,
,,,,,,,,,,,,5b0b77a9d282ff00015b7531,001,3,2025-04-15_06h47.22.412,avatar_quest_3AFC_legacy,2022.1.3,Win32,119.047619,5b0b77a9d282ff00015b7531,67fe37cb3bd870bba73819bd,67fe38980acf42f4c0d2b490,,,,,,,,,,,,,,,,,,,,,,No Brainslug Difficult 1 No Money,6,images/assets/snowy_original.jpg,learning,20,images/assets/success.jpg,images/assets/gameover.jpg,,,,,,,,,,,,,0,5,5,6,1,,,,,,,,,,,,,,,,,,,,,,,,,,,,,,,,
,,,,,,,,,,,,5b0b77a9d282ff00015b7531,001,3,2025-04-15_06h47.22.412,avatar_quest_3AFC_legacy,2022.1.3,Win32,119.047619,5b0b77a9d282ff00015b7531,67fe37cb3bd870bba73819bd,67fe38980acf42f4c0d2b490,,,,,,,,,,,,,,,,,,,,,,With Brainslug No Barriers With Money,0,images/assets/snowy_money.jpg,learning,10,images/assets/success_money.jpg,images/assets/gameover.jpg,,,,,,,,,,,,,0,6,6,4,1,,,,,,,,,,,,,,,,,,,,,,,,,,,,,,,,
,,,,,,,,,,,,5b0b77a9d282ff00015b7531,001,3,2025-04-15_06h47.22.412,avatar_quest_3AFC_legacy,2022.1.3,Win32,119.047619,5b0b77a9d282ff00015b7531,67fe37cb3bd870bba73819bd,67fe38980acf42f4c0d2b490,,,,,,,,,,,,,,,,,,,,,,With Brainslug Difficult 1 No Money,6,images/assets/snowy_original.jpg,learning,20,images/assets/success.jpg,images/assets/gameover.jpg,,,,,,,,,,,,,0,7,7,1,1,,,,,,,,,,,,,,,,,,,,,,,,,,,,,,,,
,,,,,,,,,,,,5b0b77a9d282ff00015b7531,001,3,2025-04-15_06h47.22.412,avatar_quest_3AFC_legacy,2022.1.3,Win32,119.047619,5b0b77a9d282ff00015b7531,67fe37cb3bd870bba73819bd,67fe38980acf42f4c0d2b490,,,,,,,,,,,,,,,,,,,,,,With Brainslug Difficult 2 No Money,12,images/assets/snowy_original.jpg,learning,20,images/assets/success.jpg,images/assets/gameover.jpg,,,,,,,,,,,,,0,8,8,3,1,,,,,,,,,,,,,,,,,,,,,,,,,,,,,,,,
,,,,,,,,,,,,5b0b77a9d282ff00015b7531,001,3,2025-04-15_06h47.22.412,avatar_quest_3AFC_legacy,2022.1.3,Win32,119.047619,5b0b77a9d282ff00015b7531,67fe37cb3bd870bba73819bd,67fe38980acf42f4c0d2b490,,,,,,,,,,,,,,,,,,,,,,No Brainslug Difficult 2 With Money,12,images/assets/snowy_money.jpg,learning,20,images/assets/success_money.jpg,images/assets/gameover.jpg,,,,,,,,,,,,,0,9,9,7,1,,,,,,,,,,,,,,,,,,,,,,,,,,,,,,,,
,,,,,,,,,,,,5b0b77a9d282ff00015b7531,001,3,2025-04-15_06h47.22.412,avatar_quest_3AFC_legacy,2022.1.3,Win32,119.047619,5b0b77a9d282ff00015b7531,67fe37cb3bd870bba73819bd,67fe38980acf42f4c0d2b490,,,,,,,,,,,,,,,,,,,,,,No Brainslug No Barriers With Money,0,images/assets/snowy_money.jpg,learning,10,images/assets/success_money.jpg,images/assets/gameover.jpg,,,,,,,,,,,,,0,10,10,9,1,,,,,,,,,,,,,,,,,,,,,,,,,,,,,,,,
,,,,,,,,,,,,5b0b77a9d282ff00015b7531,001,3,2025-04-15_06h47.22.412,avatar_quest_3AFC_legacy,2022.1.3,Win32,119.047619,5b0b77a9d282ff00015b7531,67fe37cb3bd870bba73819bd,67fe38980acf42f4c0d2b490,,,,,,,,,,,,,,,,,,,,,,,,,,,,,,,,,,,,,,,,,,,,,,,,,,,,,,,11,0,11,0,1,,,,,,,,,,,,,,,,,,
,,,,,,,,,,,,5b0b77a9d282ff00015b7531,001,3,2025-04-15_06h47.22.412,avatar_quest_3AFC_legacy,2022.1.3,Win32,119.047619,5b0b77a9d282ff00015b7531,67fe37cb3bd870bba73819bd,67fe38980acf42f4c0d2b490,,,,,,,,,,,,,,,,,,,,,,,,,,,,,,,,,,,,,,,,,,,,,,,,,,,,,,,,,,,,0,0,0,0,1,1,With Brainslug Difficult 1 No Money,images/assets/With Brainslug Difficult 1 No Money.png,With Brainslug Difficult 2 No Money,images/assets/With Brainslug Difficult 2 No Money.png,With Brainslug Difficult 2 With Money,images/assets/With Brainslug Difficult 2 With Money.png,Achievement vs. money,,,,,
,,,,,,,,,,,,5b0b77a9d282ff00015b7531,001,3,2025-04-15_06h47.22.412,avatar_quest_3AFC_legacy,2022.1.3,Win32,119.047619,5b0b77a9d282ff00015b7531,67fe37cb3bd870bba73819bd,67fe38980acf42f4c0d2b490,,,,,,,,,,,,,,,,,,,,,,No Brainslug Difficult 1 No Money,6,images/assets/snowy_original.jpg,learning,20,images/assets/success.jpg,images/assets/gameover.jpg,,,,,,,,No Brainslug No Barriers No Money,No Brainslug No Barriers No Money,left,1.5235,"[""No Brainslug Difficult 1 No Money"",""No Brainslug No Barriers With Money""]",0,0,0,6,1,,,,,,,,,,,,,,,,,,,,,,,,,,,,,,,,
,,,,,,,,,,,,5b0b77a9d282ff00015b7531,001,3,2025-04-15_06h47.22.412,avatar_quest_3AFC_legacy,2022.1.3,Win32,119.047619,5b0b77a9d282ff00015b7531,67fe37cb3bd870bba73819bd,67fe38980acf42f4c0d2b490,,,,,,,,,,,,,,,,,,,,,,With Brainslug Difficult 1 With Money,6,images/assets/snowy_money.jpg,learning,20,images/assets/success_money.jpg,images/assets/gameover.jpg,,,,,,,,,,,,,0,1,1,0,1,,,,,,,,,,,,,,,,,,,,,,,,,,,,,,,,
,,,,,,,,,,,,5b0b77a9d282ff00015b7531,001,3,2025-04-15_06h47.22.412,avatar_quest_3AFC_legacy,2022.1.3,Win32,119.047619,5b0b77a9d282ff00015b7531,67fe37cb3bd870bba73819bd,67fe38980acf42f4c0d2b490,"[""up"",""left"",""right""]","[0.6076999999880854,2.3396999999880848,4.268699999988058]",,calibration,No Brainslug No Barriers No Money,16,7.9214,5.7993,2,0,0,TRUE,na,na,na,na,,,,,,,,,,,,,,,,,,,,,,,,,,,,,,,,,,0,0,0,0,1,,,,,,,,,,,,,,,,,,,,,,,
,,,,,,,,,,,,5b0b77a9d282ff00015b7531,001,3,2025-04-15_06h47.22.412,avatar_quest_3AFC_legacy,2022.1.3,Win32,119.047619,5b0b77a9d282ff00015b7531,67fe37cb3bd870bba73819bd,67fe38980acf42f4c0d2b490,,,,,,,,,,,,,,,,,,,,,,No Brainslug No Barriers No Money,0,images/assets/snowy_original.jpg,learning,10,images/assets/success.jpg,images/assets/gameover.jpg,,,,,,,,,,,,,0,2,2,10,1,,,,,,,,,,,,,,,,,,,,,,,,,,,,,,,,
,,,,,,,,,,,,5b0b77a9d282ff00015b7531,001,3,2025-04-15_06h47.22.412,avatar_quest_3AFC_legacy,2022.1.3,Win32,119.047619,5b0b77a9d282ff00015b7531,67fe37cb3bd870bba73819bd,67fe38980acf42f4c0d2b490,,,,,,,,,,,,,,,,,,,,,,With Brainslug No Barriers No Money,0,images/assets/snowy_original.jpg,learning,10,images/assets/success.jpg,images/assets/gameover.jpg,,,,,,,,,,,,,0,3,3,5,1,,,,,,,,,,,,,,,,,,,,,,,,,,,,,,,,
,,,,,,,,,,,,5b0b77a9d282ff00015b7531,001,3,2025-04-15_06h47.22.412,avatar_quest_3AFC_legacy,2022.1.3,Win32,119.047619,5b0b77a9d282ff00015b7531,67fe37cb3bd870bba73819bd,67fe38980acf42f4c0d2b490,,,,,,,,,,,,,,,,,,,,,,With Brainslug Difficult 1 No Money,6,images/assets/snowy_original.jpg,learning,20,images/assets/success.jpg,images/assets/gameover.jpg,,,,,,,,,,,,,0,4,4,1,1,,,,,,,,,,,,,,,,,,,,,,,,,,,,,,,,
,,,,,,,,,,,,5b0b77a9d282ff00015b7531,001,3,2025-04-15_06h47.22.412,avatar_quest_3AFC_legacy,2022.1.3,Win32,119.047619,5b0b77a9d282ff00015b7531,67fe37cb3bd870bba73819bd,67fe38980acf42f4c0d2b490,,,,,,,,,,,,,,,,,,,,,,No Brainslug Difficult 2 No Money,12,images/assets/snowy_original.jpg,learning,20,images/assets/success.jpg,images/assets/gameover.jpg,,,,,,,,,,,,,0,5,5,8,1,,,,,,,,,,,,,,,,,,,,,,,,,,,,,,,,
,,,,,,,,,,,,5b0b77a9d282ff00015b7531,001,3,2025-04-15_06h47.22.412,avatar_quest_3AFC_legacy,2022.1.3,Win32,119.047619,5b0b77a9d282ff00015b7531,67fe37cb3bd870bba73819bd,67fe38980acf42f4c0d2b490,,,,,,,,,,,,,,,,,,,,,,With Brainslug Difficult 2 No Money,12,images/assets/snowy_original.jpg,learning,20,images/assets/success.jpg,images/assets/gameover.jpg,,,,,,,,,,,,,0,6,6,3,1,,,,,,,,,,,,,,,,,,,,,,,,,,,,,,,,
,,,,,,,,,,,,5b0b77a9d282ff00015b7531,001,3,2025-04-15_06h47.22.412,avatar_quest_3AFC_legacy,2022.1.3,Win32,119.047619,5b0b77a9d282ff00015b7531,67fe37cb3bd870bba73819bd,67fe38980acf42f4c0d2b490,,,,,,,,,,,,,,,,,,,,,,No Brainslug No Barriers With Money,0,images/assets/snowy_money.jpg,learning,10,images/assets/success_money.jpg,images/assets/gameover.jpg,,,,,,,,,,,,,0,7,7,9,1,,,,,,,,,,,,,,,,,,,,,,,,,,,,,,,,
,,,,,,,,,,,,5b0b77a9d282ff00015b7531,001,3,2025-04-15_06h47.22.412,avatar_quest_3AFC_legacy,2022.1.3,Win32,119.047619,5b0b77a9d282ff00015b7531,67fe37cb3bd870bba73819bd,67fe38980acf42f4c0d2b490,,,,,,,,,,,,,,,,,,,,,,With Brainslug No Barriers With Money,0,images/assets/snowy_money.jpg,learning,10,images/assets/success_money.jpg,images/assets/gameover.jpg,,,,,,,,,,,,,0,8,8,4,1,,,,,,,,,,,,,,,,,,,,,,,,,,,,,,,,
,,,,,,,,,,,,5b0b77a9d282ff00015b7531,001,3,2025-04-15_06h47.22.412,avatar_quest_3AFC_legacy,2022.1.3,Win32,119.047619,5b0b77a9d282ff00015b7531,67fe37cb3bd870bba73819bd,67fe38980acf42f4c0d2b490,,,,,,,,,,,,,,,,,,,,,,With Brainslug Difficult 2 With Money,12,images/assets/snowy_money.jpg,learning,20,images/assets/success_money.jpg,images/assets/gameover.jpg,,,,,,,,,,,,,0,9,9,2,1,,,,,,,,,,,,,,,,,,,,,,,,,,,,,,,,
,,,,,,,,,,,,5b0b77a9d282ff00015b7531,001,3,2025-04-15_06h47.22.412,avatar_quest_3AFC_legacy,2022.1.3,Win32,119.047619,5b0b77a9d282ff00015b7531,67fe37cb3bd870bba73819bd,67fe38980acf42f4c0d2b490,,,,,,,,,,,,,,,,,,,,,,No Brainslug Difficult 2 With Money,12,images/assets/snowy_money.jpg,learning,20,images/assets/success_money.jpg,images/assets/gameover.jpg,,,,,,,,,,,,,0,10,10,7,1,,,,,,,,,,,,,,,,,,,,,,,,,,,,,,,,
,,,,,,,,,,,,5b0b77a9d282ff00015b7531,001,3,2025-04-15_06h47.22.412,avatar_quest_3AFC_legacy,2022.1.3,Win32,119.047619,5b0b77a9d282ff00015b7531,67fe37cb3bd870bba73819bd,67fe38980acf42f4c0d2b490,,,,,,,,,,,,,,,,,,,,,,,,,,,,,,,,,,,,,,,,,,,,,,,,,,,,,,,0,0,0,0,1,,,,,,,,,,,,,,,,,,
,,,,,,,,,,,,5b0b77a9d282ff00015b7531,001,3,2025-04-15_06h47.22.412,avatar_quest_3AFC_legacy,2022.1.3,Win32,119.047619,5b0b77a9d282ff00015b7531,67fe37cb3bd870bba73819bd,67fe38980acf42f4c0d2b490,,,,,,,,,,,,,,,,,,,,,,With Brainslug No Barriers No Money,0,images/assets/snowy_original.jpg,learning,10,images/assets/success.jpg,images/assets/gameover.jpg,,,,,,,,No Brainslug No Barriers No Money,No Brainslug No Barriers No Money,left,0.528,"[""No Brainslug Difficult 1 No Money"",""No Brainslug No Barriers With Money""]",0,0,0,5,1,,,,,,,,,,,,,,,,,,,,,,,,,,,,,,,,
,,,,,,,,,,,,5b0b77a9d282ff00015b7531,001,3,2025-04-15_06h47.22.412,avatar_quest_3AFC_legacy,2022.1.3,Win32,119.047619,5b0b77a9d282ff00015b7531,67fe37cb3bd870bba73819bd,67fe38980acf42f4c0d2b490,,,,,,,,,,,,,,,,,,,,,,No Brainslug Difficult 1 No Money,6,images/assets/snowy_original.jpg,learning,20,images/assets/success.jpg,images/assets/gameover.jpg,,,,,,,,,,,,,0,1,1,6,1,,,,,,,,,,,,,,,,,,,,,,,,,,,,,,,,
,,,,,,,,,,,,5b0b77a9d282ff00015b7531,001,3,2025-04-15_06h47.22.412,avatar_quest_3AFC_legacy,2022.1.3,Win32,119.047619,5b0b77a9d282ff00015b7531,67fe37cb3bd870bba73819bd,67fe38980acf42f4c0d2b490,,,,,,,,,,,,,,,,,,,,,,With Brainslug Difficult 2 No Money,12,images/assets/snowy_original.jpg,learning,20,images/assets/success.jpg,images/assets/gameover.jpg,,,,,,,,,,,,,0,2,2,3,1,,,,,,,,,,,,,,,,,,,,,,,,,,,,,,,,
,,,,,,,,,,,,5b0b77a9d282ff00015b7531,001,3,2025-04-15_06h47.22.412,avatar_quest_3AFC_legacy,2022.1.3,Win32,119.047619,5b0b77a9d282ff00015b7531,67fe37cb3bd870bba73819bd,67fe38980acf42f4c0d2b490,,,,,,,,,,,,,,,,,,,,,,No Brainslug No Barriers With Money,0,images/assets/snowy_money.jpg,learning,10,images/assets/success_money.jpg,images/assets/gameover.jpg,,,,,,,,,,,,,0,3,3,9,1,,,,,,,,,,,,,,,,,,,,,,,,,,,,,,,,
,,,,,,,,,,,,5b0b77a9d282ff00015b7531,001,3,2025-04-15_06h47.22.412,avatar_quest_3AFC_legacy,2022.1.3,Win32,119.047619,5b0b77a9d282ff00015b7531,67fe37cb3bd870bba73819bd,67fe38980acf42f4c0d2b490,,,,,,,,,,,,,,,,,,,,,,No Brainslug Difficult 2 With Money,12,images/assets/snowy_money.jpg,learning,20,images/assets/success_money.jpg,images/assets/gameover.jpg,,,,,,,,,,,,,0,4,4,7,1,,,,,,,,,,,,,,,,,,,,,,,,,,,,,,,,
,,,,,,,,,,,,5b0b77a9d282ff00015b7531,001,3,2025-04-15_06h47.22.412,avatar_quest_3AFC_legacy,2022.1.3,Win32,119.047619,5b0b77a9d282ff00015b7531,67fe37cb3bd870bba73819bd,67fe38980acf42f4c0d2b490,,,,,,,,,,,,,,,,,,,,,,With Brainslug Difficult 1 No Money,6,images/assets/snowy_original.jpg,learning,20,images/assets/success.jpg,images/assets/gameover.jpg,,,,,,,,,,,,,0,5,5,1,1,,,,,,,,,,,,,,,,,,,,,,,,,,,,,,,,
,,,,,,,,,,,,5b0b77a9d282ff00015b7531,001,3,2025-04-15_06h47.22.412,avatar_quest_3AFC_legacy,2022.1.3,Win32,119.047619,5b0b77a9d282ff00015b7531,67fe37cb3bd870bba73819bd,67fe38980acf42f4c0d2b490,"[""left"",""right"",""left""]","[0.45440000000598957,0.9275000000000091,2.098000000000013]",,calibration,No Brainslug No Barriers No Money,17,7.9214,5.7998,3,0,0,TRUE,na,na,na,na,,,,,,,,,,,,,,,,,,,,,,,,,,,,,,,,,,0,0,0,0,1,,,,,,,,,,,,,,,,,,,,,,,
,,,,,,,,,,,,5b0b77a9d282ff00015b7531,001,3,2025-04-15_06h47.22.412,avatar_quest_3AFC_legacy,2022.1.3,Win32,119.047619,5b0b77a9d282ff00015b7531,67fe37cb3bd870bba73819bd,67fe38980acf42f4c0d2b490,,,,,,,,,,,,,,,,,,,,,,No Brainslug No Barriers No Money,0,images/assets/snowy_original.jpg,learning,10,images/assets/success.jpg,images/assets/gameover.jpg,,,,,,,,,,,,,0,6,6,10,1,,,,,,,,,,,,,,,,,,,,,,,,,,,,,,,,
,,,,,,,,,,,,5b0b77a9d282ff00015b7531,001,3,2025-04-15_06h47.22.412,avatar_quest_3AFC_legacy,2022.1.3,Win32,119.047619,5b0b77a9d282ff00015b7531,67fe37cb3bd870bba73819bd,67fe38980acf42f4c0d2b490,,,,,,,,,,,,,,,,,,,,,,With Brainslug Difficult 2 With Money,12,images/assets/snowy_money.jpg,learning,20,images/assets/success_money.jpg,images/assets/gameover.jpg,,,,,,,,,,,,,0,7,7,2,1,,,,,,,,,,,,,,,,,,,,,,,,,,,,,,,,
,,,,,,,,,,,,5b0b77a9d282ff00015b7531,001,3,2025-04-15_06h47.22.412,avatar_quest_3AFC_legacy,2022.1.3,Win32,119.047619,5b0b77a9d282ff00015b7531,67fe37cb3bd870bba73819bd,67fe38980acf42f4c0d2b490,,,,,,,,,,,,,,,,,,,,,,No Brainslug Difficult 2 No Money,12,images/assets/snowy_original.jpg,learning,20,images/assets/success.jpg,images/assets/gameover.jpg,,,,,,,,,,,,,0,8,8,8,1,,,,,,,,,,,,,,,,,,,,,,,,,,,,,,,,
,,,,,,,,,,,,5b0b77a9d282ff00015b7531,001,3,2025-04-15_06h47.22.412,avatar_quest_3AFC_legacy,2022.1.3,Win32,119.047619,5b0b77a9d282ff00015b7531,67fe37cb3bd870bba73819bd,67fe38980acf42f4c0d2b490,,,,,,,,,,,,,,,,,,,,,,With Brainslug Difficult 1 With Money,6,images/assets/snowy_money.jpg,learning,20,images/assets/success_money.jpg,images/assets/gameover.jpg,,,,,,,,,,,,,0,9,9,0,1,,,,,,,,,,,,,,,,,,,,,,,,,,,,,,,,
,,,,,,,,,,,,5b0b77a9d282ff00015b7531,001,3,2025-04-15_06h47.22.412,avatar_quest_3AFC_legacy,2022.1.3,Win32,119.047619,5b0b77a9d282ff00015b7531,67fe37cb3bd870bba73819bd,67fe38980acf42f4c0d2b490,,,,,,,,,,,,,,,,,,,,,,With Brainslug No Barriers With Money,0,images/assets/snowy_money.jpg,learning,10,images/assets/success_money.jpg,images/assets/gameover.jpg,,,,,,,,,,,,,0,10,10,4,1,,,,,,,,,,,,,,,,,,,,,,,,,,,,,,,,
,,,,,,,,,,,,5b0b77a9d282ff00015b7531,001,3,2025-04-15_06h47.22.412,avatar_quest_3AFC_legacy,2022.1.3,Win32,119.047619,5b0b77a9d282ff00015b7531,67fe37cb3bd870bba73819bd,67fe38980acf42f4c0d2b490,,,,,,,,,,,,,,,,,,,,,,,,,,,,,,,,,,,,,,,,,,,,,,,,,,,,,,,1,0,1,0,1,,,,,,,,,,,,,,,,,,
,,,,,,,,,,,,5b0b77a9d282ff00015b7531,001,3,2025-04-15_06h47.22.412,avatar_quest_3AFC_legacy,2022.1.3,Win32,119.047619,5b0b77a9d282ff00015b7531,67fe37cb3bd870bba73819bd,67fe38980acf42f4c0d2b490,,,,,,,,,,,,,,,,,,,,,,No Brainslug No Barriers No Money,0,images/assets/snowy_original.jpg,learning,10,images/assets/success.jpg,images/assets/gameover.jpg,,,,,,,,No Brainslug No Barriers With Money,No Brainslug No Barriers No Money,right,0.5996,"[""No Brainslug No Barriers No Money"",""No Brainslug Difficult 1 No Money""]",0,0,0,10,1,,,,,,,,,,,,,,,,,,,,,,,,,,,,,,,,
,,,,,,,,,,,,5b0b77a9d282ff00015b7531,001,3,2025-04-15_06h47.22.412,avatar_quest_3AFC_legacy,2022.1.3,Win32,119.047619,5b0b77a9d282ff00015b7531,67fe37cb3bd870bba73819bd,67fe38980acf42f4c0d2b490,,,,,,,,,,,,,,,,,,,,,,No Brainslug Difficult 1 No Money,6,images/assets/snowy_original.jpg,learning,20,images/assets/success.jpg,images/assets/gameover.jpg,,,,,,,,,,,,,0,1,1,6,1,,,,,,,,,,,,,,,,,,,,,,,,,,,,,,,,
,,,,,,,,,,,,5b0b77a9d282ff00015b7531,001,3,2025-04-15_06h47.22.412,avatar_quest_3AFC_legacy,2022.1.3,Win32,119.047619,5b0b77a9d282ff00015b7531,67fe37cb3bd870bba73819bd,67fe38980acf42f4c0d2b490,,,,,,,,,,,,,,,,,,,,,,No Brainslug Difficult 2 With Money,12,images/assets/snowy_money.jpg,learning,20,images/assets/success_money.jpg,images/assets/gameover.jpg,,,,,,,,,,,,,0,2,2,7,1,,,,,,,,,,,,,,,,,,,,,,,,,,,,,,,,
,,,,,,,,,,,,5b0b77a9d282ff00015b7531,001,3,2025-04-15_06h47.22.412,avatar_quest_3AFC_legacy,2022.1.3,Win32,119.047619,5b0b77a9d282ff00015b7531,67fe37cb3bd870bba73819bd,67fe38980acf42f4c0d2b490,"[""left"",""right"",""left""]","[2.40949999999998,3.656000000000006,4.860100000023806]",,calibration,No Brainslug No Barriers With Money,18,7.9214,7.1,3,0,1,TRUE,na,na,na,na,,,,,,,,,,,,,,,,,,,,,,,,,,,,,,,,,,0,0,0,0,1,,,,,,,,,,,,,,,,,,,,,,,
,,,,,,,,,,,,5b0b77a9d282ff00015b7531,001,3,2025-04-15_06h47.22.412,avatar_quest_3AFC_legacy,2022.1.3,Win32,119.047619,5b0b77a9d282ff00015b7531,67fe37cb3bd870bba73819bd,67fe38980acf42f4c0d2b490,,,,,,,,,,,,,,,,,,,,,,No Brainslug No Barriers With Money,0,images/assets/snowy_money.jpg,learning,10,images/assets/success_money.jpg,images/assets/gameover.jpg,,,,,,,,,,,,,0,3,3,9,1,,,,,,,,,,,,,,,,,,,,,,,,,,,,,,,,
,,,,,,,,,,,,5b0b77a9d282ff00015b7531,001,3,2025-04-15_06h47.22.412,avatar_quest_3AFC_legacy,2022.1.3,Win32,119.047619,5b0b77a9d282ff00015b7531,67fe37cb3bd870bba73819bd,67fe38980acf42f4c0d2b490,,,,,,,,,,,,,,,,,,,,,,With Brainslug Difficult 1 No Money,6,images/assets/snowy_original.jpg,learning,20,images/assets/success.jpg,images/assets/gameover.jpg,,,,,,,,,,,,,0,4,4,1,1,,,,,,,,,,,,,,,,,,,,,,,,,,,,,,,,
,,,,,,,,,,,,5b0b77a9d282ff00015b7531,001,3,2025-04-15_06h47.22.412,avatar_quest_3AFC_legacy,2022.1.3,Win32,119.047619,5b0b77a9d282ff00015b7531,67fe37cb3bd870bba73819bd,67fe38980acf42f4c0d2b490,,,,,,,,,,,,,,,,,,,,,,With Brainslug No Barriers No Money,0,images/assets/snowy_original.jpg,learning,10,images/assets/success.jpg,images/assets/gameover.jpg,,,,,,,,,,,,,0,5,5,5,1,,,,,,,,,,,,,,,,,,,,,,,,,,,,,,,,
,,,,,,,,,,,,5b0b77a9d282ff00015b7531,001,3,2025-04-15_06h47.22.412,avatar_quest_3AFC_legacy,2022.1.3,Win32,119.047619,5b0b77a9d282ff00015b7531,67fe37cb3bd870bba73819bd,67fe38980acf42f4c0d2b490,,,,,,,,,,,,,,,,,,,,,,With Brainslug Difficult 2 With Money,12,images/assets/snowy_money.jpg,learning,20,images/assets/success_money.jpg,images/assets/gameover.jpg,,,,,,,,,,,,,0,6,6,2,1,,,,,,,,,,,,,,,,,,,,,,,,,,,,,,,,
,,,,,,,,,,,,5b0b77a9d282ff00015b7531,001,3,2025-04-15_06h47.22.412,avatar_quest_3AFC_legacy,2022.1.3,Win32,119.047619,5b0b77a9d282ff00015b7531,67fe37cb3bd870bba73819bd,67fe38980acf42f4c0d2b490,,,,,,,,,,,,,,,,,,,,,,With Brainslug Difficult 1 With Money,6,images/assets/snowy_money.jpg,learning,20,images/assets/success_money.jpg,images/assets/gameover.jpg,,,,,,,,,,,,,0,7,7,0,1,,,,,,,,,,,,,,,,,,,,,,,,,,,,,,,,
,,,,,,,,,,,,5b0b77a9d282ff00015b7531,001,3,2025-04-15_06h47.22.412,avatar_quest_3AFC_legacy,2022.1.3,Win32,119.047619,5b0b77a9d282ff00015b7531,67fe37cb3bd870bba73819bd,67fe38980acf42f4c0d2b490,,,,,,,,,,,,,,,,,,,,,,No Brainslug Difficult 2 No Money,12,images/assets/snowy_original.jpg,learning,20,images/assets/success.jpg,images/assets/gameover.jpg,,,,,,,,,,,,,0,8,8,8,1,,,,,,,,,,,,,,,,,,,,,,,,,,,,,,,,
,,,,,,,,,,,,5b0b77a9d282ff00015b7531,001,3,2025-04-15_06h47.22.412,avatar_quest_3AFC_legacy,2022.1.3,Win32,119.047619,5b0b77a9d282ff00015b7531,67fe37cb3bd870bba73819bd,67fe38980acf42f4c0d2b490,,,,,,,,,,,,,,,,,,,,,,With Brainslug No Barriers With Money,0,images/assets/snowy_money.jpg,learning,10,images/assets/success_money.jpg,images/assets/gameover.jpg,,,,,,,,,,,,,0,9,9,4,1,,,,,,,,,,,,,,,,,,,,,,,,,,,,,,,,
