instruction_mouse.x,instruction_mouse.y,instruction_mouse.leftButton,instruction_mouse.midButton,instruction_mouse.rightButton,instruction_mouse.clicked_name,introduce_general.thisRepN,introduce_general.thisTrialN,introduce_general.thisN,introduce_general.thisIndex,introduce_general.ran,thisInstruction,participant,session,game version,date,expName,psychopyVersion,OS,frameRate,PROLIFIC PID,STUDY ID,SESSION ID,move_resp.keys,move_resp.rt,end_resp.keys,phase,condition,trial_num,time_limit,completion_time,left_right_steps,number_of_obsticle_blocks,number_of_tree_blocks,quest_complete,responsivity_summary,av_inter_brainslug_intervals,proportion_jitter,jitter_direction_proportion_right,calibration_phase.thisRepN,calibration_phase.thisTrialN,calibration_phase.thisN,calibration_phase.thisIndex,calibration_phase.ran,BlockLabel,nObsticles,backgroundImage,phaseLabel,n_side_steps,success_im,gameover_im,success_condition,introduce_learning_or_choice.thisRepN,introduce_learning_or_choice.thisTrialN,introduce_learning_or_choice.thisN,introduce_learning_or_choice.thisIndex,introduce_learning_or_choice.ran,choice_resp.keys,chosen_quest,unchosen_quest,choice_resp_3afc.keys,choice_resp_3afc.rt,unchosen_quests,forced_choice_trial.thisRepN,forced_choice_trial.thisTrialN,forced_choice_trial.thisN,forced_choice_trial.thisIndex,forced_choice_trial.ran,enjoyment_slider.response,enjoyment_slider.rt,effort_slider.response,effort_slider.rt,show_loop2.thisRepN,show_loop2.thisTrialN,show_loop2.thisN,show_loop2.thisIndex,show_loop2.ran,trials_per_block.thisRepN,trials_per_block.thisTrialN,trials_per_block.thisN,trials_per_block.thisIndex,trials_per_block.ran,decision_phase_AFC.thisRepN,decision_phase_AFC.thisTrialN,decision_phase_AFC.thisN,decision_phase_AFC.thisIndex,decision_phase_AFC.ran,blockN,BlockLabel1,questIm1,BlockLabel2,questIm2,BlockLabel3,questIm3,quest_condition,showForcedChoice.thisRepN,showForcedChoice.thisTrialN,showForcedChoice.thisN,showForcedChoice.thisIndex,showForcedChoice.ran
0.402777778,-0.413888889,1,0,0,instruction_button,0,0,0,0,1,images/instructions_part1_LSM_taskversion1/Slide1.JPG,5e668d33ffed4c410e662f8a,001,3,2024-10-09_13h00.46.109,avatar_quest_3AFC_legacy,2022.1.3,Win32,59.88023952,5e668d33ffed4c410e662f8a,62bca317d87d479cda00ba3d,6706b4576c2af222bbe68e09,,,,,,,,,,,,,,,,,,,,,,,,,,,,,,,,,,,,,,,,,,,,,,,,,,,,,,,,,,,,,,,,,,,,,,,,,,,,,
0.383333333,-0.386111111,1,0,0,instruction_button,0,1,1,1,1,images/instructions_part1_LSM_taskversion1/Slide2.JPG,5e668d33ffed4c410e662f8a,001,3,2024-10-09_13h00.46.109,avatar_quest_3AFC_legacy,2022.1.3,Win32,59.88023952,5e668d33ffed4c410e662f8a,62bca317d87d479cda00ba3d,6706b4576c2af222bbe68e09,,,,,,,,,,,,,,,,,,,,,,,,,,,,,,,,,,,,,,,,,,,,,,,,,,,,,,,,,,,,,,,,,,,,,,,,,,,,,
0.374305556,-0.406944444,1,0,0,instruction_button,0,2,2,2,1,images/instructions_part1_LSM_taskversion1/Slide3.JPG,5e668d33ffed4c410e662f8a,001,3,2024-10-09_13h00.46.109,avatar_quest_3AFC_legacy,2022.1.3,Win32,59.88023952,5e668d33ffed4c410e662f8a,62bca317d87d479cda00ba3d,6706b4576c2af222bbe68e09,,,,,,,,,,,,,,,,,,,,,,,,,,,,,,,,,,,,,,,,,,,,,,,,,,,,,,,,,,,,,,,,,,,,,,,,,,,,,
0.370138889,-0.408333333,1,0,0,instruction_button,0,3,3,3,1,images/instructions_part1_LSM_taskversion1/Slide3.5.JPG,5e668d33ffed4c410e662f8a,001,3,2024-10-09_13h00.46.109,avatar_quest_3AFC_legacy,2022.1.3,Win32,59.88023952,5e668d33ffed4c410e662f8a,62bca317d87d479cda00ba3d,6706b4576c2af222bbe68e09,,,,,,,,,,,,,,,,,,,,,,,,,,,,,,,,,,,,,,,,,,,,,,,,,,,,,,,,,,,,,,,,,,,,,,,,,,,,,
0.367361111,-0.396527778,1,0,0,instruction_button,0,4,4,4,1,images/instructions_part1_LSM_taskversion1/Slide4.JPG,5e668d33ffed4c410e662f8a,001,3,2024-10-09_13h00.46.109,avatar_quest_3AFC_legacy,2022.1.3,Win32,59.88023952,5e668d33ffed4c410e662f8a,62bca317d87d479cda00ba3d,6706b4576c2af222bbe68e09,,,,,,,,,,,,,,,,,,,,,,,,,,,,,,,,,,,,,,,,,,,,,,,,,,,,,,,,,,,,,,,,,,,,,,,,,,,,,
0.353472222,-0.393055556,1,0,0,instruction_button,0,5,5,5,1,images/instructions_part1_LSM_taskversion1/Slide6.5.JPG,5e668d33ffed4c410e662f8a,001,3,2024-10-09_13h00.46.109,avatar_quest_3AFC_legacy,2022.1.3,Win32,59.88023952,5e668d33ffed4c410e662f8a,62bca317d87d479cda00ba3d,6706b4576c2af222bbe68e09,,,,,,,,,,,,,,,,,,,,,,,,,,,,,,,,,,,,,,,,,,,,,,,,,,,,,,,,,,,,,,,,,,,,,,,,,,,,,
,,,,,,,,,,,,5e668d33ffed4c410e662f8a,001,3,2024-10-09_13h00.46.109,avatar_quest_3AFC_legacy,2022.1.3,Win32,59.88023952,5e668d33ffed4c410e662f8a,62bca317d87d479cda00ba3d,6706b4576c2af222bbe68e09,"[""left"",""left"",""right"",""right"",""right"",""right"",""right"",""right"",""left"",""right""]","[1.9755999999996163,2.7102999999998048,3.54240000000037,3.993599999999617,4.344599999999616,4.52679999999981,4.698799999999807,7.430799999999806,7.680299999999804,8.585799999999807]",,calibration,No Brainslug No Barriers No Money,1,100,8.7525,7,0,200,TRUE,na,na,na,na,0,0,0,0,1,No Brainslug No Barriers No Money,0,images/assets/snowy_original.jpg,calibration,10,images/assets/success.jpg,images/assets/gameover.jpg,never,,,,,,,,,,,,,,,,,,,,,,,,,,,,,,,,,,,,,,,,,,,,,,,,
,,,,,,,,,,,,5e668d33ffed4c410e662f8a,001,3,2024-10-09_13h00.46.109,avatar_quest_3AFC_legacy,2022.1.3,Win32,59.88023952,5e668d33ffed4c410e662f8a,62bca317d87d479cda00ba3d,6706b4576c2af222bbe68e09,"[""right"",""left"",""right"",""left"",""left"",""right"",""up"",""up"",""right"",""right"",""left"",""left"",""right"",""right"",""right""]","[0.06670000000018206,0.7664000000003597,1.8185999999996199,2.0687999999998112,2.513900000000362,3.6609000000003675,4.0535,4.220700000000178,4.431400000000366,4.804200000000179,5.204400000000362,5.386900000000367,6.249099999999615,6.455400000000367,6.685400000000371]",,calibration,No Brainslug No Barriers No Money,2,100,7.0032,11,0,103,TRUE,na,na,na,na,0,1,1,2,1,No Brainslug No Barriers No Money,0,images/assets/snowy_original.jpg,calibration,10,images/assets/success.jpg,images/assets/gameover.jpg,never,,,,,,,,,,,,,,,,,,,,,,,,,,,,,,,,,,,,,,,,,,,,,,,,
,,,,,,,,,,,,5e668d33ffed4c410e662f8a,001,3,2024-10-09_13h00.46.109,avatar_quest_3AFC_legacy,2022.1.3,Win32,59.88023952,5e668d33ffed4c410e662f8a,62bca317d87d479cda00ba3d,6706b4576c2af222bbe68e09,"[""right"",""left"",""left"",""left"",""left"",""left"",""right"",""right"",""right""]","[0.017099999999629745,0.8830000000000098,2.185399999999447,2.740899999999442,2.95150000000001,3.1415999999996274,3.6607000000001904,3.8700000000000045,4.078299999999814]",,calibration,No Brainslug No Barriers No Money,3,100,5.4682,8,0,0,TRUE,na,na,na,na,0,2,2,1,1,No Brainslug No Barriers No Money,0,images/assets/snowy_original.jpg,calibration,10,images/assets/success.jpg,images/assets/gameover.jpg,never,,,,,,,,,,,,,,,,,,,,,,,,,,,,,,,,,,,,,,,,,,,,,,,,
0.353472222,-0.400694444,1,0,0,instruction_button,,,,,,images/instructions_part2_LSM_taskversion3.jpg,5e668d33ffed4c410e662f8a,001,3,2024-10-09_13h00.46.109,avatar_quest_3AFC_legacy,2022.1.3,Win32,59.88023952,5e668d33ffed4c410e662f8a,62bca317d87d479cda00ba3d,6706b4576c2af222bbe68e09,,,,,,,,,,,,,,,,,,,,,,,,,,,,,,0,0,0,0,1,,,,,,,,,,,,,,,,,,,,,,,,,,,,,,,,,,,,,,,,,,,
,,,,,,,,,,,,5e668d33ffed4c410e662f8a,001,3,2024-10-09_13h00.46.109,avatar_quest_3AFC_legacy,2022.1.3,Win32,59.88023952,5e668d33ffed4c410e662f8a,62bca317d87d479cda00ba3d,6706b4576c2af222bbe68e09,,,,,,,,,,,,,,,,,,,,,,With Brainslug No Barriers No Money,0,images/assets/snowy_original.jpg,learning,10,images/assets/success.jpg,images/assets/gameover.jpg,,,,,,,,With Brainslug Difficult 2 With Money,With Brainslug Difficult 1 No Money,right,2.6028,"[""With Brainslug Difficult 1 No Money"",""With Brainslug Difficult 2 No Money""]",0,0,0,5,1,,,,,,,,,,,,,,,,,,,,,,,,,,,,,,,,
,,,,,,,,,,,,5e668d33ffed4c410e662f8a,001,3,2024-10-09_13h00.46.109,avatar_quest_3AFC_legacy,2022.1.3,Win32,59.88023952,5e668d33ffed4c410e662f8a,62bca317d87d479cda00ba3d,6706b4576c2af222bbe68e09,,,,,,,,,,,,,,,,,,,,,,With Brainslug Difficult 1 No Money,6,images/assets/snowy_original.jpg,learning,20,images/assets/success.jpg,images/assets/gameover.jpg,,,,,,,,,,,,,0,1,1,1,1,,,,,,,,,,,,,,,,,,,,,,,,,,,,,,,,
,,,,,,,,,,,,5e668d33ffed4c410e662f8a,001,3,2024-10-09_13h00.46.109,avatar_quest_3AFC_legacy,2022.1.3,Win32,59.88023952,5e668d33ffed4c410e662f8a,62bca317d87d479cda00ba3d,6706b4576c2af222bbe68e09,,,,,,,,,,,,,,,,,,,,,,No Brainslug No Barriers No Money,0,images/assets/snowy_original.jpg,learning,10,images/assets/success.jpg,images/assets/gameover.jpg,,,,,,,,,,,,,0,2,2,10,1,,,,,,,,,,,,,,,,,,,,,,,,,,,,,,,,
,,,,,,,,,,,,5e668d33ffed4c410e662f8a,001,3,2024-10-09_13h00.46.109,avatar_quest_3AFC_legacy,2022.1.3,Win32,59.88023952,5e668d33ffed4c410e662f8a,62bca317d87d479cda00ba3d,6706b4576c2af222bbe68e09,,,,,,,,,,,,,,,,,,,,,,No Brainslug No Barriers With Money,0,images/assets/snowy_money.jpg,learning,10,images/assets/success_money.jpg,images/assets/gameover.jpg,,,,,,,,,,,,,0,3,3,9,1,,,,,,,,,,,,,,,,,,,,,,,,,,,,,,,,
,,,,,,,,,,,,5e668d33ffed4c410e662f8a,001,3,2024-10-09_13h00.46.109,avatar_quest_3AFC_legacy,2022.1.3,Win32,59.88023952,5e668d33ffed4c410e662f8a,62bca317d87d479cda00ba3d,6706b4576c2af222bbe68e09,,,,,,,,,,,,,,,,,,,,,,No Brainslug Difficult 2 With Money,12,images/assets/snowy_money.jpg,learning,20,images/assets/success_money.jpg,images/assets/gameover.jpg,,,,,,,,,,,,,0,4,4,7,1,,,,,,,,,,,,,,,,,,,,,,,,,,,,,,,,
,,,,,,,,,,,,5e668d33ffed4c410e662f8a,001,3,2024-10-09_13h00.46.109,avatar_quest_3AFC_legacy,2022.1.3,Win32,59.88023952,5e668d33ffed4c410e662f8a,62bca317d87d479cda00ba3d,6706b4576c2af222bbe68e09,,,,,,,,,,,,,,,,,,,,,,No Brainslug Difficult 2 No Money,12,images/assets/snowy_original.jpg,learning,20,images/assets/success.jpg,images/assets/gameover.jpg,,,,,,,,,,,,,0,5,5,8,1,,,,,,,,,,,,,,,,,,,,,,,,,,,,,,,,
,,,,,,,,,,,,5e668d33ffed4c410e662f8a,001,3,2024-10-09_13h00.46.109,avatar_quest_3AFC_legacy,2022.1.3,Win32,59.88023952,5e668d33ffed4c410e662f8a,62bca317d87d479cda00ba3d,6706b4576c2af222bbe68e09,,,,,,,,,,,,,,,,,,,,,,With Brainslug Difficult 2 No Money,12,images/assets/snowy_original.jpg,learning,20,images/assets/success.jpg,images/assets/gameover.jpg,,,,,,,,,,,,,0,6,6,3,1,,,,,,,,,,,,,,,,,,,,,,,,,,,,,,,,
,,,,,,,,,,,,5e668d33ffed4c410e662f8a,001,3,2024-10-09_13h00.46.109,avatar_quest_3AFC_legacy,2022.1.3,Win32,59.88023952,5e668d33ffed4c410e662f8a,62bca317d87d479cda00ba3d,6706b4576c2af222bbe68e09,,,,,,,,,,,,,,,,,,,,,,With Brainslug No Barriers With Money,0,images/assets/snowy_money.jpg,learning,10,images/assets/success_money.jpg,images/assets/gameover.jpg,,,,,,,,,,,,,0,7,7,4,1,,,,,,,,,,,,,,,,,,,,,,,,,,,,,,,,
,,,,,,,,,,,,5e668d33ffed4c410e662f8a,001,3,2024-10-09_13h00.46.109,avatar_quest_3AFC_legacy,2022.1.3,Win32,59.88023952,5e668d33ffed4c410e662f8a,62bca317d87d479cda00ba3d,6706b4576c2af222bbe68e09,,,,,,,,,,,,,,,,,,,,,,With Brainslug Difficult 1 With Money,6,images/assets/snowy_money.jpg,learning,20,images/assets/success_money.jpg,images/assets/gameover.jpg,,,,,,,,,,,,,0,8,8,0,1,,,,,,,,,,,,,,,,,,,,,,,,,,,,,,,,
,,,,,,,,,,,,5e668d33ffed4c410e662f8a,001,3,2024-10-09_13h00.46.109,avatar_quest_3AFC_legacy,2022.1.3,Win32,59.88023952,5e668d33ffed4c410e662f8a,62bca317d87d479cda00ba3d,6706b4576c2af222bbe68e09,"[""left"",""right"",""right"",""right"",""left"",""down"",""down"",""left"",""right""]","[1.2442999999998108,2.233399999999449,2.452099999999632,3.555299999999818,4.298200000000179,4.551899999999449,5.118599999999617,6.3183999999994285,6.935399999999447]",,calibration,With Brainslug Difficult 2 With Money,4,10.61195,10.6125,0,2,0,FALSE,na,na,na,na,,,,,,,,,,,,,,,,,,,,,,,,,,,,,,,,,,0,0,0,0,1,,,,,,,,,,,,,,,,,,,,,,,
,,,,,,,,,,,,5e668d33ffed4c410e662f8a,001,3,2024-10-09_13h00.46.109,avatar_quest_3AFC_legacy,2022.1.3,Win32,59.88023952,5e668d33ffed4c410e662f8a,62bca317d87d479cda00ba3d,6706b4576c2af222bbe68e09,,,,,,,,,,,,,,,,,,,,,,With Brainslug Difficult 2 With Money,12,images/assets/snowy_money.jpg,learning,20,images/assets/success_money.jpg,images/assets/gameover.jpg,,,,,,,,,,,,,0,9,9,2,1,,,,,,,,,,,,,,,,,,,,,,,,,,,,,,,,
,,,,,,,,,,,,5e668d33ffed4c410e662f8a,001,3,2024-10-09_13h00.46.109,avatar_quest_3AFC_legacy,2022.1.3,Win32,59.88023952,5e668d33ffed4c410e662f8a,62bca317d87d479cda00ba3d,6706b4576c2af222bbe68e09,,,,,,,,,,,,,,,,,,,,,,No Brainslug Difficult 1 No Money,6,images/assets/snowy_original.jpg,learning,20,images/assets/success.jpg,images/assets/gameover.jpg,,,,,,,,,,,,,0,10,10,6,1,,,,,,,,,,,,,,,,,,,,,,,,,,,,,,,,
,,,,,,,,,,,,5e668d33ffed4c410e662f8a,001,3,2024-10-09_13h00.46.109,avatar_quest_3AFC_legacy,2022.1.3,Win32,59.88023952,5e668d33ffed4c410e662f8a,62bca317d87d479cda00ba3d,6706b4576c2af222bbe68e09,,,,,,,,,,,,,,,,,,,,,,,,,,,,,,,,,,,,,,,,,,,,,,,,,,,,,,,0,0,0,0,1,,,,,,,,,,,,,,,,,,
,,,,,,,,,,,,5e668d33ffed4c410e662f8a,001,3,2024-10-09_13h00.46.109,avatar_quest_3AFC_legacy,2022.1.3,Win32,59.88023952,5e668d33ffed4c410e662f8a,62bca317d87d479cda00ba3d,6706b4576c2af222bbe68e09,,,,,,,,,,,,,,,,,,,,,,With Brainslug No Barriers With Money,0,images/assets/snowy_money.jpg,learning,10,images/assets/success_money.jpg,images/assets/gameover.jpg,,,,,,,,With Brainslug Difficult 2 With Money,With Brainslug Difficult 1 No Money,right,1.4069,"[""With Brainslug Difficult 1 No Money"",""With Brainslug Difficult 2 No Money""]",0,0,0,4,1,,,,,,,,,,,,,,,,,,,,,,,,,,,,,,,,
,,,,,,,,,,,,5e668d33ffed4c410e662f8a,001,3,2024-10-09_13h00.46.109,avatar_quest_3AFC_legacy,2022.1.3,Win32,59.88023952,5e668d33ffed4c410e662f8a,62bca317d87d479cda00ba3d,6706b4576c2af222bbe68e09,,,,,,,,,,,,,,,,,,,,,,No Brainslug No Barriers With Money,0,images/assets/snowy_money.jpg,learning,10,images/assets/success_money.jpg,images/assets/gameover.jpg,,,,,,,,,,,,,0,1,1,9,1,,,,,,,,,,,,,,,,,,,,,,,,,,,,,,,,
,,,,,,,,,,,,5e668d33ffed4c410e662f8a,001,3,2024-10-09_13h00.46.109,avatar_quest_3AFC_legacy,2022.1.3,Win32,59.88023952,5e668d33ffed4c410e662f8a,62bca317d87d479cda00ba3d,6706b4576c2af222bbe68e09,,,,,,,,,,,,,,,,,,,,,,No Brainslug Difficult 2 With Money,12,images/assets/snowy_money.jpg,learning,20,images/assets/success_money.jpg,images/assets/gameover.jpg,,,,,,,,,,,,,0,2,2,7,1,,,,,,,,,,,,,,,,,,,,,,,,,,,,,,,,
,,,,,,,,,,,,5e668d33ffed4c410e662f8a,001,3,2024-10-09_13h00.46.109,avatar_quest_3AFC_legacy,2022.1.3,Win32,59.88023952,5e668d33ffed4c410e662f8a,62bca317d87d479cda00ba3d,6706b4576c2af222bbe68e09,,,,,,,,,,,,,,,,,,,,,,No Brainslug No Barriers No Money,0,images/assets/snowy_original.jpg,learning,10,images/assets/success.jpg,images/assets/gameover.jpg,,,,,,,,,,,,,0,3,3,10,1,,,,,,,,,,,,,,,,,,,,,,,,,,,,,,,,
,,,,,,,,,,,,5e668d33ffed4c410e662f8a,001,3,2024-10-09_13h00.46.109,avatar_quest_3AFC_legacy,2022.1.3,Win32,59.88023952,5e668d33ffed4c410e662f8a,62bca317d87d479cda00ba3d,6706b4576c2af222bbe68e09,"[""right"",""right"",""right"",""right"",""right"",""right"",""left"",""left"",""left"",""left"",""left"",""left"",""left"",""left"",""left"",""right"",""right"",""right"",""left"",""left"",""left"",""left"",""left"",""left"",""left"",""left"",""left"",""right"",""right"",""right"",""right"",""right"",""left"",""left"",""left""]","[0.11339999999944439,0.264299999999821,0.4185999999996284,0.5522000000001981,0.6967999999998256,0.8298999999994408,0.9490999999996461,1.1144999999999925,1.263700000000199,3.3527999999998315,3.5180000000000007,3.6825000000000045,3.848899999999446,4.006799999999828,4.172200000000203,4.46659999999963,4.633200000000187,4.78339999999946,5.522299999999831,5.667799999999829,5.834700000000197,6.018200000000178,6.184799999999825,6.3559999999999945,6.552500000000009,6.770599999999632,6.935700000000196,7.2692999999998165,7.487299999999806,7.65609999999964,7.819700000000182,8.270399999999455,8.876799999999832,9.087500000000006,10.521799999999814]",,calibration,With Brainslug Difficult 2 With Money,5,10.61195,10.6252,10,3,0,FALSE,na,na,na,na,,,,,,,,,,,,,,,,,,,,,,,,,,,,,,,,,,0,0,0,0,1,,,,,,,,,,,,,,,,,,,,,,,
,,,,,,,,,,,,5e668d33ffed4c410e662f8a,001,3,2024-10-09_13h00.46.109,avatar_quest_3AFC_legacy,2022.1.3,Win32,59.88023952,5e668d33ffed4c410e662f8a,62bca317d87d479cda00ba3d,6706b4576c2af222bbe68e09,,,,,,,,,,,,,,,,,,,,,,With Brainslug Difficult 2 With Money,12,images/assets/snowy_money.jpg,learning,20,images/assets/success_money.jpg,images/assets/gameover.jpg,,,,,,,,,,,,,0,4,4,2,1,,,,,,,,,,,,,,,,,,,,,,,,,,,,,,,,
,,,,,,,,,,,,5e668d33ffed4c410e662f8a,001,3,2024-10-09_13h00.46.109,avatar_quest_3AFC_legacy,2022.1.3,Win32,59.88023952,5e668d33ffed4c410e662f8a,62bca317d87d479cda00ba3d,6706b4576c2af222bbe68e09,,,,,,,,,,,,,,,,,,,,,,No Brainslug Difficult 1 No Money,6,images/assets/snowy_original.jpg,learning,20,images/assets/success.jpg,images/assets/gameover.jpg,,,,,,,,,,,,,0,5,5,6,1,,,,,,,,,,,,,,,,,,,,,,,,,,,,,,,,
,,,,,,,,,,,,5e668d33ffed4c410e662f8a,001,3,2024-10-09_13h00.46.109,avatar_quest_3AFC_legacy,2022.1.3,Win32,59.88023952,5e668d33ffed4c410e662f8a,62bca317d87d479cda00ba3d,6706b4576c2af222bbe68e09,,,,,,,,,,,,,,,,,,,,,,With Brainslug Difficult 2 No Money,12,images/assets/snowy_original.jpg,learning,20,images/assets/success.jpg,images/assets/gameover.jpg,,,,,,,,,,,,,0,6,6,3,1,,,,,,,,,,,,,,,,,,,,,,,,,,,,,,,,
,,,,,,,,,,,,5e668d33ffed4c410e662f8a,001,3,2024-10-09_13h00.46.109,avatar_quest_3AFC_legacy,2022.1.3,Win32,59.88023952,5e668d33ffed4c410e662f8a,62bca317d87d479cda00ba3d,6706b4576c2af222bbe68e09,,,,,,,,,,,,,,,,,,,,,,No Brainslug Difficult 2 No Money,12,images/assets/snowy_original.jpg,learning,20,images/assets/success.jpg,images/assets/gameover.jpg,,,,,,,,,,,,,0,7,7,8,1,,,,,,,,,,,,,,,,,,,,,,,,,,,,,,,,
,,,,,,,,,,,,5e668d33ffed4c410e662f8a,001,3,2024-10-09_13h00.46.109,avatar_quest_3AFC_legacy,2022.1.3,Win32,59.88023952,5e668d33ffed4c410e662f8a,62bca317d87d479cda00ba3d,6706b4576c2af222bbe68e09,,,,,,,,,,,,,,,,,,,,,,With Brainslug No Barriers No Money,0,images/assets/snowy_original.jpg,learning,10,images/assets/success.jpg,images/assets/gameover.jpg,,,,,,,,,,,,,0,8,8,5,1,,,,,,,,,,,,,,,,,,,,,,,,,,,,,,,,
,,,,,,,,,,,,5e668d33ffed4c410e662f8a,001,3,2024-10-09_13h00.46.109,avatar_quest_3AFC_legacy,2022.1.3,Win32,59.88023952,5e668d33ffed4c410e662f8a,62bca317d87d479cda00ba3d,6706b4576c2af222bbe68e09,,,,,,,,,,,,,,,,,,,,,,With Brainslug Difficult 1 With Money,6,images/assets/snowy_money.jpg,learning,20,images/assets/success_money.jpg,images/assets/gameover.jpg,,,,,,,,,,,,,0,9,9,0,1,,,,,,,,,,,,,,,,,,,,,,,,,,,,,,,,
,,,,,,,,,,,,5e668d33ffed4c410e662f8a,001,3,2024-10-09_13h00.46.109,avatar_quest_3AFC_legacy,2022.1.3,Win32,59.88023952,5e668d33ffed4c410e662f8a,62bca317d87d479cda00ba3d,6706b4576c2af222bbe68e09,,,,,,,,,,,,,,,,,,,,,,With Brainslug Difficult 1 No Money,6,images/assets/snowy_original.jpg,learning,20,images/assets/success.jpg,images/assets/gameover.jpg,,,,,,,,,,,,,0,10,10,1,1,,,,,,,,,,,,,,,,,,,,,,,,,,,,,,,,
,,,,,,,,,,,,5e668d33ffed4c410e662f8a,001,3,2024-10-09_13h00.46.109,avatar_quest_3AFC_legacy,2022.1.3,Win32,59.88023952,5e668d33ffed4c410e662f8a,62bca317d87d479cda00ba3d,6706b4576c2af222bbe68e09,,,,,,,,,,,,,,,,,,,,,,,,,,,,,,,,,,,,,,,,,,,,,,,,,,,,,,,1,0,1,0,1,,,,,,,,,,,,,,,,,,
,,,,,,,,,,,,5e668d33ffed4c410e662f8a,001,3,2024-10-09_13h00.46.109,avatar_quest_3AFC_legacy,2022.1.3,Win32,59.88023952,5e668d33ffed4c410e662f8a,62bca317d87d479cda00ba3d,6706b4576c2af222bbe68e09,,,,,,,,,,,,,,,,,,,,,,With Brainslug Difficult 2 No Money,12,images/assets/snowy_original.jpg,learning,20,images/assets/success.jpg,images/assets/gameover.jpg,,,,,,,,With Brainslug Difficult 2 With Money,With Brainslug Difficult 1 No Money,right,2.9228,"[""With Brainslug Difficult 1 No Money"",""With Brainslug Difficult 2 No Money""]",0,0,0,3,1,,,,,,,,,,,,,,,,,,,,,,,,,,,,,,,,
,,,,,,,,,,,,5e668d33ffed4c410e662f8a,001,3,2024-10-09_13h00.46.109,avatar_quest_3AFC_legacy,2022.1.3,Win32,59.88023952,5e668d33ffed4c410e662f8a,62bca317d87d479cda00ba3d,6706b4576c2af222bbe68e09,,,,,,,,,,,,,,,,,,,,,,With Brainslug Difficult 1 With Money,6,images/assets/snowy_money.jpg,learning,20,images/assets/success_money.jpg,images/assets/gameover.jpg,,,,,,,,,,,,,0,1,1,0,1,,,,,,,,,,,,,,,,,,,,,,,,,,,,,,,,
,,,,,,,,,,,,5e668d33ffed4c410e662f8a,001,3,2024-10-09_13h00.46.109,avatar_quest_3AFC_legacy,2022.1.3,Win32,59.88023952,5e668d33ffed4c410e662f8a,62bca317d87d479cda00ba3d,6706b4576c2af222bbe68e09,,,,,,,,,,,,,,,,,,,,,,No Brainslug No Barriers With Money,0,images/assets/snowy_money.jpg,learning,10,images/assets/success_money.jpg,images/assets/gameover.jpg,,,,,,,,,,,,,0,2,2,9,1,,,,,,,,,,,,,,,,,,,,,,,,,,,,,,,,
,,,,,,,,,,,,5e668d33ffed4c410e662f8a,001,3,2024-10-09_13h00.46.109,avatar_quest_3AFC_legacy,2022.1.3,Win32,59.88023952,5e668d33ffed4c410e662f8a,62bca317d87d479cda00ba3d,6706b4576c2af222bbe68e09,,,,,,,,,,,,,,,,,,,,,,With Brainslug No Barriers No Money,0,images/assets/snowy_original.jpg,learning,10,images/assets/success.jpg,images/assets/gameover.jpg,,,,,,,,,,,,,0,3,3,5,1,,,,,,,,,,,,,,,,,,,,,,,,,,,,,,,,
,,,,,,,,,,,,5e668d33ffed4c410e662f8a,001,3,2024-10-09_13h00.46.109,avatar_quest_3AFC_legacy,2022.1.3,Win32,59.88023952,5e668d33ffed4c410e662f8a,62bca317d87d479cda00ba3d,6706b4576c2af222bbe68e09,"[""left"",""left"",""left"",""left"",""right"",""right"",""right"",""right"",""right"",""right"",""right"",""right"",""right"",""right"",""left"",""left"",""left"",""left"",""right"",""right"",""right"",""left"",""left"",""left"",""right"",""right"",""right"",""left"",""left"",""right"",""right"",""right"",""left"",""left"",""left"",""right"",""left"",""left""]","[0.0006999999992558514,0.1791999999992413,0.34609999999960905,0.5962999999998146,1.1019999999999754,1.3193999999994332,1.6397999999998092,1.835899999999441,2.2498999999994282,3.089799999999798,3.2983999999994182,3.8655999999996027,4.366199999999253,5.503499999999974,5.871099999999615,6.3735999999996125,6.552199999999232,6.722499999999997,6.9576999999992495,7.168399999999423,7.338499999999982,7.572399999999419,7.751399999999421,7.925699999999239,8.1240999999996,8.334899999999436,8.518299999999812,8.702799999999797,8.870799999999804,9.20939999999942,9.371799999999809,9.555499999999995,9.72739999999942,9.90349999999998,10.05619999999925,10.144799999999805,10.455799999999812,10.608799999999803]",,calibration,With Brainslug Difficult 2 With Money,6,10.61195,10.6253,20,8,0,FALSE,na,na,na,na,,,,,,,,,,,,,,,,,,,,,,,,,,,,,,,,,,0,0,0,0,1,,,,,,,,,,,,,,,,,,,,,,,
,,,,,,,,,,,,5e668d33ffed4c410e662f8a,001,3,2024-10-09_13h00.46.109,avatar_quest_3AFC_legacy,2022.1.3,Win32,59.88023952,5e668d33ffed4c410e662f8a,62bca317d87d479cda00ba3d,6706b4576c2af222bbe68e09,,,,,,,,,,,,,,,,,,,,,,With Brainslug Difficult 2 With Money,12,images/assets/snowy_money.jpg,learning,20,images/assets/success_money.jpg,images/assets/gameover.jpg,,,,,,,,,,,,,0,4,4,2,1,,,,,,,,,,,,,,,,,,,,,,,,,,,,,,,,
,,,,,,,,,,,,5e668d33ffed4c410e662f8a,001,3,2024-10-09_13h00.46.109,avatar_quest_3AFC_legacy,2022.1.3,Win32,59.88023952,5e668d33ffed4c410e662f8a,62bca317d87d479cda00ba3d,6706b4576c2af222bbe68e09,,,,,,,,,,,,,,,,,,,,,,With Brainslug No Barriers With Money,0,images/assets/snowy_money.jpg,learning,10,images/assets/success_money.jpg,images/assets/gameover.jpg,,,,,,,,,,,,,0,5,5,4,1,,,,,,,,,,,,,,,,,,,,,,,,,,,,,,,,
,,,,,,,,,,,,5e668d33ffed4c410e662f8a,001,3,2024-10-09_13h00.46.109,avatar_quest_3AFC_legacy,2022.1.3,Win32,59.88023952,5e668d33ffed4c410e662f8a,62bca317d87d479cda00ba3d,6706b4576c2af222bbe68e09,,,,,,,,,,,,,,,,,,,,,,No Brainslug Difficult 2 No Money,12,images/assets/snowy_original.jpg,learning,20,images/assets/success.jpg,images/assets/gameover.jpg,,,,,,,,,,,,,0,6,6,8,1,,,,,,,,,,,,,,,,,,,,,,,,,,,,,,,,
,,,,,,,,,,,,5e668d33ffed4c410e662f8a,001,3,2024-10-09_13h00.46.109,avatar_quest_3AFC_legacy,2022.1.3,Win32,59.88023952,5e668d33ffed4c410e662f8a,62bca317d87d479cda00ba3d,6706b4576c2af222bbe68e09,,,,,,,,,,,,,,,,,,,,,,With Brainslug Difficult 1 No Money,6,images/assets/snowy_original.jpg,learning,20,images/assets/success.jpg,images/assets/gameover.jpg,,,,,,,,,,,,,0,7,7,1,1,,,,,,,,,,,,,,,,,,,,,,,,,,,,,,,,
,,,,,,,,,,,,5e668d33ffed4c410e662f8a,001,3,2024-10-09_13h00.46.109,avatar_quest_3AFC_legacy,2022.1.3,Win32,59.88023952,5e668d33ffed4c410e662f8a,62bca317d87d479cda00ba3d,6706b4576c2af222bbe68e09,,,,,,,,,,,,,,,,,,,,,,No Brainslug Difficult 1 No Money,6,images/assets/snowy_original.jpg,learning,20,images/assets/success.jpg,images/assets/gameover.jpg,,,,,,,,,,,,,0,8,8,6,1,,,,,,,,,,,,,,,,,,,,,,,,,,,,,,,,
,,,,,,,,,,,,5e668d33ffed4c410e662f8a,001,3,2024-10-09_13h00.46.109,avatar_quest_3AFC_legacy,2022.1.3,Win32,59.88023952,5e668d33ffed4c410e662f8a,62bca317d87d479cda00ba3d,6706b4576c2af222bbe68e09,,,,,,,,,,,,,,,,,,,,,,No Brainslug Difficult 2 With Money,12,images/assets/snowy_money.jpg,learning,20,images/assets/success_money.jpg,images/assets/gameover.jpg,,,,,,,,,,,,,0,9,9,7,1,,,,,,,,,,,,,,,,,,,,,,,,,,,,,,,,
,,,,,,,,,,,,5e668d33ffed4c410e662f8a,001,3,2024-10-09_13h00.46.109,avatar_quest_3AFC_legacy,2022.1.3,Win32,59.88023952,5e668d33ffed4c410e662f8a,62bca317d87d479cda00ba3d,6706b4576c2af222bbe68e09,,,,,,,,,,,,,,,,,,,,,,No Brainslug No Barriers No Money,0,images/assets/snowy_original.jpg,learning,10,images/assets/success.jpg,images/assets/gameover.jpg,,,,,,,,,,,,,0,10,10,10,1,,,,,,,,,,,,,,,,,,,,,,,,,,,,,,,,
,,,,,,,,,,,,5e668d33ffed4c410e662f8a,001,3,2024-10-09_13h00.46.109,avatar_quest_3AFC_legacy,2022.1.3,Win32,59.88023952,5e668d33ffed4c410e662f8a,62bca317d87d479cda00ba3d,6706b4576c2af222bbe68e09,,,,,,,,,,,,,,,,,,,,,,,,,,,,,,,,,,,,,,,,,,,,,,,,,,,,,,,2,0,2,0,1,,,,,,,,,,,,,,,,,,
,,,,,,,,,,,,5e668d33ffed4c410e662f8a,001,3,2024-10-09_13h00.46.109,avatar_quest_3AFC_legacy,2022.1.3,Win32,59.88023952,5e668d33ffed4c410e662f8a,62bca317d87d479cda00ba3d,6706b4576c2af222bbe68e09,,,,,,,,,,,,,,,,,,,,,,No Brainslug No Barriers With Money,0,images/assets/snowy_money.jpg,learning,10,images/assets/success_money.jpg,images/assets/gameover.jpg,,,,,,,,With Brainslug Difficult 2 With Money,With Brainslug Difficult 1 No Money,right,0.6991,"[""With Brainslug Difficult 1 No Money"",""With Brainslug Difficult 2 No Money""]",0,0,0,9,1,,,,,,,,,,,,,,,,,,,,,,,,,,,,,,,,
,,,,,,,,,,,,5e668d33ffed4c410e662f8a,001,3,2024-10-09_13h00.46.109,avatar_quest_3AFC_legacy,2022.1.3,Win32,59.88023952,5e668d33ffed4c410e662f8a,62bca317d87d479cda00ba3d,6706b4576c2af222bbe68e09,,,,,,,,,,,,,,,,,,,,,,With Brainslug No Barriers No Money,0,images/assets/snowy_original.jpg,learning,10,images/assets/success.jpg,images/assets/gameover.jpg,,,,,,,,,,,,,0,1,1,5,1,,,,,,,,,,,,,,,,,,,,,,,,,,,,,,,,
,,,,,,,,,,,,5e668d33ffed4c410e662f8a,001,3,2024-10-09_13h00.46.109,avatar_quest_3AFC_legacy,2022.1.3,Win32,59.88023952,5e668d33ffed4c410e662f8a,62bca317d87d479cda00ba3d,6706b4576c2af222bbe68e09,,,,,,,,,,,,,,,,,,,,,,No Brainslug No Barriers No Money,0,images/assets/snowy_original.jpg,learning,10,images/assets/success.jpg,images/assets/gameover.jpg,,,,,,,,,,,,,0,2,2,10,1,,,,,,,,,,,,,,,,,,,,,,,,,,,,,,,,
,,,,,,,,,,,,5e668d33ffed4c410e662f8a,001,3,2024-10-09_13h00.46.109,avatar_quest_3AFC_legacy,2022.1.3,Win32,59.88023952,5e668d33ffed4c410e662f8a,62bca317d87d479cda00ba3d,6706b4576c2af222bbe68e09,,,,,,,,,,,,,,,,,,,,,,With Brainslug No Barriers With Money,0,images/assets/snowy_money.jpg,learning,10,images/assets/success_money.jpg,images/assets/gameover.jpg,,,,,,,,,,,,,0,3,3,4,1,,,,,,,,,,,,,,,,,,,,,,,,,,,,,,,,
,,,,,,,,,,,,5e668d33ffed4c410e662f8a,001,3,2024-10-09_13h00.46.109,avatar_quest_3AFC_legacy,2022.1.3,Win32,59.88023952,5e668d33ffed4c410e662f8a,62bca317d87d479cda00ba3d,6706b4576c2af222bbe68e09,,,,,,,,,,,,,,,,,,,,,,No Brainslug Difficult 2 No Money,12,images/assets/snowy_original.jpg,learning,20,images/assets/success.jpg,images/assets/gameover.jpg,,,,,,,,,,,,,0,4,4,8,1,,,,,,,,,,,,,,,,,,,,,,,,,,,,,,,,
,,,,,,,,,,,,5e668d33ffed4c410e662f8a,001,3,2024-10-09_13h00.46.109,avatar_quest_3AFC_legacy,2022.1.3,Win32,59.88023952,5e668d33ffed4c410e662f8a,62bca317d87d479cda00ba3d,6706b4576c2af222bbe68e09,,,,,,,,,,,,,,,,,,,,,,With Brainslug Difficult 1 With Money,6,images/assets/snowy_money.jpg,learning,20,images/assets/success_money.jpg,images/assets/gameover.jpg,,,,,,,,,,,,,0,5,5,0,1,,,,,,,,,,,,,,,,,,,,,,,,,,,,,,,,
,,,,,,,,,,,,5e668d33ffed4c410e662f8a,001,3,2024-10-09_13h00.46.109,avatar_quest_3AFC_legacy,2022.1.3,Win32,59.88023952,5e668d33ffed4c410e662f8a,62bca317d87d479cda00ba3d,6706b4576c2af222bbe68e09,"[""left"",""left"",""left"",""left"",""left"",""left"",""right"",""right"",""right"",""right"",""right"",""left"",""left"",""right"",""right"",""right"",""left"",""left"",""right"",""right"",""right"",""right"",""right"",""right"",""right"",""right"",""right"",""right"",""left"",""left"",""left"",""right"",""right"",""right"",""right"",""right"",""left""]","[0.054200000000179216,0.2337999999998317,0.39670000000018035,0.5302000000002067,0.6847000000001913,1.171099999999626,1.3974000000003741,1.5839000000003693,2.622900000000385,2.781900000000377,2.965700000000197,3.2990000000000066,3.465799999999831,3.6902999999998087,3.856599999999645,4.049799999999834,4.20459999999963,4.391299999999831,4.556799999999811,4.742000000000019,5.259200000000192,5.651700000000204,6.185700000000196,6.368299999999834,6.544000000000011,6.93640000000039,7.235799999999813,7.688000000000017,8.10420000000019,8.25890000000038,8.52709999999962,9.55479999999983,9.724299999999829,9.905200000000207,10.075000000000017,10.238599999999622,10.506]",,calibration,With Brainslug Difficult 2 With Money,7,10.61195,10.6253,12,5,0,FALSE,na,na,na,na,,,,,,,,,,,,,,,,,,,,,,,,,,,,,,,,,,0,0,0,0,1,,,,,,,,,,,,,,,,,,,,,,,
,,,,,,,,,,,,5e668d33ffed4c410e662f8a,001,3,2024-10-09_13h00.46.109,avatar_quest_3AFC_legacy,2022.1.3,Win32,59.88023952,5e668d33ffed4c410e662f8a,62bca317d87d479cda00ba3d,6706b4576c2af222bbe68e09,,,,,,,,,,,,,,,,,,,,,,With Brainslug Difficult 2 With Money,12,images/assets/snowy_money.jpg,learning,20,images/assets/success_money.jpg,images/assets/gameover.jpg,,,,,,,,,,,,,0,6,6,2,1,,,,,,,,,,,,,,,,,,,,,,,,,,,,,,,,
,,,,,,,,,,,,5e668d33ffed4c410e662f8a,001,3,2024-10-09_13h00.46.109,avatar_quest_3AFC_legacy,2022.1.3,Win32,59.88023952,5e668d33ffed4c410e662f8a,62bca317d87d479cda00ba3d,6706b4576c2af222bbe68e09,,,,,,,,,,,,,,,,,,,,,,With Brainslug Difficult 1 No Money,6,images/assets/snowy_original.jpg,learning,20,images/assets/success.jpg,images/assets/gameover.jpg,,,,,,,,,,,,,0,7,7,1,1,,,,,,,,,,,,,,,,,,,,,,,,,,,,,,,,
,,,,,,,,,,,,5e668d33ffed4c410e662f8a,001,3,2024-10-09_13h00.46.109,avatar_quest_3AFC_legacy,2022.1.3,Win32,59.88023952,5e668d33ffed4c410e662f8a,62bca317d87d479cda00ba3d,6706b4576c2af222bbe68e09,,,,,,,,,,,,,,,,,,,,,,No Brainslug Difficult 2 With Money,12,images/assets/snowy_money.jpg,learning,20,images/assets/success_money.jpg,images/assets/gameover.jpg,,,,,,,,,,,,,0,8,8,7,1,,,,,,,,,,,,,,,,,,,,,,,,,,,,,,,,
,,,,,,,,,,,,5e668d33ffed4c410e662f8a,001,3,2024-10-09_13h00.46.109,avatar_quest_3AFC_legacy,2022.1.3,Win32,59.88023952,5e668d33ffed4c410e662f8a,62bca317d87d479cda00ba3d,6706b4576c2af222bbe68e09,,,,,,,,,,,,,,,,,,,,,,With Brainslug Difficult 2 No Money,12,images/assets/snowy_original.jpg,learning,20,images/assets/success.jpg,images/assets/gameover.jpg,,,,,,,,,,,,,0,9,9,3,1,,,,,,,,,,,,,,,,,,,,,,,,,,,,,,,,
,,,,,,,,,,,,5e668d33ffed4c410e662f8a,001,3,2024-10-09_13h00.46.109,avatar_quest_3AFC_legacy,2022.1.3,Win32,59.88023952,5e668d33ffed4c410e662f8a,62bca317d87d479cda00ba3d,6706b4576c2af222bbe68e09,,,,,,,,,,,,,,,,,,,,,,No Brainslug Difficult 1 No Money,6,images/assets/snowy_original.jpg,learning,20,images/assets/success.jpg,images/assets/gameover.jpg,,,,,,,,,,,,,0,10,10,6,1,,,,,,,,,,,,,,,,,,,,,,,,,,,,,,,,
,,,,,,,,,,,,5e668d33ffed4c410e662f8a,001,3,2024-10-09_13h00.46.109,avatar_quest_3AFC_legacy,2022.1.3,Win32,59.88023952,5e668d33ffed4c410e662f8a,62bca317d87d479cda00ba3d,6706b4576c2af222bbe68e09,,,,,,,,,,,,,,,,,,,,,,,,,,,,,,,,,,,,,,,,,,,,,,,,,,,,,,,3,0,3,0,1,,,,,,,,,,,,,,,,,,
,,,,,,,,,,,,5e668d33ffed4c410e662f8a,001,3,2024-10-09_13h00.46.109,avatar_quest_3AFC_legacy,2022.1.3,Win32,59.88023952,5e668d33ffed4c410e662f8a,62bca317d87d479cda00ba3d,6706b4576c2af222bbe68e09,,,,,,,,,,,,,,,,,,,,,,With Brainslug No Barriers No Money,0,images/assets/snowy_original.jpg,learning,10,images/assets/success.jpg,images/assets/gameover.jpg,,,,,,,,With Brainslug Difficult 2 With Money,With Brainslug Difficult 1 No Money,right,0.5166,"[""With Brainslug Difficult 1 No Money"",""With Brainslug Difficult 2 No Money""]",0,0,0,5,1,,,,,,,,,,,,,,,,,,,,,,,,,,,,,,,,
,,,,,,,,,,,,5e668d33ffed4c410e662f8a,001,3,2024-10-09_13h00.46.109,avatar_quest_3AFC_legacy,2022.1.3,Win32,59.88023952,5e668d33ffed4c410e662f8a,62bca317d87d479cda00ba3d,6706b4576c2af222bbe68e09,,,,,,,,,,,,,,,,,,,,,,No Brainslug Difficult 1 No Money,6,images/assets/snowy_original.jpg,learning,20,images/assets/success.jpg,images/assets/gameover.jpg,,,,,,,,,,,,,0,1,1,6,1,,,,,,,,,,,,,,,,,,,,,,,,,,,,,,,,
,,,,,,,,,,,,5e668d33ffed4c410e662f8a,001,3,2024-10-09_13h00.46.109,avatar_quest_3AFC_legacy,2022.1.3,Win32,59.88023952,5e668d33ffed4c410e662f8a,62bca317d87d479cda00ba3d,6706b4576c2af222bbe68e09,,,,,,,,,,,,,,,,,,,,,,With Brainslug Difficult 2 No Money,12,images/assets/snowy_original.jpg,learning,20,images/assets/success.jpg,images/assets/gameover.jpg,,,,,,,,,,,,,0,2,2,3,1,,,,,,,,,,,,,,,,,,,,,,,,,,,,,,,,
,,,,,,,,,,,,5e668d33ffed4c410e662f8a,001,3,2024-10-09_13h00.46.109,avatar_quest_3AFC_legacy,2022.1.3,Win32,59.88023952,5e668d33ffed4c410e662f8a,62bca317d87d479cda00ba3d,6706b4576c2af222bbe68e09,,,,,,,,,,,,,,,,,,,,,,With Brainslug Difficult 1 No Money,6,images/assets/snowy_original.jpg,learning,20,images/assets/success.jpg,images/assets/gameover.jpg,,,,,,,,,,,,,0,3,3,1,1,,,,,,,,,,,,,,,,,,,,,,,,,,,,,,,,
,,,,,,,,,,,,5e668d33ffed4c410e662f8a,001,3,2024-10-09_13h00.46.109,avatar_quest_3AFC_legacy,2022.1.3,Win32,59.88023952,5e668d33ffed4c410e662f8a,62bca317d87d479cda00ba3d,6706b4576c2af222bbe68e09,,,,,,,,,,,,,,,,,,,,,,With Brainslug Difficult 1 With Money,6,images/assets/snowy_money.jpg,learning,20,images/assets/success_money.jpg,images/assets/gameover.jpg,,,,,,,,,,,,,0,4,4,0,1,,,,,,,,,,,,,,,,,,,,,,,,,,,,,,,,
,,,,,,,,,,,,5e668d33ffed4c410e662f8a,001,3,2024-10-09_13h00.46.109,avatar_quest_3AFC_legacy,2022.1.3,Win32,59.88023952,5e668d33ffed4c410e662f8a,62bca317d87d479cda00ba3d,6706b4576c2af222bbe68e09,"[""left"",""left"",""right"",""right"",""left"",""left"",""left"",""left"",""right"",""right"",""right"",""left"",""left"",""right""]","[0.4194000000003939,0.5859000000003789,1.4075999999996327,2.421700000000186,2.777900000000386,3.6892999999998324,4.929299999999813,5.653599999999642,6.097200000000186,7.288499999999999,8.524799999999829,8.9255,9.943099999999646,10.381700000000194]",,calibration,With Brainslug Difficult 2 With Money,8,10.61195,10.6252,6,5,0,FALSE,na,na,na,na,,,,,,,,,,,,,,,,,,,,,,,,,,,,,,,,,,0,0,0,0,1,,,,,,,,,,,,,,,,,,,,,,,
,,,,,,,,,,,,5e668d33ffed4c410e662f8a,001,3,2024-10-09_13h00.46.109,avatar_quest_3AFC_legacy,2022.1.3,Win32,59.88023952,5e668d33ffed4c410e662f8a,62bca317d87d479cda00ba3d,6706b4576c2af222bbe68e09,,,,,,,,,,,,,,,,,,,,,,With Brainslug Difficult 2 With Money,12,images/assets/snowy_money.jpg,learning,20,images/assets/success_money.jpg,images/assets/gameover.jpg,,,,,,,,,,,,,0,5,5,2,1,,,,,,,,,,,,,,,,,,,,,,,,,,,,,,,,
,,,,,,,,,,,,5e668d33ffed4c410e662f8a,001,3,2024-10-09_13h00.46.109,avatar_quest_3AFC_legacy,2022.1.3,Win32,59.88023952,5e668d33ffed4c410e662f8a,62bca317d87d479cda00ba3d,6706b4576c2af222bbe68e09,,,,,,,,,,,,,,,,,,,,,,No Brainslug No Barriers No Money,0,images/assets/snowy_original.jpg,learning,10,images/assets/success.jpg,images/assets/gameover.jpg,,,,,,,,,,,,,0,6,6,10,1,,,,,,,,,,,,,,,,,,,,,,,,,,,,,,,,
,,,,,,,,,,,,5e668d33ffed4c410e662f8a,001,3,2024-10-09_13h00.46.109,avatar_quest_3AFC_legacy,2022.1.3,Win32,59.88023952,5e668d33ffed4c410e662f8a,62bca317d87d479cda00ba3d,6706b4576c2af222bbe68e09,,,,,,,,,,,,,,,,,,,,,,No Brainslug Difficult 2 With Money,12,images/assets/snowy_money.jpg,learning,20,images/assets/success_money.jpg,images/assets/gameover.jpg,,,,,,,,,,,,,0,7,7,7,1,,,,,,,,,,,,,,,,,,,,,,,,,,,,,,,,
,,,,,,,,,,,,5e668d33ffed4c410e662f8a,001,3,2024-10-09_13h00.46.109,avatar_quest_3AFC_legacy,2022.1.3,Win32,59.88023952,5e668d33ffed4c410e662f8a,62bca317d87d479cda00ba3d,6706b4576c2af222bbe68e09,,,,,,,,,,,,,,,,,,,,,,No Brainslug No Barriers With Money,0,images/assets/snowy_money.jpg,learning,10,images/assets/success_money.jpg,images/assets/gameover.jpg,,,,,,,,,,,,,0,8,8,9,1,,,,,,,,,,,,,,,,,,,,,,,,,,,,,,,,
,,,,,,,,,,,,5e668d33ffed4c410e662f8a,001,3,2024-10-09_13h00.46.109,avatar_quest_3AFC_legacy,2022.1.3,Win32,59.88023952,5e668d33ffed4c410e662f8a,62bca317d87d479cda00ba3d,6706b4576c2af222bbe68e09,,,,,,,,,,,,,,,,,,,,,,With Brainslug No Barriers With Money,0,images/assets/snowy_money.jpg,learning,10,images/assets/success_money.jpg,images/assets/gameover.jpg,,,,,,,,,,,,,0,9,9,4,1,,,,,,,,,,,,,,,,,,,,,,,,,,,,,,,,
,,,,,,,,,,,,5e668d33ffed4c410e662f8a,001,3,2024-10-09_13h00.46.109,avatar_quest_3AFC_legacy,2022.1.3,Win32,59.88023952,5e668d33ffed4c410e662f8a,62bca317d87d479cda00ba3d,6706b4576c2af222bbe68e09,,,,,,,,,,,,,,,,,,,,,,No Brainslug Difficult 2 No Money,12,images/assets/snowy_original.jpg,learning,20,images/assets/success.jpg,images/assets/gameover.jpg,,,,,,,,,,,,,0,10,10,8,1,,,,,,,,,,,,,,,,,,,,,,,,,,,,,,,,
,,,,,,,,,,,,5e668d33ffed4c410e662f8a,001,3,2024-10-09_13h00.46.109,avatar_quest_3AFC_legacy,2022.1.3,Win32,59.88023952,5e668d33ffed4c410e662f8a,62bca317d87d479cda00ba3d,6706b4576c2af222bbe68e09,,,,,,,,,,,,,,,,,,,,,,,,,,,,,,,,,,,,,,,,,,,,,,,,,,,,,,,4,0,4,0,1,,,,,,,,,,,,,,,,,,
,,,,,,,,,,,,5e668d33ffed4c410e662f8a,001,3,2024-10-09_13h00.46.109,avatar_quest_3AFC_legacy,2022.1.3,Win32,59.88023952,5e668d33ffed4c410e662f8a,62bca317d87d479cda00ba3d,6706b4576c2af222bbe68e09,,,,,,,,,,,,,,,,,,,,,,With Brainslug Difficult 2 With Money,12,images/assets/snowy_money.jpg,learning,20,images/assets/success_money.jpg,images/assets/gameover.jpg,,,,,,,,With Brainslug Difficult 1 No Money,With Brainslug Difficult 1 No Money,left,3.578,"[""With Brainslug Difficult 2 No Money"",""With Brainslug Difficult 2 With Money""]",0,0,0,2,1,,,,,,,,,,,,,,,,,,,,,,,,,,,,,,,,
,,,,,,,,,,,,5e668d33ffed4c410e662f8a,001,3,2024-10-09_13h00.46.109,avatar_quest_3AFC_legacy,2022.1.3,Win32,59.88023952,5e668d33ffed4c410e662f8a,62bca317d87d479cda00ba3d,6706b4576c2af222bbe68e09,,,,,,,,,,,,,,,,,,,,,,No Brainslug Difficult 1 No Money,6,images/assets/snowy_original.jpg,learning,20,images/assets/success.jpg,images/assets/gameover.jpg,,,,,,,,,,,,,0,1,1,6,1,,,,,,,,,,,,,,,,,,,,,,,,,,,,,,,,
,,,,,,,,,,,,5e668d33ffed4c410e662f8a,001,3,2024-10-09_13h00.46.109,avatar_quest_3AFC_legacy,2022.1.3,Win32,59.88023952,5e668d33ffed4c410e662f8a,62bca317d87d479cda00ba3d,6706b4576c2af222bbe68e09,,,,,,,,,,,,,,,,,,,,,,No Brainslug Difficult 2 With Money,12,images/assets/snowy_money.jpg,learning,20,images/assets/success_money.jpg,images/assets/gameover.jpg,,,,,,,,,,,,,0,2,2,7,1,,,,,,,,,,,,,,,,,,,,,,,,,,,,,,,,
,,,,,,,,,,,,5e668d33ffed4c410e662f8a,001,3,2024-10-09_13h00.46.109,avatar_quest_3AFC_legacy,2022.1.3,Win32,59.88023952,5e668d33ffed4c410e662f8a,62bca317d87d479cda00ba3d,6706b4576c2af222bbe68e09,,,,,,,,,,,,,,,,,,,,,,No Brainslug Difficult 2 No Money,12,images/assets/snowy_original.jpg,learning,20,images/assets/success.jpg,images/assets/gameover.jpg,,,,,,,,,,,,,0,3,3,8,1,,,,,,,,,,,,,,,,,,,,,,,,,,,,,,,,
,,,,,,,,,,,,5e668d33ffed4c410e662f8a,001,3,2024-10-09_13h00.46.109,avatar_quest_3AFC_legacy,2022.1.3,Win32,59.88023952,5e668d33ffed4c410e662f8a,62bca317d87d479cda00ba3d,6706b4576c2af222bbe68e09,,,,,,,,,,,,,,,,,,,,,,With Brainslug Difficult 2 No Money,12,images/assets/snowy_original.jpg,learning,20,images/assets/success.jpg,images/assets/gameover.jpg,,,,,,,,,,,,,0,4,4,3,1,,,,,,,,,,,,,,,,,,,,,,,,,,,,,,,,
,,,,,,,,,,,,5e668d33ffed4c410e662f8a,001,3,2024-10-09_13h00.46.109,avatar_quest_3AFC_legacy,2022.1.3,Win32,59.88023952,5e668d33ffed4c410e662f8a,62bca317d87d479cda00ba3d,6706b4576c2af222bbe68e09,"[""left"",""left"",""left"",""right"",""right"",""left"",""right"",""right"",""right"",""right"",""right"",""left"",""left"",""left"",""left"",""left""]","[0.31310000000055993,0.5312000000001831,0.8639000000003705,1.3642999999998153,1.631100000000572,2.5817999999998165,3.468200000000195,3.983100000000576,4.833799999999826,5.734400000000392,6.101400000000382,6.818700000000206,7.002100000000581,7.202299999999809,7.469600000000554,7.669600000000571]",,calibration,With Brainslug Difficult 1 No Money,9,10.61195,8.1942,7,2,0,TRUE,na,na,na,na,,,,,,,,,,,,,,,,,,,,,,,,,,,,,,,,,,0,0,0,0,1,,,,,,,,,,,,,,,,,,,,,,,
,,,,,,,,,,,,5e668d33ffed4c410e662f8a,001,3,2024-10-09_13h00.46.109,avatar_quest_3AFC_legacy,2022.1.3,Win32,59.88023952,5e668d33ffed4c410e662f8a,62bca317d87d479cda00ba3d,6706b4576c2af222bbe68e09,,,,,,,,,,,,,,,,,,,,,,With Brainslug Difficult 1 No Money,6,images/assets/snowy_original.jpg,learning,20,images/assets/success.jpg,images/assets/gameover.jpg,,,,,,,,,,,,,0,5,5,1,1,,,,,,,,,,,,,,,,,,,,,,,,,,,,,,,,
,,,,,,,,,,,,5e668d33ffed4c410e662f8a,001,3,2024-10-09_13h00.46.109,avatar_quest_3AFC_legacy,2022.1.3,Win32,59.88023952,5e668d33ffed4c410e662f8a,62bca317d87d479cda00ba3d,6706b4576c2af222bbe68e09,,,,,,,,,,,,,,,,,,,,,,No Brainslug No Barriers With Money,0,images/assets/snowy_money.jpg,learning,10,images/assets/success_money.jpg,images/assets/gameover.jpg,,,,,,,,,,,,,0,6,6,9,1,,,,,,,,,,,,,,,,,,,,,,,,,,,,,,,,
,,,,,,,,,,,,5e668d33ffed4c410e662f8a,001,3,2024-10-09_13h00.46.109,avatar_quest_3AFC_legacy,2022.1.3,Win32,59.88023952,5e668d33ffed4c410e662f8a,62bca317d87d479cda00ba3d,6706b4576c2af222bbe68e09,,,,,,,,,,,,,,,,,,,,,,With Brainslug Difficult 1 With Money,6,images/assets/snowy_money.jpg,learning,20,images/assets/success_money.jpg,images/assets/gameover.jpg,,,,,,,,,,,,,0,7,7,0,1,,,,,,,,,,,,,,,,,,,,,,,,,,,,,,,,
,,,,,,,,,,,,5e668d33ffed4c410e662f8a,001,3,2024-10-09_13h00.46.109,avatar_quest_3AFC_legacy,2022.1.3,Win32,59.88023952,5e668d33ffed4c410e662f8a,62bca317d87d479cda00ba3d,6706b4576c2af222bbe68e09,,,,,,,,,,,,,,,,,,,,,,With Brainslug No Barriers With Money,0,images/assets/snowy_money.jpg,learning,10,images/assets/success_money.jpg,images/assets/gameover.jpg,,,,,,,,,,,,,0,8,8,4,1,,,,,,,,,,,,,,,,,,,,,,,,,,,,,,,,
,,,,,,,,,,,,5e668d33ffed4c410e662f8a,001,3,2024-10-09_13h00.46.109,avatar_quest_3AFC_legacy,2022.1.3,Win32,59.88023952,5e668d33ffed4c410e662f8a,62bca317d87d479cda00ba3d,6706b4576c2af222bbe68e09,,,,,,,,,,,,,,,,,,,,,,With Brainslug No Barriers No Money,0,images/assets/snowy_original.jpg,learning,10,images/assets/success.jpg,images/assets/gameover.jpg,,,,,,,,,,,,,0,9,9,5,1,,,,,,,,,,,,,,,,,,,,,,,,,,,,,,,,
,,,,,,,,,,,,5e668d33ffed4c410e662f8a,001,3,2024-10-09_13h00.46.109,avatar_quest_3AFC_legacy,2022.1.3,Win32,59.88023952,5e668d33ffed4c410e662f8a,62bca317d87d479cda00ba3d,6706b4576c2af222bbe68e09,,,,,,,,,,,,,,,,,,,,,,No Brainslug No Barriers No Money,0,images/assets/snowy_original.jpg,learning,10,images/assets/success.jpg,images/assets/gameover.jpg,,,,,,,,,,,,,0,10,10,10,1,,,,,,,,,,,,,,,,,,,,,,,,,,,,,,,,
,,,,,,,,,,,,5e668d33ffed4c410e662f8a,001,3,2024-10-09_13h00.46.109,avatar_quest_3AFC_legacy,2022.1.3,Win32,59.88023952,5e668d33ffed4c410e662f8a,62bca317d87d479cda00ba3d,6706b4576c2af222bbe68e09,,,,,,,,,,,,,,,,,,,,,,,,,,,,,,,,,,,,,,,,,,,,,,,,,,,,,,,5,0,5,0,1,,,,,,,,,,,,,,,,,,
,,,,,,,,,,,,5e668d33ffed4c410e662f8a,001,3,2024-10-09_13h00.46.109,avatar_quest_3AFC_legacy,2022.1.3,Win32,59.88023952,5e668d33ffed4c410e662f8a,62bca317d87d479cda00ba3d,6706b4576c2af222bbe68e09,,,,,,,,,,,,,,,,,,,,,,With Brainslug Difficult 1 No Money,6,images/assets/snowy_original.jpg,learning,20,images/assets/success.jpg,images/assets/gameover.jpg,,,,,,,,With Brainslug Difficult 2 With Money,With Brainslug Difficult 1 No Money,right,3.1044,"[""With Brainslug Difficult 1 No Money"",""With Brainslug Difficult 2 No Money""]",0,0,0,1,1,,,,,,,,,,,,,,,,,,,,,,,,,,,,,,,,
,,,,,,,,,,,,5e668d33ffed4c410e662f8a,001,3,2024-10-09_13h00.46.109,avatar_quest_3AFC_legacy,2022.1.3,Win32,59.88023952,5e668d33ffed4c410e662f8a,62bca317d87d479cda00ba3d,6706b4576c2af222bbe68e09,,,,,,,,,,,,,,,,,,,,,,With Brainslug Difficult 1 With Money,6,images/assets/snowy_money.jpg,learning,20,images/assets/success_money.jpg,images/assets/gameover.jpg,,,,,,,,,,,,,0,1,1,0,1,,,,,,,,,,,,,,,,,,,,,,,,,,,,,,,,
,,,,,,,,,,,,5e668d33ffed4c410e662f8a,001,3,2024-10-09_13h00.46.109,avatar_quest_3AFC_legacy,2022.1.3,Win32,59.88023952,5e668d33ffed4c410e662f8a,62bca317d87d479cda00ba3d,6706b4576c2af222bbe68e09,,,,,,,,,,,,,,,,,,,,,,No Brainslug No Barriers With Money,0,images/assets/snowy_money.jpg,learning,10,images/assets/success_money.jpg,images/assets/gameover.jpg,,,,,,,,,,,,,0,2,2,9,1,,,,,,,,,,,,,,,,,,,,,,,,,,,,,,,,
,,,,,,,,,,,,5e668d33ffed4c410e662f8a,001,3,2024-10-09_13h00.46.109,avatar_quest_3AFC_legacy,2022.1.3,Win32,59.88023952,5e668d33ffed4c410e662f8a,62bca317d87d479cda00ba3d,6706b4576c2af222bbe68e09,,,,,,,,,,,,,,,,,,,,,,No Brainslug Difficult 1 No Money,6,images/assets/snowy_original.jpg,learning,20,images/assets/success.jpg,images/assets/gameover.jpg,,,,,,,,,,,,,0,3,3,6,1,,,,,,,,,,,,,,,,,,,,,,,,,,,,,,,,
,,,,,,,,,,,,5e668d33ffed4c410e662f8a,001,3,2024-10-09_13h00.46.109,avatar_quest_3AFC_legacy,2022.1.3,Win32,59.88023952,5e668d33ffed4c410e662f8a,62bca317d87d479cda00ba3d,6706b4576c2af222bbe68e09,,,,,,,,,,,,,,,,,,,,,,With Brainslug No Barriers No Money,0,images/assets/snowy_original.jpg,learning,10,images/assets/success.jpg,images/assets/gameover.jpg,,,,,,,,,,,,,0,4,4,5,1,,,,,,,,,,,,,,,,,,,,,,,,,,,,,,,,
,,,,,,,,,,,,5e668d33ffed4c410e662f8a,001,3,2024-10-09_13h00.46.109,avatar_quest_3AFC_legacy,2022.1.3,Win32,59.88023952,5e668d33ffed4c410e662f8a,62bca317d87d479cda00ba3d,6706b4576c2af222bbe68e09,,,,,,,,,,,,,,,,,,,,,,No Brainslug No Barriers No Money,0,images/assets/snowy_original.jpg,learning,10,images/assets/success.jpg,images/assets/gameover.jpg,,,,,,,,,,,,,0,5,5,10,1,,,,,,,,,,,,,,,,,,,,,,,,,,,,,,,,
,,,,,,,,,,,,5e668d33ffed4c410e662f8a,001,3,2024-10-09_13h00.46.109,avatar_quest_3AFC_legacy,2022.1.3,Win32,59.88023952,5e668d33ffed4c410e662f8a,62bca317d87d479cda00ba3d,6706b4576c2af222bbe68e09,,,,,,,,,,,,,,,,,,,,,,With Brainslug Difficult 2 No Money,12,images/assets/snowy_original.jpg,learning,20,images/assets/success.jpg,images/assets/gameover.jpg,,,,,,,,,,,,,0,6,6,3,1,,,,,,,,,,,,,,,,,,,,,,,,,,,,,,,,
,,,,,,,,,,,,5e668d33ffed4c410e662f8a,001,3,2024-10-09_13h00.46.109,avatar_quest_3AFC_legacy,2022.1.3,Win32,59.88023952,5e668d33ffed4c410e662f8a,62bca317d87d479cda00ba3d,6706b4576c2af222bbe68e09,,,,,,,,,,,,,,,,,,,,,,No Brainslug Difficult 2 No Money,12,images/assets/snowy_original.jpg,learning,20,images/assets/success.jpg,images/assets/gameover.jpg,,,,,,,,,,,,,0,7,7,8,1,,,,,,,,,,,,,,,,,,,,,,,,,,,,,,,,
,,,,,,,,,,,,5e668d33ffed4c410e662f8a,001,3,2024-10-09_13h00.46.109,avatar_quest_3AFC_legacy,2022.1.3,Win32,59.88023952,5e668d33ffed4c410e662f8a,62bca317d87d479cda00ba3d,6706b4576c2af222bbe68e09,"[""left"",""left"",""left"",""left"",""right"",""right"",""left"",""left"",""left"",""left"",""right"",""right"",""right"",""left"",""left"",""right"",""right"",""left"",""left"",""right"",""right"",""right"",""left"",""left"",""left"",""left"",""down"",""down"",""left"",""left"",""right"",""right"",""right"",""left"",""right"",""right"",""right""]","[0.1867000000001724,0.34309999999962315,0.49370000000016034,0.6715999999996143,1.0220999999996252,1.1948999999994214,2.0609999999999786,2.263299999999788,2.4572999999998046,2.6240999999996006,3.0912999999997908,4.214700000000164,4.425999999999988,4.747599999999608,4.95939999999942,5.176499999999976,5.3808999999994285,5.7112000000001615,5.9187999999998056,6.093399999999434,6.284099999999626,6.461099999999618,6.5989999999999895,6.7970999999996025,6.960999999999984,7.5458999999994205,7.727099999999609,7.961099999999618,8.129599999999613,8.350299999999805,8.634499999999974,8.849799999999789,9.032700000000176,9.295299999999799,9.728999999999985,9.899299999999812,10.079499999999996]",,calibration,With Brainslug Difficult 2 With Money,10,10.61195,10.6251,20,7,0,FALSE,na,na,na,na,,,,,,,,,,,,,,,,,,,,,,,,,,,,,,,,,,0,0,0,0,1,,,,,,,,,,,,,,,,,,,,,,,
,,,,,,,,,,,,5e668d33ffed4c410e662f8a,001,3,2024-10-09_13h00.46.109,avatar_quest_3AFC_legacy,2022.1.3,Win32,59.88023952,5e668d33ffed4c410e662f8a,62bca317d87d479cda00ba3d,6706b4576c2af222bbe68e09,,,,,,,,,,,,,,,,,,,,,,With Brainslug Difficult 2 With Money,12,images/assets/snowy_money.jpg,learning,20,images/assets/success_money.jpg,images/assets/gameover.jpg,,,,,,,,,,,,,0,8,8,2,1,,,,,,,,,,,,,,,,,,,,,,,,,,,,,,,,
,,,,,,,,,,,,5e668d33ffed4c410e662f8a,001,3,2024-10-09_13h00.46.109,avatar_quest_3AFC_legacy,2022.1.3,Win32,59.88023952,5e668d33ffed4c410e662f8a,62bca317d87d479cda00ba3d,6706b4576c2af222bbe68e09,,,,,,,,,,,,,,,,,,,,,,No Brainslug Difficult 2 With Money,12,images/assets/snowy_money.jpg,learning,20,images/assets/success_money.jpg,images/assets/gameover.jpg,,,,,,,,,,,,,0,9,9,7,1,,,,,,,,,,,,,,,,,,,,,,,,,,,,,,,,
,,,,,,,,,,,,5e668d33ffed4c410e662f8a,001,3,2024-10-09_13h00.46.109,avatar_quest_3AFC_legacy,2022.1.3,Win32,59.88023952,5e668d33ffed4c410e662f8a,62bca317d87d479cda00ba3d,6706b4576c2af222bbe68e09,,,,,,,,,,,,,,,,,,,,,,With Brainslug No Barriers With Money,0,images/assets/snowy_money.jpg,learning,10,images/assets/success_money.jpg,images/assets/gameover.jpg,,,,,,,,,,,,,0,10,10,4,1,,,,,,,,,,,,,,,,,,,,,,,,,,,,,,,,
,,,,,,,,,,,,5e668d33ffed4c410e662f8a,001,3,2024-10-09_13h00.46.109,avatar_quest_3AFC_legacy,2022.1.3,Win32,59.88023952,5e668d33ffed4c410e662f8a,62bca317d87d479cda00ba3d,6706b4576c2af222bbe68e09,,,,,,,,,,,,,,,,,,,,,,,,,,,,,,,,,,,,,,,,,,,,,,,,,,,,,,,6,0,6,0,1,,,,,,,,,,,,,,,,,,
,,,,,,,,,,,,5e668d33ffed4c410e662f8a,001,3,2024-10-09_13h00.46.109,avatar_quest_3AFC_legacy,2022.1.3,Win32,59.88023952,5e668d33ffed4c410e662f8a,62bca317d87d479cda00ba3d,6706b4576c2af222bbe68e09,,,,,,,,,,,,,,,,,,,,,,No Brainslug Difficult 2 No Money,12,images/assets/snowy_original.jpg,learning,20,images/assets/success.jpg,images/assets/gameover.jpg,,,,,,,,With Brainslug Difficult 2 With Money,With Brainslug Difficult 1 No Money,right,0.468,"[""With Brainslug Difficult 1 No Money"",""With Brainslug Difficult 2 No Money""]",0,0,0,8,1,,,,,,,,,,,,,,,,,,,,,,,,,,,,,,,,
,,,,,,,,,,,,5e668d33ffed4c410e662f8a,001,3,2024-10-09_13h00.46.109,avatar_quest_3AFC_legacy,2022.1.3,Win32,59.88023952,5e668d33ffed4c410e662f8a,62bca317d87d479cda00ba3d,6706b4576c2af222bbe68e09,,,,,,,,,,,,,,,,,,,,,,No Brainslug No Barriers No Money,0,images/assets/snowy_original.jpg,learning,10,images/assets/success.jpg,images/assets/gameover.jpg,,,,,,,,,,,,,0,1,1,10,1,,,,,,,,,,,,,,,,,,,,,,,,,,,,,,,,
,,,,,,,,,,,,5e668d33ffed4c410e662f8a,001,3,2024-10-09_13h00.46.109,avatar_quest_3AFC_legacy,2022.1.3,Win32,59.88023952,5e668d33ffed4c410e662f8a,62bca317d87d479cda00ba3d,6706b4576c2af222bbe68e09,,,,,,,,,,,,,,,,,,,,,,With Brainslug No Barriers With Money,0,images/assets/snowy_money.jpg,learning,10,images/assets/success_money.jpg,images/assets/gameover.jpg,,,,,,,,,,,,,0,2,2,4,1,,,,,,,,,,,,,,,,,,,,,,,,,,,,,,,,
,,,,,,,,,,,,5e668d33ffed4c410e662f8a,001,3,2024-10-09_13h00.46.109,avatar_quest_3AFC_legacy,2022.1.3,Win32,59.88023952,5e668d33ffed4c410e662f8a,62bca317d87d479cda00ba3d,6706b4576c2af222bbe68e09,,,,,,,,,,,,,,,,,,,,,,With Brainslug No Barriers No Money,0,images/assets/snowy_original.jpg,learning,10,images/assets/success.jpg,images/assets/gameover.jpg,,,,,,,,,,,,,0,3,3,5,1,,,,,,,,,,,,,,,,,,,,,,,,,,,,,,,,
,,,,,,,,,,,,5e668d33ffed4c410e662f8a,001,3,2024-10-09_13h00.46.109,avatar_quest_3AFC_legacy,2022.1.3,Win32,59.88023952,5e668d33ffed4c410e662f8a,62bca317d87d479cda00ba3d,6706b4576c2af222bbe68e09,,,,,,,,,,,,,,,,,,,,,,No Brainslug No Barriers With Money,0,images/assets/snowy_money.jpg,learning,10,images/assets/success_money.jpg,images/assets/gameover.jpg,,,,,,,,,,,,,0,4,4,9,1,,,,,,,,,,,,,,,,,,,,,,,,,,,,,,,,
,,,,,,,,,,,,5e668d33ffed4c410e662f8a,001,3,2024-10-09_13h00.46.109,avatar_quest_3AFC_legacy,2022.1.3,Win32,59.88023952,5e668d33ffed4c410e662f8a,62bca317d87d479cda00ba3d,6706b4576c2af222bbe68e09,,,,,,,,,,,,,,,,,,,,,,With Brainslug Difficult 1 No Money,6,images/assets/snowy_original.jpg,learning,20,images/assets/success.jpg,images/assets/gameover.jpg,,,,,,,,,,,,,0,5,5,1,1,,,,,,,,,,,,,,,,,,,,,,,,,,,,,,,,
,,,,,,,,,,,,5e668d33ffed4c410e662f8a,001,3,2024-10-09_13h00.46.109,avatar_quest_3AFC_legacy,2022.1.3,Win32,59.88023952,5e668d33ffed4c410e662f8a,62bca317d87d479cda00ba3d,6706b4576c2af222bbe68e09,"[""left"",""right"",""right"",""right"",""left"",""left"",""left"",""right"",""right""]","[0.25090000000039936,1.51829999999984,4.593900000000389,5.904100000000625,6.330700000000235,8.64700000000002,9.327400000000438,9.847500000000053,10.092200000000247]",,calibration,With Brainslug Difficult 2 With Money,11,10.61195,10.6252,5,3,0,FALSE,na,na,na,na,,,,,,,,,,,,,,,,,,,,,,,,,,,,,,,,,,0,0,0,0,1,,,,,,,,,,,,,,,,,,,,,,,
,,,,,,,,,,,,5e668d33ffed4c410e662f8a,001,3,2024-10-09_13h00.46.109,avatar_quest_3AFC_legacy,2022.1.3,Win32,59.88023952,5e668d33ffed4c410e662f8a,62bca317d87d479cda00ba3d,6706b4576c2af222bbe68e09,,,,,,,,,,,,,,,,,,,,,,With Brainslug Difficult 2 With Money,12,images/assets/snowy_money.jpg,learning,20,images/assets/success_money.jpg,images/assets/gameover.jpg,,,,,,,,,,,,,0,6,6,2,1,,,,,,,,,,,,,,,,,,,,,,,,,,,,,,,,
,,,,,,,,,,,,5e668d33ffed4c410e662f8a,001,3,2024-10-09_13h00.46.109,avatar_quest_3AFC_legacy,2022.1.3,Win32,59.88023952,5e668d33ffed4c410e662f8a,62bca317d87d479cda00ba3d,6706b4576c2af222bbe68e09,,,,,,,,,,,,,,,,,,,,,,With Brainslug Difficult 2 No Money,12,images/assets/snowy_original.jpg,learning,20,images/assets/success.jpg,images/assets/gameover.jpg,,,,,,,,,,,,,0,7,7,3,1,,,,,,,,,,,,,,,,,,,,,,,,,,,,,,,,
,,,,,,,,,,,,5e668d33ffed4c410e662f8a,001,3,2024-10-09_13h00.46.109,avatar_quest_3AFC_legacy,2022.1.3,Win32,59.88023952,5e668d33ffed4c410e662f8a,62bca317d87d479cda00ba3d,6706b4576c2af222bbe68e09,,,,,,,,,,,,,,,,,,,,,,No Brainslug Difficult 1 No Money,6,images/assets/snowy_original.jpg,learning,20,images/assets/success.jpg,images/assets/gameover.jpg,,,,,,,,,,,,,0,8,8,6,1,,,,,,,,,,,,,,,,,,,,,,,,,,,,,,,,
,,,,,,,,,,,,5e668d33ffed4c410e662f8a,001,3,2024-10-09_13h00.46.109,avatar_quest_3AFC_legacy,2022.1.3,Win32,59.88023952,5e668d33ffed4c410e662f8a,62bca317d87d479cda00ba3d,6706b4576c2af222bbe68e09,,,,,,,,,,,,,,,,,,,,,,With Brainslug Difficult 1 With Money,6,images/assets/snowy_money.jpg,learning,20,images/assets/success_money.jpg,images/assets/gameover.jpg,,,,,,,,,,,,,0,9,9,0,1,,,,,,,,,,,,,,,,,,,,,,,,,,,,,,,,
,,,,,,,,,,,,5e668d33ffed4c410e662f8a,001,3,2024-10-09_13h00.46.109,avatar_quest_3AFC_legacy,2022.1.3,Win32,59.88023952,5e668d33ffed4c410e662f8a,62bca317d87d479cda00ba3d,6706b4576c2af222bbe68e09,,,,,,,,,,,,,,,,,,,,,,No Brainslug Difficult 2 With Money,12,images/assets/snowy_money.jpg,learning,20,images/assets/success_money.jpg,images/assets/gameover.jpg,,,,,,,,,,,,,0,10,10,7,1,,,,,,,,,,,,,,,,,,,,,,,,,,,,,,,,
,,,,,,,,,,,,5e668d33ffed4c410e662f8a,001,3,2024-10-09_13h00.46.109,avatar_quest_3AFC_legacy,2022.1.3,Win32,59.88023952,5e668d33ffed4c410e662f8a,62bca317d87d479cda00ba3d,6706b4576c2af222bbe68e09,,,,,,,,,,,,,,,,,,,,,,,,,,,,,,,,,,,,,,,,,,,,,,,,,,,,,,,7,0,7,0,1,,,,,,,,,,,,,,,,,,
,,,,,,,,,,,,5e668d33ffed4c410e662f8a,001,3,2024-10-09_13h00.46.109,avatar_quest_3AFC_legacy,2022.1.3,Win32,59.88023952,5e668d33ffed4c410e662f8a,62bca317d87d479cda00ba3d,6706b4576c2af222bbe68e09,,,,,,,,,,,,,,,,,,,,,,With Brainslug No Barriers With Money,0,images/assets/snowy_money.jpg,learning,10,images/assets/success_money.jpg,images/assets/gameover.jpg,,,,,,,,With Brainslug Difficult 2 With Money,With Brainslug Difficult 1 No Money,right,0.4149,"[""With Brainslug Difficult 1 No Money"",""With Brainslug Difficult 2 No Money""]",0,0,0,4,1,,,,,,,,,,,,,,,,,,,,,,,,,,,,,,,,
,,,,,,,,,,,,5e668d33ffed4c410e662f8a,001,3,2024-10-09_13h00.46.109,avatar_quest_3AFC_legacy,2022.1.3,Win32,59.88023952,5e668d33ffed4c410e662f8a,62bca317d87d479cda00ba3d,6706b4576c2af222bbe68e09,,,,,,,,,,,,,,,,,,,,,,No Brainslug No Barriers No Money,0,images/assets/snowy_original.jpg,learning,10,images/assets/success.jpg,images/assets/gameover.jpg,,,,,,,,,,,,,0,1,1,10,1,,,,,,,,,,,,,,,,,,,,,,,,,,,,,,,,
,,,,,,,,,,,,5e668d33ffed4c410e662f8a,001,3,2024-10-09_13h00.46.109,avatar_quest_3AFC_legacy,2022.1.3,Win32,59.88023952,5e668d33ffed4c410e662f8a,62bca317d87d479cda00ba3d,6706b4576c2af222bbe68e09,,,,,,,,,,,,,,,,,,,,,,With Brainslug No Barriers No Money,0,images/assets/snowy_original.jpg,learning,10,images/assets/success.jpg,images/assets/gameover.jpg,,,,,,,,,,,,,0,2,2,5,1,,,,,,,,,,,,,,,,,,,,,,,,,,,,,,,,
,,,,,,,,,,,,5e668d33ffed4c410e662f8a,001,3,2024-10-09_13h00.46.109,avatar_quest_3AFC_legacy,2022.1.3,Win32,59.88023952,5e668d33ffed4c410e662f8a,62bca317d87d479cda00ba3d,6706b4576c2af222bbe68e09,,,,,,,,,,,,,,,,,,,,,,No Brainslug Difficult 2 No Money,12,images/assets/snowy_original.jpg,learning,20,images/assets/success.jpg,images/assets/gameover.jpg,,,,,,,,,,,,,0,3,3,8,1,,,,,,,,,,,,,,,,,,,,,,,,,,,,,,,,
,,,,,,,,,,,,5e668d33ffed4c410e662f8a,001,3,2024-10-09_13h00.46.109,avatar_quest_3AFC_legacy,2022.1.3,Win32,59.88023952,5e668d33ffed4c410e662f8a,62bca317d87d479cda00ba3d,6706b4576c2af222bbe68e09,,,,,,,,,,,,,,,,,,,,,,With Brainslug Difficult 1 With Money,6,images/assets/snowy_money.jpg,learning,20,images/assets/success_money.jpg,images/assets/gameover.jpg,,,,,,,,,,,,,0,4,4,0,1,,,,,,,,,,,,,,,,,,,,,,,,,,,,,,,,
,,,,,,,,,,,,5e668d33ffed4c410e662f8a,001,3,2024-10-09_13h00.46.109,avatar_quest_3AFC_legacy,2022.1.3,Win32,59.88023952,5e668d33ffed4c410e662f8a,62bca317d87d479cda00ba3d,6706b4576c2af222bbe68e09,,,,,,,,,,,,,,,,,,,,,,With Brainslug Difficult 2 No Money,12,images/assets/snowy_original.jpg,learning,20,images/assets/success.jpg,images/assets/gameover.jpg,,,,,,,,,,,,,0,5,5,3,1,,,,,,,,,,,,,,,,,,,,,,,,,,,,,,,,
,,,,,,,,,,,,5e668d33ffed4c410e662f8a,001,3,2024-10-09_13h00.46.109,avatar_quest_3AFC_legacy,2022.1.3,Win32,59.88023952,5e668d33ffed4c410e662f8a,62bca317d87d479cda00ba3d,6706b4576c2af222bbe68e09,,,,,,,,,,,,,,,,,,,,,,No Brainslug No Barriers With Money,0,images/assets/snowy_money.jpg,learning,10,images/assets/success_money.jpg,images/assets/gameover.jpg,,,,,,,,,,,,,0,6,6,9,1,,,,,,,,,,,,,,,,,,,,,,,,,,,,,,,,
,,,,,,,,,,,,5e668d33ffed4c410e662f8a,001,3,2024-10-09_13h00.46.109,avatar_quest_3AFC_legacy,2022.1.3,Win32,59.88023952,5e668d33ffed4c410e662f8a,62bca317d87d479cda00ba3d,6706b4576c2af222bbe68e09,,,,,,,,,,,,,,,,,,,,,,No Brainslug Difficult 1 No Money,6,images/assets/snowy_original.jpg,learning,20,images/assets/success.jpg,images/assets/gameover.jpg,,,,,,,,,,,,,0,7,7,6,1,,,,,,,,,,,,,,,,,,,,,,,,,,,,,,,,
,,,,,,,,,,,,5e668d33ffed4c410e662f8a,001,3,2024-10-09_13h00.46.109,avatar_quest_3AFC_legacy,2022.1.3,Win32,59.88023952,5e668d33ffed4c410e662f8a,62bca317d87d479cda00ba3d,6706b4576c2af222bbe68e09,,,,,,,,,,,,,,,,,,,,,,With Brainslug Difficult 1 No Money,6,images/assets/snowy_original.jpg,learning,20,images/assets/success.jpg,images/assets/gameover.jpg,,,,,,,,,,,,,0,8,8,1,1,,,,,,,,,,,,,,,,,,,,,,,,,,,,,,,,
,,,,,,,,,,,,5e668d33ffed4c410e662f8a,001,3,2024-10-09_13h00.46.109,avatar_quest_3AFC_legacy,2022.1.3,Win32,59.88023952,5e668d33ffed4c410e662f8a,62bca317d87d479cda00ba3d,6706b4576c2af222bbe68e09,"[""right"",""left"",""right"",""right"",""right"",""right"",""right"",""right"",""right"",""left"",""left"",""left"",""right"",""right"",""left"",""left"",""right"",""right"",""right"",""right"",""left"",""left"",""left"",""left"",""left"",""right"",""right"",""right"",""right"",""right"",""right""]","[1.8260999999995988,2.295099999999593,2.684599999999591,3.3605999999996357,3.8629999999999995,4.115499999999997,4.313299999999799,4.5782999999997855,4.801299999999799,5.082499999999982,5.3455999999995925,5.521299999999826,5.687899999999445,5.9635999999995875,6.41489999999942,6.60439999999943,6.826899999999455,7.059899999999402,7.226799999999798,7.427099999999598,7.743799999999794,7.927399999999409,8.127499999999998,8.46109999999959,8.611399999999435,8.828099999999608,9.045099999999593,9.211899999999446,9.445299999999804,9.612599999999588,9.778999999999996]",,calibration,With Brainslug Difficult 2 With Money,12,10.61195,10.0954,15,9,0,TRUE,na,na,na,na,,,,,,,,,,,,,,,,,,,,,,,,,,,,,,,,,,0,0,0,0,1,,,,,,,,,,,,,,,,,,,,,,,
,,,,,,,,,,,,5e668d33ffed4c410e662f8a,001,3,2024-10-09_13h00.46.109,avatar_quest_3AFC_legacy,2022.1.3,Win32,59.88023952,5e668d33ffed4c410e662f8a,62bca317d87d479cda00ba3d,6706b4576c2af222bbe68e09,,,,,,,,,,,,,,,,,,,,,,With Brainslug Difficult 2 With Money,12,images/assets/snowy_money.jpg,learning,20,images/assets/success_money.jpg,images/assets/gameover.jpg,,,,,,,,,,,,,0,9,9,2,1,,,,,,,,,,,,,,,,,,,,,,,,,,,,,,,,
,,,,,,,,,,,,5e668d33ffed4c410e662f8a,001,3,2024-10-09_13h00.46.109,avatar_quest_3AFC_legacy,2022.1.3,Win32,59.88023952,5e668d33ffed4c410e662f8a,62bca317d87d479cda00ba3d,6706b4576c2af222bbe68e09,,,,,,,,,,,,,,,,,,,,,,No Brainslug Difficult 2 With Money,12,images/assets/snowy_money.jpg,learning,20,images/assets/success_money.jpg,images/assets/gameover.jpg,,,,,,,,,,,,,0,10,10,7,1,,,,,,,,,,,,,,,,,,,,,,,,,,,,,,,,
,,,,,,,,,,,,5e668d33ffed4c410e662f8a,001,3,2024-10-09_13h00.46.109,avatar_quest_3AFC_legacy,2022.1.3,Win32,59.88023952,5e668d33ffed4c410e662f8a,62bca317d87d479cda00ba3d,6706b4576c2af222bbe68e09,,,,,,,,,,,,,,,,,,,,,,,,,,,,,,,,,,,,,,,,,,,,,,,,,,,,,,,8,0,8,0,1,,,,,,,,,,,,,,,,,,
,,,,,,,,,,,,5e668d33ffed4c410e662f8a,001,3,2024-10-09_13h00.46.109,avatar_quest_3AFC_legacy,2022.1.3,Win32,59.88023952,5e668d33ffed4c410e662f8a,62bca317d87d479cda00ba3d,6706b4576c2af222bbe68e09,,,,,,,,,,,,,,,,,,,,,,No Brainslug No Barriers With Money,0,images/assets/snowy_money.jpg,learning,10,images/assets/success_money.jpg,images/assets/gameover.jpg,,,,,,,,With Brainslug Difficult 2 With Money,With Brainslug Difficult 1 No Money,right,2.6346,"[""With Brainslug Difficult 1 No Money"",""With Brainslug Difficult 2 No Money""]",0,0,0,9,1,,,,,,,,,,,,,,,,,,,,,,,,,,,,,,,,
,,,,,,,,,,,,5e668d33ffed4c410e662f8a,001,3,2024-10-09_13h00.46.109,avatar_quest_3AFC_legacy,2022.1.3,Win32,59.88023952,5e668d33ffed4c410e662f8a,62bca317d87d479cda00ba3d,6706b4576c2af222bbe68e09,,,,,,,,,,,,,,,,,,,,,,No Brainslug Difficult 1 No Money,6,images/assets/snowy_original.jpg,learning,20,images/assets/success.jpg,images/assets/gameover.jpg,,,,,,,,,,,,,0,1,1,6,1,,,,,,,,,,,,,,,,,,,,,,,,,,,,,,,,
,,,,,,,,,,,,5e668d33ffed4c410e662f8a,001,3,2024-10-09_13h00.46.109,avatar_quest_3AFC_legacy,2022.1.3,Win32,59.88023952,5e668d33ffed4c410e662f8a,62bca317d87d479cda00ba3d,6706b4576c2af222bbe68e09,,,,,,,,,,,,,,,,,,,,,,With Brainslug Difficult 1 With Money,6,images/assets/snowy_money.jpg,learning,20,images/assets/success_money.jpg,images/assets/gameover.jpg,,,,,,,,,,,,,0,2,2,0,1,,,,,,,,,,,,,,,,,,,,,,,,,,,,,,,,
,,,,,,,,,,,,5e668d33ffed4c410e662f8a,001,3,2024-10-09_13h00.46.109,avatar_quest_3AFC_legacy,2022.1.3,Win32,59.88023952,5e668d33ffed4c410e662f8a,62bca317d87d479cda00ba3d,6706b4576c2af222bbe68e09,,,,,,,,,,,,,,,,,,,,,,With Brainslug No Barriers With Money,0,images/assets/snowy_money.jpg,learning,10,images/assets/success_money.jpg,images/assets/gameover.jpg,,,,,,,,,,,,,0,3,3,4,1,,,,,,,,,,,,,,,,,,,,,,,,,,,,,,,,
,,,,,,,,,,,,5e668d33ffed4c410e662f8a,001,3,2024-10-09_13h00.46.109,avatar_quest_3AFC_legacy,2022.1.3,Win32,59.88023952,5e668d33ffed4c410e662f8a,62bca317d87d479cda00ba3d,6706b4576c2af222bbe68e09,,,,,,,,,,,,,,,,,,,,,,With Brainslug Difficult 2 No Money,12,images/assets/snowy_original.jpg,learning,20,images/assets/success.jpg,images/assets/gameover.jpg,,,,,,,,,,,,,0,4,4,3,1,,,,,,,,,,,,,,,,,,,,,,,,,,,,,,,,
,,,,,,,,,,,,5e668d33ffed4c410e662f8a,001,3,2024-10-09_13h00.46.109,avatar_quest_3AFC_legacy,2022.1.3,Win32,59.88023952,5e668d33ffed4c410e662f8a,62bca317d87d479cda00ba3d,6706b4576c2af222bbe68e09,,,,,,,,,,,,,,,,,,,,,,With Brainslug No Barriers No Money,0,images/assets/snowy_original.jpg,learning,10,images/assets/success.jpg,images/assets/gameover.jpg,,,,,,,,,,,,,0,5,5,5,1,,,,,,,,,,,,,,,,,,,,,,,,,,,,,,,,
,,,,,,,,,,,,5e668d33ffed4c410e662f8a,001,3,2024-10-09_13h00.46.109,avatar_quest_3AFC_legacy,2022.1.3,Win32,59.88023952,5e668d33ffed4c410e662f8a,62bca317d87d479cda00ba3d,6706b4576c2af222bbe68e09,,,,,,,,,,,,,,,,,,,,,,No Brainslug Difficult 2 No Money,12,images/assets/snowy_original.jpg,learning,20,images/assets/success.jpg,images/assets/gameover.jpg,,,,,,,,,,,,,0,6,6,8,1,,,,,,,,,,,,,,,,,,,,,,,,,,,,,,,,
,,,,,,,,,,,,5e668d33ffed4c410e662f8a,001,3,2024-10-09_13h00.46.109,avatar_quest_3AFC_legacy,2022.1.3,Win32,59.88023952,5e668d33ffed4c410e662f8a,62bca317d87d479cda00ba3d,6706b4576c2af222bbe68e09,"[""left"",""left"",""left"",""right"",""right"",""right"",""right"",""left"",""left"",""left"",""left"",""right"",""right"",""right"",""left"",""left""]","[0.3229000000004021,0.49020000000018626,0.6405000000000314,0.9739000000004125,1.1239000000003898,1.4742000000002236,1.6575999999996611,1.9914000000003966,2.1747000000002004,2.3252999999998565,3.826000000000022,4.393400000000383,5.227400000000387,7.028900000000419,7.683900000000392,10.09790000000038]",,calibration,With Brainslug Difficult 2 With Money,13,10.61195,10.6127,7,5,0,FALSE,na,na,na,na,,,,,,,,,,,,,,,,,,,,,,,,,,,,,,,,,,0,0,0,0,1,,,,,,,,,,,,,,,,,,,,,,,
,,,,,,,,,,,,5e668d33ffed4c410e662f8a,001,3,2024-10-09_13h00.46.109,avatar_quest_3AFC_legacy,2022.1.3,Win32,59.88023952,5e668d33ffed4c410e662f8a,62bca317d87d479cda00ba3d,6706b4576c2af222bbe68e09,,,,,,,,,,,,,,,,,,,,,,With Brainslug Difficult 2 With Money,12,images/assets/snowy_money.jpg,learning,20,images/assets/success_money.jpg,images/assets/gameover.jpg,,,,,,,,,,,,,0,7,7,2,1,,,,,,,,,,,,,,,,,,,,,,,,,,,,,,,,
,,,,,,,,,,,,5e668d33ffed4c410e662f8a,001,3,2024-10-09_13h00.46.109,avatar_quest_3AFC_legacy,2022.1.3,Win32,59.88023952,5e668d33ffed4c410e662f8a,62bca317d87d479cda00ba3d,6706b4576c2af222bbe68e09,,,,,,,,,,,,,,,,,,,,,,No Brainslug Difficult 2 With Money,12,images/assets/snowy_money.jpg,learning,20,images/assets/success_money.jpg,images/assets/gameover.jpg,,,,,,,,,,,,,0,8,8,7,1,,,,,,,,,,,,,,,,,,,,,,,,,,,,,,,,
,,,,,,,,,,,,5e668d33ffed4c410e662f8a,001,3,2024-10-09_13h00.46.109,avatar_quest_3AFC_legacy,2022.1.3,Win32,59.88023952,5e668d33ffed4c410e662f8a,62bca317d87d479cda00ba3d,6706b4576c2af222bbe68e09,,,,,,,,,,,,,,,,,,,,,,With Brainslug Difficult 1 No Money,6,images/assets/snowy_original.jpg,learning,20,images/assets/success.jpg,images/assets/gameover.jpg,,,,,,,,,,,,,0,9,9,1,1,,,,,,,,,,,,,,,,,,,,,,,,,,,,,,,,
,,,,,,,,,,,,5e668d33ffed4c410e662f8a,001,3,2024-10-09_13h00.46.109,avatar_quest_3AFC_legacy,2022.1.3,Win32,59.88023952,5e668d33ffed4c410e662f8a,62bca317d87d479cda00ba3d,6706b4576c2af222bbe68e09,,,,,,,,,,,,,,,,,,,,,,No Brainslug No Barriers No Money,0,images/assets/snowy_original.jpg,learning,10,images/assets/success.jpg,images/assets/gameover.jpg,,,,,,,,,,,,,0,10,10,10,1,,,,,,,,,,,,,,,,,,,,,,,,,,,,,,,,
,,,,,,,,,,,,5e668d33ffed4c410e662f8a,001,3,2024-10-09_13h00.46.109,avatar_quest_3AFC_legacy,2022.1.3,Win32,59.88023952,5e668d33ffed4c410e662f8a,62bca317d87d479cda00ba3d,6706b4576c2af222bbe68e09,,,,,,,,,,,,,,,,,,,,,,,,,,,,,,,,,,,,,,,,,,,,,,,,,,,,,,,9,0,9,0,1,,,,,,,,,,,,,,,,,,
,,,,,,,,,,,,5e668d33ffed4c410e662f8a,001,3,2024-10-09_13h00.46.109,avatar_quest_3AFC_legacy,2022.1.3,Win32,59.88023952,5e668d33ffed4c410e662f8a,62bca317d87d479cda00ba3d,6706b4576c2af222bbe68e09,,,,,,,,,,,,,,,,,,,,,,No Brainslug No Barriers No Money,0,images/assets/snowy_original.jpg,learning,10,images/assets/success.jpg,images/assets/gameover.jpg,,,,,,,,With Brainslug Difficult 2 With Money,With Brainslug Difficult 1 No Money,right,0.6993,"[""With Brainslug Difficult 1 No Money"",""With Brainslug Difficult 2 No Money""]",0,0,0,10,1,,,,,,,,,,,,,,,,,,,,,,,,,,,,,,,,
,,,,,,,,,,,,5e668d33ffed4c410e662f8a,001,3,2024-10-09_13h00.46.109,avatar_quest_3AFC_legacy,2022.1.3,Win32,59.88023952,5e668d33ffed4c410e662f8a,62bca317d87d479cda00ba3d,6706b4576c2af222bbe68e09,,,,,,,,,,,,,,,,,,,,,,No Brainslug Difficult 2 No Money,12,images/assets/snowy_original.jpg,learning,20,images/assets/success.jpg,images/assets/gameover.jpg,,,,,,,,,,,,,0,1,1,8,1,,,,,,,,,,,,,,,,,,,,,,,,,,,,,,,,
,,,,,,,,,,,,5e668d33ffed4c410e662f8a,001,3,2024-10-09_13h00.46.109,avatar_quest_3AFC_legacy,2022.1.3,Win32,59.88023952,5e668d33ffed4c410e662f8a,62bca317d87d479cda00ba3d,6706b4576c2af222bbe68e09,,,,,,,,,,,,,,,,,,,,,,No Brainslug Difficult 2 With Money,12,images/assets/snowy_money.jpg,learning,20,images/assets/success_money.jpg,images/assets/gameover.jpg,,,,,,,,,,,,,0,2,2,7,1,,,,,,,,,,,,,,,,,,,,,,,,,,,,,,,,
,,,,,,,,,,,,5e668d33ffed4c410e662f8a,001,3,2024-10-09_13h00.46.109,avatar_quest_3AFC_legacy,2022.1.3,Win32,59.88023952,5e668d33ffed4c410e662f8a,62bca317d87d479cda00ba3d,6706b4576c2af222bbe68e09,,,,,,,,,,,,,,,,,,,,,,With Brainslug No Barriers No Money,0,images/assets/snowy_original.jpg,learning,10,images/assets/success.jpg,images/assets/gameover.jpg,,,,,,,,,,,,,0,3,3,5,1,,,,,,,,,,,,,,,,,,,,,,,,,,,,,,,,
,,,,,,,,,,,,5e668d33ffed4c410e662f8a,001,3,2024-10-09_13h00.46.109,avatar_quest_3AFC_legacy,2022.1.3,Win32,59.88023952,5e668d33ffed4c410e662f8a,62bca317d87d479cda00ba3d,6706b4576c2af222bbe68e09,,,,,,,,,,,,,,,,,,,,,,With Brainslug Difficult 2 No Money,12,images/assets/snowy_original.jpg,learning,20,images/assets/success.jpg,images/assets/gameover.jpg,,,,,,,,,,,,,0,4,4,3,1,,,,,,,,,,,,,,,,,,,,,,,,,,,,,,,,
,,,,,,,,,,,,5e668d33ffed4c410e662f8a,001,3,2024-10-09_13h00.46.109,avatar_quest_3AFC_legacy,2022.1.3,Win32,59.88023952,5e668d33ffed4c410e662f8a,62bca317d87d479cda00ba3d,6706b4576c2af222bbe68e09,,,,,,,,,,,,,,,,,,,,,,With Brainslug Difficult 1 No Money,6,images/assets/snowy_original.jpg,learning,20,images/assets/success.jpg,images/assets/gameover.jpg,,,,,,,,,,,,,0,5,5,1,1,,,,,,,,,,,,,,,,,,,,,,,,,,,,,,,,
,,,,,,,,,,,,5e668d33ffed4c410e662f8a,001,3,2024-10-09_13h00.46.109,avatar_quest_3AFC_legacy,2022.1.3,Win32,59.88023952,5e668d33ffed4c410e662f8a,62bca317d87d479cda00ba3d,6706b4576c2af222bbe68e09,,,,,,,,,,,,,,,,,,,,,,No Brainslug Difficult 1 No Money,6,images/assets/snowy_original.jpg,learning,20,images/assets/success.jpg,images/assets/gameover.jpg,,,,,,,,,,,,,0,6,6,6,1,,,,,,,,,,,,,,,,,,,,,,,,,,,,,,,,
,,,,,,,,,,,,5e668d33ffed4c410e662f8a,001,3,2024-10-09_13h00.46.109,avatar_quest_3AFC_legacy,2022.1.3,Win32,59.88023952,5e668d33ffed4c410e662f8a,62bca317d87d479cda00ba3d,6706b4576c2af222bbe68e09,,,,,,,,,,,,,,,,,,,,,,With Brainslug Difficult 1 With Money,6,images/assets/snowy_money.jpg,learning,20,images/assets/success_money.jpg,images/assets/gameover.jpg,,,,,,,,,,,,,0,7,7,0,1,,,,,,,,,,,,,,,,,,,,,,,,,,,,,,,,
,,,,,,,,,,,,5e668d33ffed4c410e662f8a,001,3,2024-10-09_13h00.46.109,avatar_quest_3AFC_legacy,2022.1.3,Win32,59.88023952,5e668d33ffed4c410e662f8a,62bca317d87d479cda00ba3d,6706b4576c2af222bbe68e09,,,,,,,,,,,,,,,,,,,,,,With Brainslug No Barriers With Money,0,images/assets/snowy_money.jpg,learning,10,images/assets/success_money.jpg,images/assets/gameover.jpg,,,,,,,,,,,,,0,8,8,4,1,,,,,,,,,,,,,,,,,,,,,,,,,,,,,,,,
,,,,,,,,,,,,5e668d33ffed4c410e662f8a,001,3,2024-10-09_13h00.46.109,avatar_quest_3AFC_legacy,2022.1.3,Win32,59.88023952,5e668d33ffed4c410e662f8a,62bca317d87d479cda00ba3d,6706b4576c2af222bbe68e09,"[""left"",""right"",""right"",""right"",""right"",""left"",""right"",""left"",""left"",""right"",""right"",""right"",""left"",""right"",""left"",""left"",""left"",""left"",""right"",""right"",""right"",""left""]","[0.3982999999997787,1.3657000000001744,3.100100000000566,4.134500000000003,5.1186000000005265,6.603100000000552,6.970100000000571,7.288700000000176,7.470499999999959,7.737299999999777,7.9707999999998265,8.521299999999826,8.721499999999992,8.838400000000377,8.921700000000158,9.12190000000038,9.288600000000542,9.53879999999981,9.655700000000195,9.872500000000002,10.039299999999798,10.406499999999994]",,calibration,With Brainslug Difficult 2 With Money,14,10.61195,10.6126,14,7,0,FALSE,na,na,na,na,,,,,,,,,,,,,,,,,,,,,,,,,,,,,,,,,,0,0,0,0,1,,,,,,,,,,,,,,,,,,,,,,,
,,,,,,,,,,,,5e668d33ffed4c410e662f8a,001,3,2024-10-09_13h00.46.109,avatar_quest_3AFC_legacy,2022.1.3,Win32,59.88023952,5e668d33ffed4c410e662f8a,62bca317d87d479cda00ba3d,6706b4576c2af222bbe68e09,,,,,,,,,,,,,,,,,,,,,,With Brainslug Difficult 2 With Money,12,images/assets/snowy_money.jpg,learning,20,images/assets/success_money.jpg,images/assets/gameover.jpg,,,,,,,,,,,,,0,9,9,2,1,,,,,,,,,,,,,,,,,,,,,,,,,,,,,,,,
,,,,,,,,,,,,5e668d33ffed4c410e662f8a,001,3,2024-10-09_13h00.46.109,avatar_quest_3AFC_legacy,2022.1.3,Win32,59.88023952,5e668d33ffed4c410e662f8a,62bca317d87d479cda00ba3d,6706b4576c2af222bbe68e09,,,,,,,,,,,,,,,,,,,,,,No Brainslug No Barriers With Money,0,images/assets/snowy_money.jpg,learning,10,images/assets/success_money.jpg,images/assets/gameover.jpg,,,,,,,,,,,,,0,10,10,9,1,,,,,,,,,,,,,,,,,,,,,,,,,,,,,,,,
,,,,,,,,,,,,5e668d33ffed4c410e662f8a,001,3,2024-10-09_13h00.46.109,avatar_quest_3AFC_legacy,2022.1.3,Win32,59.88023952,5e668d33ffed4c410e662f8a,62bca317d87d479cda00ba3d,6706b4576c2af222bbe68e09,,,,,,,,,,,,,,,,,,,,,,,,,,,,,,,,,,,,,,,,,,,,,,,,,,,,,,,10,0,10,0,1,,,,,,,,,,,,,,,,,,
,,,,,,,,,,,,5e668d33ffed4c410e662f8a,001,3,2024-10-09_13h00.46.109,avatar_quest_3AFC_legacy,2022.1.3,Win32,59.88023952,5e668d33ffed4c410e662f8a,62bca317d87d479cda00ba3d,6706b4576c2af222bbe68e09,,,,,,,,,,,,,,,,,,,,,,With Brainslug Difficult 1 With Money,6,images/assets/snowy_money.jpg,learning,20,images/assets/success_money.jpg,images/assets/gameover.jpg,,,,,,,,With Brainslug Difficult 2 With Money,With Brainslug Difficult 1 No Money,right,2.3087,"[""With Brainslug Difficult 1 No Money"",""With Brainslug Difficult 2 No Money""]",0,0,0,0,1,,,,,,,,,,,,,,,,,,,,,,,,,,,,,,,,
,,,,,,,,,,,,5e668d33ffed4c410e662f8a,001,3,2024-10-09_13h00.46.109,avatar_quest_3AFC_legacy,2022.1.3,Win32,59.88023952,5e668d33ffed4c410e662f8a,62bca317d87d479cda00ba3d,6706b4576c2af222bbe68e09,,,,,,,,,,,,,,,,,,,,,,No Brainslug Difficult 2 With Money,12,images/assets/snowy_money.jpg,learning,20,images/assets/success_money.jpg,images/assets/gameover.jpg,,,,,,,,,,,,,0,1,1,7,1,,,,,,,,,,,,,,,,,,,,,,,,,,,,,,,,
,,,,,,,,,,,,5e668d33ffed4c410e662f8a,001,3,2024-10-09_13h00.46.109,avatar_quest_3AFC_legacy,2022.1.3,Win32,59.88023952,5e668d33ffed4c410e662f8a,62bca317d87d479cda00ba3d,6706b4576c2af222bbe68e09,,,,,,,,,,,,,,,,,,,,,,With Brainslug No Barriers With Money,0,images/assets/snowy_money.jpg,learning,10,images/assets/success_money.jpg,images/assets/gameover.jpg,,,,,,,,,,,,,0,2,2,4,1,,,,,,,,,,,,,,,,,,,,,,,,,,,,,,,,
,,,,,,,,,,,,5e668d33ffed4c410e662f8a,001,3,2024-10-09_13h00.46.109,avatar_quest_3AFC_legacy,2022.1.3,Win32,59.88023952,5e668d33ffed4c410e662f8a,62bca317d87d479cda00ba3d,6706b4576c2af222bbe68e09,,,,,,,,,,,,,,,,,,,,,,No Brainslug Difficult 1 No Money,6,images/assets/snowy_original.jpg,learning,20,images/assets/success.jpg,images/assets/gameover.jpg,,,,,,,,,,,,,0,3,3,6,1,,,,,,,,,,,,,,,,,,,,,,,,,,,,,,,,
,,,,,,,,,,,,5e668d33ffed4c410e662f8a,001,3,2024-10-09_13h00.46.109,avatar_quest_3AFC_legacy,2022.1.3,Win32,59.88023952,5e668d33ffed4c410e662f8a,62bca317d87d479cda00ba3d,6706b4576c2af222bbe68e09,"[""left"",""right"",""right"",""right"",""left"",""left"",""left"",""left"",""left"",""left"",""left"",""left"",""right"",""right"",""left"",""left"",""left"",""right"",""right"",""right"",""right"",""right"",""right"",""right"",""right"",""right"",""right"",""right"",""right"",""right"",""left"",""left"",""left"",""left""]","[0.44790000000034524,1.2989000000003443,2.7166000000005397,3.4882999999998106,3.850999999999999,4.634799999999814,5.151900000000353,5.318700000000149,5.8694999999999595,6.069299999999771,6.23599999999999,6.402999999999963,6.652999999999963,6.819900000000359,7.020100000000525,7.186900000000378,7.353799999999808,7.486999999999966,7.67040000000037,7.971100000000547,8.121100000000524,8.45460000000054,8.62179999999978,8.77170000000018,8.921799999999791,9.088999999999999,9.221900000000346,9.372200000000191,9.505499999999984,9.655499999999961,10.039299999999798,10.189400000000376,10.33960000000053,10.489600000000564]",,calibration,With Brainslug Difficult 2 With Money,15,10.61195,10.6129,14,8,0,FALSE,na,na,na,na,,,,,,,,,,,,,,,,,,,,,,,,,,,,,,,,,,0,0,0,0,1,,,,,,,,,,,,,,,,,,,,,,,
,,,,,,,,,,,,5e668d33ffed4c410e662f8a,001,3,2024-10-09_13h00.46.109,avatar_quest_3AFC_legacy,2022.1.3,Win32,59.88023952,5e668d33ffed4c410e662f8a,62bca317d87d479cda00ba3d,6706b4576c2af222bbe68e09,,,,,,,,,,,,,,,,,,,,,,With Brainslug Difficult 2 With Money,12,images/assets/snowy_money.jpg,learning,20,images/assets/success_money.jpg,images/assets/gameover.jpg,,,,,,,,,,,,,0,4,4,2,1,,,,,,,,,,,,,,,,,,,,,,,,,,,,,,,,
,,,,,,,,,,,,5e668d33ffed4c410e662f8a,001,3,2024-10-09_13h00.46.109,avatar_quest_3AFC_legacy,2022.1.3,Win32,59.88023952,5e668d33ffed4c410e662f8a,62bca317d87d479cda00ba3d,6706b4576c2af222bbe68e09,,,,,,,,,,,,,,,,,,,,,,No Brainslug No Barriers With Money,0,images/assets/snowy_money.jpg,learning,10,images/assets/success_money.jpg,images/assets/gameover.jpg,,,,,,,,,,,,,0,5,5,9,1,,,,,,,,,,,,,,,,,,,,,,,,,,,,,,,,
,,,,,,,,,,,,5e668d33ffed4c410e662f8a,001,3,2024-10-09_13h00.46.109,avatar_quest_3AFC_legacy,2022.1.3,Win32,59.88023952,5e668d33ffed4c410e662f8a,62bca317d87d479cda00ba3d,6706b4576c2af222bbe68e09,,,,,,,,,,,,,,,,,,,,,,With Brainslug Difficult 2 No Money,12,images/assets/snowy_original.jpg,learning,20,images/assets/success.jpg,images/assets/gameover.jpg,,,,,,,,,,,,,0,6,6,3,1,,,,,,,,,,,,,,,,,,,,,,,,,,,,,,,,
,,,,,,,,,,,,5e668d33ffed4c410e662f8a,001,3,2024-10-09_13h00.46.109,avatar_quest_3AFC_legacy,2022.1.3,Win32,59.88023952,5e668d33ffed4c410e662f8a,62bca317d87d479cda00ba3d,6706b4576c2af222bbe68e09,,,,,,,,,,,,,,,,,,,,,,No Brainslug No Barriers No Money,0,images/assets/snowy_original.jpg,learning,10,images/assets/success.jpg,images/assets/gameover.jpg,,,,,,,,,,,,,0,7,7,10,1,,,,,,,,,,,,,,,,,,,,,,,,,,,,,,,,
,,,,,,,,,,,,5e668d33ffed4c410e662f8a,001,3,2024-10-09_13h00.46.109,avatar_quest_3AFC_legacy,2022.1.3,Win32,59.88023952,5e668d33ffed4c410e662f8a,62bca317d87d479cda00ba3d,6706b4576c2af222bbe68e09,,,,,,,,,,,,,,,,,,,,,,With Brainslug No Barriers No Money,0,images/assets/snowy_original.jpg,learning,10,images/assets/success.jpg,images/assets/gameover.jpg,,,,,,,,,,,,,0,8,8,5,1,,,,,,,,,,,,,,,,,,,,,,,,,,,,,,,,
,,,,,,,,,,,,5e668d33ffed4c410e662f8a,001,3,2024-10-09_13h00.46.109,avatar_quest_3AFC_legacy,2022.1.3,Win32,59.88023952,5e668d33ffed4c410e662f8a,62bca317d87d479cda00ba3d,6706b4576c2af222bbe68e09,,,,,,,,,,,,,,,,,,,,,,With Brainslug Difficult 1 No Money,6,images/assets/snowy_original.jpg,learning,20,images/assets/success.jpg,images/assets/gameover.jpg,,,,,,,,,,,,,0,9,9,1,1,,,,,,,,,,,,,,,,,,,,,,,,,,,,,,,,
,,,,,,,,,,,,5e668d33ffed4c410e662f8a,001,3,2024-10-09_13h00.46.109,avatar_quest_3AFC_legacy,2022.1.3,Win32,59.88023952,5e668d33ffed4c410e662f8a,62bca317d87d479cda00ba3d,6706b4576c2af222bbe68e09,,,,,,,,,,,,,,,,,,,,,,No Brainslug Difficult 2 No Money,12,images/assets/snowy_original.jpg,learning,20,images/assets/success.jpg,images/assets/gameover.jpg,,,,,,,,,,,,,0,10,10,8,1,,,,,,,,,,,,,,,,,,,,,,,,,,,,,,,,
,,,,,,,,,,,,5e668d33ffed4c410e662f8a,001,3,2024-10-09_13h00.46.109,avatar_quest_3AFC_legacy,2022.1.3,Win32,59.88023952,5e668d33ffed4c410e662f8a,62bca317d87d479cda00ba3d,6706b4576c2af222bbe68e09,,,,,,,,,,,,,,,,,,,,,,,,,,,,,,,,,,,,,,,,,,,,,,,,,,,,,,,11,0,11,0,1,,,,,,,,,,,,,,,,,,
,,,,,,,,,,,,5e668d33ffed4c410e662f8a,001,3,2024-10-09_13h00.46.109,avatar_quest_3AFC_legacy,2022.1.3,Win32,59.88023952,5e668d33ffed4c410e662f8a,62bca317d87d479cda00ba3d,6706b4576c2af222bbe68e09,,,,,,,,,,,,,,,,,,,,,,,,,,,,,,,,,,,,,,,,,,,,,,,,,,,,,,,,,,,,0,0,0,0,1,1,With Brainslug Difficult 1 No Money,images/assets/With Brainslug Difficult 1 No Money.png,With Brainslug Difficult 2 No Money,images/assets/With Brainslug Difficult 2 No Money.png,With Brainslug Difficult 2 With Money,images/assets/With Brainslug Difficult 2 With Money.png,Achievement vs. money,,,,,
,,,,,,,,,,,,5e668d33ffed4c410e662f8a,001,3,2024-10-09_13h00.46.109,avatar_quest_3AFC_legacy,2022.1.3,Win32,59.88023952,5e668d33ffed4c410e662f8a,62bca317d87d479cda00ba3d,6706b4576c2af222bbe68e09,,,,,,,,,,,,,,,,,,,,,,With Brainslug Difficult 2 With Money,12,images/assets/snowy_money.jpg,learning,20,images/assets/success_money.jpg,images/assets/gameover.jpg,,,,,,,,No Brainslug No Barriers With Money,No Brainslug No Barriers No Money,right,0.4247,"[""No Brainslug No Barriers No Money"",""No Brainslug Difficult 1 No Money""]",0,0,0,2,1,,,,,,,,,,,,,,,,,,,,,,,,,,,,,,,,
,,,,,,,,,,,,5e668d33ffed4c410e662f8a,001,3,2024-10-09_13h00.46.109,avatar_quest_3AFC_legacy,2022.1.3,Win32,59.88023952,5e668d33ffed4c410e662f8a,62bca317d87d479cda00ba3d,6706b4576c2af222bbe68e09,,,,,,,,,,,,,,,,,,,,,,No Brainslug Difficult 1 No Money,6,images/assets/snowy_original.jpg,learning,20,images/assets/success.jpg,images/assets/gameover.jpg,,,,,,,,,,,,,0,1,1,6,1,,,,,,,,,,,,,,,,,,,,,,,,,,,,,,,,
,,,,,,,,,,,,5e668d33ffed4c410e662f8a,001,3,2024-10-09_13h00.46.109,avatar_quest_3AFC_legacy,2022.1.3,Win32,59.88023952,5e668d33ffed4c410e662f8a,62bca317d87d479cda00ba3d,6706b4576c2af222bbe68e09,,,,,,,,,,,,,,,,,,,,,,With Brainslug No Barriers No Money,0,images/assets/snowy_original.jpg,learning,10,images/assets/success.jpg,images/assets/gameover.jpg,,,,,,,,,,,,,0,2,2,5,1,,,,,,,,,,,,,,,,,,,,,,,,,,,,,,,,
,,,,,,,,,,,,5e668d33ffed4c410e662f8a,001,3,2024-10-09_13h00.46.109,avatar_quest_3AFC_legacy,2022.1.3,Win32,59.88023952,5e668d33ffed4c410e662f8a,62bca317d87d479cda00ba3d,6706b4576c2af222bbe68e09,,,,,,,,,,,,,,,,,,,,,,With Brainslug Difficult 1 No Money,6,images/assets/snowy_original.jpg,learning,20,images/assets/success.jpg,images/assets/gameover.jpg,,,,,,,,,,,,,0,3,3,1,1,,,,,,,,,,,,,,,,,,,,,,,,,,,,,,,,
,,,,,,,,,,,,5e668d33ffed4c410e662f8a,001,3,2024-10-09_13h00.46.109,avatar_quest_3AFC_legacy,2022.1.3,Win32,59.88023952,5e668d33ffed4c410e662f8a,62bca317d87d479cda00ba3d,6706b4576c2af222bbe68e09,,,,,,,,,,,,,,,,,,,,,,No Brainslug No Barriers No Money,0,images/assets/snowy_original.jpg,learning,10,images/assets/success.jpg,images/assets/gameover.jpg,,,,,,,,,,,,,0,4,4,10,1,,,,,,,,,,,,,,,,,,,,,,,,,,,,,,,,
,,,,,,,,,,,,5e668d33ffed4c410e662f8a,001,3,2024-10-09_13h00.46.109,avatar_quest_3AFC_legacy,2022.1.3,Win32,59.88023952,5e668d33ffed4c410e662f8a,62bca317d87d479cda00ba3d,6706b4576c2af222bbe68e09,,,,,,,,,,,,,,,,,,,,,,No Brainslug Difficult 2 With Money,12,images/assets/snowy_money.jpg,learning,20,images/assets/success_money.jpg,images/assets/gameover.jpg,,,,,,,,,,,,,0,5,5,7,1,,,,,,,,,,,,,,,,,,,,,,,,,,,,,,,,
,,,,,,,,,,,,5e668d33ffed4c410e662f8a,001,3,2024-10-09_13h00.46.109,avatar_quest_3AFC_legacy,2022.1.3,Win32,59.88023952,5e668d33ffed4c410e662f8a,62bca317d87d479cda00ba3d,6706b4576c2af222bbe68e09,"[""left""]",[0.8679000000003612],,calibration,No Brainslug No Barriers With Money,16,8.48956,5.4241,1,0,0,TRUE,na,na,na,na,,,,,,,,,,,,,,,,,,,,,,,,,,,,,,,,,,0,0,0,0,1,,,,,,,,,,,,,,,,,,,,,,,
,,,,,,,,,,,,5e668d33ffed4c410e662f8a,001,3,2024-10-09_13h00.46.109,avatar_quest_3AFC_legacy,2022.1.3,Win32,59.88023952,5e668d33ffed4c410e662f8a,62bca317d87d479cda00ba3d,6706b4576c2af222bbe68e09,,,,,,,,,,,,,,,,,,,,,,No Brainslug No Barriers With Money,0,images/assets/snowy_money.jpg,learning,10,images/assets/success_money.jpg,images/assets/gameover.jpg,,,,,,,,,,,,,0,6,6,9,1,,,,,,,,,,,,,,,,,,,,,,,,,,,,,,,,
,,,,,,,,,,,,5e668d33ffed4c410e662f8a,001,3,2024-10-09_13h00.46.109,avatar_quest_3AFC_legacy,2022.1.3,Win32,59.88023952,5e668d33ffed4c410e662f8a,62bca317d87d479cda00ba3d,6706b4576c2af222bbe68e09,,,,,,,,,,,,,,,,,,,,,,With Brainslug Difficult 1 With Money,6,images/assets/snowy_money.jpg,learning,20,images/assets/success_money.jpg,images/assets/gameover.jpg,,,,,,,,,,,,,0,7,7,0,1,,,,,,,,,,,,,,,,,,,,,,,,,,,,,,,,
,,,,,,,,,,,,5e668d33ffed4c410e662f8a,001,3,2024-10-09_13h00.46.109,avatar_quest_3AFC_legacy,2022.1.3,Win32,59.88023952,5e668d33ffed4c410e662f8a,62bca317d87d479cda00ba3d,6706b4576c2af222bbe68e09,,,,,,,,,,,,,,,,,,,,,,With Brainslug Difficult 2 No Money,12,images/assets/snowy_original.jpg,learning,20,images/assets/success.jpg,images/assets/gameover.jpg,,,,,,,,,,,,,0,8,8,3,1,,,,,,,,,,,,,,,,,,,,,,,,,,,,,,,,
,,,,,,,,,,,,5e668d33ffed4c410e662f8a,001,3,2024-10-09_13h00.46.109,avatar_quest_3AFC_legacy,2022.1.3,Win32,59.88023952,5e668d33ffed4c410e662f8a,62bca317d87d479cda00ba3d,6706b4576c2af222bbe68e09,,,,,,,,,,,,,,,,,,,,,,No Brainslug Difficult 2 No Money,12,images/assets/snowy_original.jpg,learning,20,images/assets/success.jpg,images/assets/gameover.jpg,,,,,,,,,,,,,0,9,9,8,1,,,,,,,,,,,,,,,,,,,,,,,,,,,,,,,,
,,,,,,,,,,,,5e668d33ffed4c410e662f8a,001,3,2024-10-09_13h00.46.109,avatar_quest_3AFC_legacy,2022.1.3,Win32,59.88023952,5e668d33ffed4c410e662f8a,62bca317d87d479cda00ba3d,6706b4576c2af222bbe68e09,,,,,,,,,,,,,,,,,,,,,,With Brainslug No Barriers With Money,0,images/assets/snowy_money.jpg,learning,10,images/assets/success_money.jpg,images/assets/gameover.jpg,,,,,,,,,,,,,0,10,10,4,1,,,,,,,,,,,,,,,,,,,,,,,,,,,,,,,,
,,,,,,,,,,,,5e668d33ffed4c410e662f8a,001,3,2024-10-09_13h00.46.109,avatar_quest_3AFC_legacy,2022.1.3,Win32,59.88023952,5e668d33ffed4c410e662f8a,62bca317d87d479cda00ba3d,6706b4576c2af222bbe68e09,,,,,,,,,,,,,,,,,,,,,,,,,,,,,,,,,,,,,,,,,,,,,,,,,,,,,,,0,0,0,0,1,,,,,,,,,,,,,,,,,,
,,,,,,,,,,,,5e668d33ffed4c410e662f8a,001,3,2024-10-09_13h00.46.109,avatar_quest_3AFC_legacy,2022.1.3,Win32,59.88023952,5e668d33ffed4c410e662f8a,62bca317d87d479cda00ba3d,6706b4576c2af222bbe68e09,,,,,,,,,,,,,,,,,,,,,,With Brainslug No Barriers With Money,0,images/assets/snowy_money.jpg,learning,10,images/assets/success_money.jpg,images/assets/gameover.jpg,,,,,,,,No Brainslug No Barriers With Money,No Brainslug No Barriers No Money,right,0.8254,"[""No Brainslug No Barriers No Money"",""No Brainslug Difficult 1 No Money""]",0,0,0,4,1,,,,,,,,,,,,,,,,,,,,,,,,,,,,,,,,
,,,,,,,,,,,,5e668d33ffed4c410e662f8a,001,3,2024-10-09_13h00.46.109,avatar_quest_3AFC_legacy,2022.1.3,Win32,59.88023952,5e668d33ffed4c410e662f8a,62bca317d87d479cda00ba3d,6706b4576c2af222bbe68e09,,,,,,,,,,,,,,,,,,,,,,With Brainslug No Barriers No Money,0,images/assets/snowy_original.jpg,learning,10,images/assets/success.jpg,images/assets/gameover.jpg,,,,,,,,,,,,,0,1,1,5,1,,,,,,,,,,,,,,,,,,,,,,,,,,,,,,,,
,,,,,,,,,,,,5e668d33ffed4c410e662f8a,001,3,2024-10-09_13h00.46.109,avatar_quest_3AFC_legacy,2022.1.3,Win32,59.88023952,5e668d33ffed4c410e662f8a,62bca317d87d479cda00ba3d,6706b4576c2af222bbe68e09,,,,,,,,,,,,,,,,,,,,,,No Brainslug Difficult 2 With Money,12,images/assets/snowy_money.jpg,learning,20,images/assets/success_money.jpg,images/assets/gameover.jpg,,,,,,,,,,,,,0,2,2,7,1,,,,,,,,,,,,,,,,,,,,,,,,,,,,,,,,
,,,,,,,,,,,,5e668d33ffed4c410e662f8a,001,3,2024-10-09_13h00.46.109,avatar_quest_3AFC_legacy,2022.1.3,Win32,59.88023952,5e668d33ffed4c410e662f8a,62bca317d87d479cda00ba3d,6706b4576c2af222bbe68e09,,,,,,,,,,,,,,,,,,,,,,No Brainslug Difficult 2 No Money,12,images/assets/snowy_original.jpg,learning,20,images/assets/success.jpg,images/assets/gameover.jpg,,,,,,,,,,,,,0,3,3,8,1,,,,,,,,,,,,,,,,,,,,,,,,,,,,,,,,
,,,,,,,,,,,,5e668d33ffed4c410e662f8a,001,3,2024-10-09_13h00.46.109,avatar_quest_3AFC_legacy,2022.1.3,Win32,59.88023952,5e668d33ffed4c410e662f8a,62bca317d87d479cda00ba3d,6706b4576c2af222bbe68e09,,,,,,,,,,,,,,,,,,,,,,With Brainslug Difficult 2 No Money,12,images/assets/snowy_original.jpg,learning,20,images/assets/success.jpg,images/assets/gameover.jpg,,,,,,,,,,,,,0,4,4,3,1,,,,,,,,,,,,,,,,,,,,,,,,,,,,,,,,
,,,,,,,,,,,,5e668d33ffed4c410e662f8a,001,3,2024-10-09_13h00.46.109,avatar_quest_3AFC_legacy,2022.1.3,Win32,59.88023952,5e668d33ffed4c410e662f8a,62bca317d87d479cda00ba3d,6706b4576c2af222bbe68e09,,,,,,,,,,,,,,,,,,,,,,No Brainslug Difficult 1 No Money,6,images/assets/snowy_original.jpg,learning,20,images/assets/success.jpg,images/assets/gameover.jpg,,,,,,,,,,,,,0,5,5,6,1,,,,,,,,,,,,,,,,,,,,,,,,,,,,,,,,
,,,,,,,,,,,,5e668d33ffed4c410e662f8a,001,3,2024-10-09_13h00.46.109,avatar_quest_3AFC_legacy,2022.1.3,Win32,59.88023952,5e668d33ffed4c410e662f8a,62bca317d87d479cda00ba3d,6706b4576c2af222bbe68e09,,,,,,,,,,,,,,,,,,,,,,With Brainslug Difficult 2 With Money,12,images/assets/snowy_money.jpg,learning,20,images/assets/success_money.jpg,images/assets/gameover.jpg,,,,,,,,,,,,,0,6,6,2,1,,,,,,,,,,,,,,,,,,,,,,,,,,,,,,,,
,,,,,,,,,,,,5e668d33ffed4c410e662f8a,001,3,2024-10-09_13h00.46.109,avatar_quest_3AFC_legacy,2022.1.3,Win32,59.88023952,5e668d33ffed4c410e662f8a,62bca317d87d479cda00ba3d,6706b4576c2af222bbe68e09,,,,,,,,,,,,,,,,,,,,,,No Brainslug No Barriers No Money,0,images/assets/snowy_original.jpg,learning,10,images/assets/success.jpg,images/assets/gameover.jpg,,,,,,,,,,,,,0,7,7,10,1,,,,,,,,,,,,,,,,,,,,,,,,,,,,,,,,
,,,,,,,,,,,,5e668d33ffed4c410e662f8a,001,3,2024-10-09_13h00.46.109,avatar_quest_3AFC_legacy,2022.1.3,Win32,59.88023952,5e668d33ffed4c410e662f8a,62bca317d87d479cda00ba3d,6706b4576c2af222bbe68e09,"[""left"",""up"",""up"",""up"",""up""]","[0.5660999999996079,1.8393999999984771,2.068299999998885,2.247099999999591,2.4341999999992368]",,calibration,No Brainslug No Barriers With Money,17,8.48956,5.3391,1,0,0,TRUE,na,na,na,na,,,,,,,,,,,,,,,,,,,,,,,,,,,,,,,,,,0,0,0,0,1,,,,,,,,,,,,,,,,,,,,,,,
,,,,,,,,,,,,5e668d33ffed4c410e662f8a,001,3,2024-10-09_13h00.46.109,avatar_quest_3AFC_legacy,2022.1.3,Win32,59.88023952,5e668d33ffed4c410e662f8a,62bca317d87d479cda00ba3d,6706b4576c2af222bbe68e09,,,,,,,,,,,,,,,,,,,,,,No Brainslug No Barriers With Money,0,images/assets/snowy_money.jpg,learning,10,images/assets/success_money.jpg,images/assets/gameover.jpg,,,,,,,,,,,,,0,8,8,9,1,,,,,,,,,,,,,,,,,,,,,,,,,,,,,,,,
,,,,,,,,,,,,5e668d33ffed4c410e662f8a,001,3,2024-10-09_13h00.46.109,avatar_quest_3AFC_legacy,2022.1.3,Win32,59.88023952,5e668d33ffed4c410e662f8a,62bca317d87d479cda00ba3d,6706b4576c2af222bbe68e09,,,,,,,,,,,,,,,,,,,,,,With Brainslug Difficult 1 With Money,6,images/assets/snowy_money.jpg,learning,20,images/assets/success_money.jpg,images/assets/gameover.jpg,,,,,,,,,,,,,0,9,9,0,1,,,,,,,,,,,,,,,,,,,,,,,,,,,,,,,,
,,,,,,,,,,,,5e668d33ffed4c410e662f8a,001,3,2024-10-09_13h00.46.109,avatar_quest_3AFC_legacy,2022.1.3,Win32,59.88023952,5e668d33ffed4c410e662f8a,62bca317d87d479cda00ba3d,6706b4576c2af222bbe68e09,,,,,,,,,,,,,,,,,,,,,,With Brainslug Difficult 1 No Money,6,images/assets/snowy_original.jpg,learning,20,images/assets/success.jpg,images/assets/gameover.jpg,,,,,,,,,,,,,0,10,10,1,1,,,,,,,,,,,,,,,,,,,,,,,,,,,,,,,,
,,,,,,,,,,,,5e668d33ffed4c410e662f8a,001,3,2024-10-09_13h00.46.109,avatar_quest_3AFC_legacy,2022.1.3,Win32,59.88023952,5e668d33ffed4c410e662f8a,62bca317d87d479cda00ba3d,6706b4576c2af222bbe68e09,,,,,,,,,,,,,,,,,,,,,,,,,,,,,,,,,,,,,,,,,,,,,,,,,,,,,,,1,0,1,0,1,,,,,,,,,,,,,,,,,,
,,,,,,,,,,,,5e668d33ffed4c410e662f8a,001,3,2024-10-09_13h00.46.109,avatar_quest_3AFC_legacy,2022.1.3,Win32,59.88023952,5e668d33ffed4c410e662f8a,62bca317d87d479cda00ba3d,6706b4576c2af222bbe68e09,,,,,,,,,,,,,,,,,,,,,,No Brainslug Difficult 2 No Money,12,images/assets/snowy_original.jpg,learning,20,images/assets/success.jpg,images/assets/gameover.jpg,,,,,,,,No Brainslug No Barriers With Money,No Brainslug No Barriers No Money,right,0.3444,"[""No Brainslug No Barriers No Money"",""No Brainslug Difficult 1 No Money""]",0,0,0,8,1,,,,,,,,,,,,,,,,,,,,,,,,,,,,,,,,
,,,,,,,,,,,,5e668d33ffed4c410e662f8a,001,3,2024-10-09_13h00.46.109,avatar_quest_3AFC_legacy,2022.1.3,Win32,59.88023952,5e668d33ffed4c410e662f8a,62bca317d87d479cda00ba3d,6706b4576c2af222bbe68e09,"[""left"",""up""]","[0.5674000000003616,1.167699999999229]",,calibration,No Brainslug No Barriers With Money,18,8.48956,5.3576,1,0,0,TRUE,na,na,na,na,,,,,,,,,,,,,,,,,,,,,,,,,,,,,,,,,,0,0,0,0,1,,,,,,,,,,,,,,,,,,,,,,,
,,,,,,,,,,,,5e668d33ffed4c410e662f8a,001,3,2024-10-09_13h00.46.109,avatar_quest_3AFC_legacy,2022.1.3,Win32,59.88023952,5e668d33ffed4c410e662f8a,62bca317d87d479cda00ba3d,6706b4576c2af222bbe68e09,,,,,,,,,,,,,,,,,,,,,,No Brainslug No Barriers With Money,0,images/assets/snowy_money.jpg,learning,10,images/assets/success_money.jpg,images/assets/gameover.jpg,,,,,,,,,,,,,0,1,1,9,1,,,,,,,,,,,,,,,,,,,,,,,,,,,,,,,,
,,,,,,,,,,,,5e668d33ffed4c410e662f8a,001,3,2024-10-09_13h00.46.109,avatar_quest_3AFC_legacy,2022.1.3,Win32,59.88023952,5e668d33ffed4c410e662f8a,62bca317d87d479cda00ba3d,6706b4576c2af222bbe68e09,,,,,,,,,,,,,,,,,,,,,,With Brainslug Difficult 1 With Money,6,images/assets/snowy_money.jpg,learning,20,images/assets/success_money.jpg,images/assets/gameover.jpg,,,,,,,,,,,,,0,2,2,0,1,,,,,,,,,,,,,,,,,,,,,,,,,,,,,,,,
,,,,,,,,,,,,5e668d33ffed4c410e662f8a,001,3,2024-10-09_13h00.46.109,avatar_quest_3AFC_legacy,2022.1.3,Win32,59.88023952,5e668d33ffed4c410e662f8a,62bca317d87d479cda00ba3d,6706b4576c2af222bbe68e09,,,,,,,,,,,,,,,,,,,,,,With Brainslug No Barriers With Money,0,images/assets/snowy_money.jpg,learning,10,images/assets/success_money.jpg,images/assets/gameover.jpg,,,,,,,,,,,,,0,3,3,4,1,,,,,,,,,,,,,,,,,,,,,,,,,,,,,,,,
,,,,,,,,,,,,5e668d33ffed4c410e662f8a,001,3,2024-10-09_13h00.46.109,avatar_quest_3AFC_legacy,2022.1.3,Win32,59.88023952,5e668d33ffed4c410e662f8a,62bca317d87d479cda00ba3d,6706b4576c2af222bbe68e09,,,,,,,,,,,,,,,,,,,,,,With Brainslug Difficult 1 No Money,6,images/assets/snowy_original.jpg,learning,20,images/assets/success.jpg,images/assets/gameover.jpg,,,,,,,,,,,,,0,4,4,1,1,,,,,,,,,,,,,,,,,,,,,,,,,,,,,,,,
,,,,,,,,,,,,5e668d33ffed4c410e662f8a,001,3,2024-10-09_13h00.46.109,avatar_quest_3AFC_legacy,2022.1.3,Win32,59.88023952,5e668d33ffed4c410e662f8a,62bca317d87d479cda00ba3d,6706b4576c2af222bbe68e09,,,,,,,,,,,,,,,,,,,,,,With Brainslug Difficult 2 With Money,12,images/assets/snowy_money.jpg,learning,20,images/assets/success_money.jpg,images/assets/gameover.jpg,,,,,,,,,,,,,0,5,5,2,1,,,,,,,,,,,,,,,,,,,,,,,,,,,,,,,,
,,,,,,,,,,,,5e668d33ffed4c410e662f8a,001,3,2024-10-09_13h00.46.109,avatar_quest_3AFC_legacy,2022.1.3,Win32,59.88023952,5e668d33ffed4c410e662f8a,62bca317d87d479cda00ba3d,6706b4576c2af222bbe68e09,,,,,,,,,,,,,,,,,,,,,,With Brainslug Difficult 2 No Money,12,images/assets/snowy_original.jpg,learning,20,images/assets/success.jpg,images/assets/gameover.jpg,,,,,,,,,,,,,0,6,6,3,1,,,,,,,,,,,,,,,,,,,,,,,,,,,,,,,,
,,,,,,,,,,,,5e668d33ffed4c410e662f8a,001,3,2024-10-09_13h00.46.109,avatar_quest_3AFC_legacy,2022.1.3,Win32,59.88023952,5e668d33ffed4c410e662f8a,62bca317d87d479cda00ba3d,6706b4576c2af222bbe68e09,,,,,,,,,,,,,,,,,,,,,,With Brainslug No Barriers No Money,0,images/assets/snowy_original.jpg,learning,10,images/assets/success.jpg,images/assets/gameover.jpg,,,,,,,,,,,,,0,7,7,5,1,,,,,,,,,,,,,,,,,,,,,,,,,,,,,,,,
,,,,,,,,,,,,5e668d33ffed4c410e662f8a,001,3,2024-10-09_13h00.46.109,avatar_quest_3AFC_legacy,2022.1.3,Win32,59.88023952,5e668d33ffed4c410e662f8a,62bca317d87d479cda00ba3d,6706b4576c2af222bbe68e09,,,,,,,,,,,,,,,,,,,,,,No Brainslug Difficult 2 With Money,12,images/assets/snowy_money.jpg,learning,20,images/assets/success_money.jpg,images/assets/gameover.jpg,,,,,,,,,,,,,0,8,8,7,1,,,,,,,,,,,,,,,,,,,,,,,,,,,,,,,,
,,,,,,,,,,,,5e668d33ffed4c410e662f8a,001,3,2024-10-09_13h00.46.109,avatar_quest_3AFC_legacy,2022.1.3,Win32,59.88023952,5e668d33ffed4c410e662f8a,62bca317d87d479cda00ba3d,6706b4576c2af222bbe68e09,,,,,,,,,,,,,,,,,,,,,,No Brainslug Difficult 1 No Money,6,images/assets/snowy_original.jpg,learning,20,images/assets/success.jpg,images/assets/gameover.jpg,,,,,,,,,,,,,0,9,9,6,1,,,,,,,,,,,,,,,,,,,,,,,,,,,,,,,,
,,,,,,,,,,,,5e668d33ffed4c410e662f8a,001,3,2024-10-09_13h00.46.109,avatar_quest_3AFC_legacy,2022.1.3,Win32,59.88023952,5e668d33ffed4c410e662f8a,62bca317d87d479cda00ba3d,6706b4576c2af222bbe68e09,,,,,,,,,,,,,,,,,,,,,,No Brainslug No Barriers No Money,0,images/assets/snowy_original.jpg,learning,10,images/assets/success.jpg,images/assets/gameover.jpg,,,,,,,,,,,,,0,10,10,10,1,,,,,,,,,,,,,,,,,,,,,,,,,,,,,,,,
,,,,,,,,,,,,5e668d33ffed4c410e662f8a,001,3,2024-10-09_13h00.46.109,avatar_quest_3AFC_legacy,2022.1.3,Win32,59.88023952,5e668d33ffed4c410e662f8a,62bca317d87d479cda00ba3d,6706b4576c2af222bbe68e09,,,,,,,,,,,,,,,,,,,,,,,,,,,,,,,,,,,,,,,,,,,,,,,,,,,,,,,2,0,2,0,1,,,,,,,,,,,,,,,,,,
,,,,,,,,,,,,5e668d33ffed4c410e662f8a,001,3,2024-10-09_13h00.46.109,avatar_quest_3AFC_legacy,2022.1.3,Win32,59.88023952,5e668d33ffed4c410e662f8a,62bca317d87d479cda00ba3d,6706b4576c2af222bbe68e09,"[""left""]",[2.1464000000003693],,calibration,No Brainslug No Barriers With Money,19,8.48956,5.4555,1,0,0,TRUE,na,na,na,na,,,,,,,,,,,,,,,,,,,,No Brainslug No Barriers With Money,No Brainslug No Barriers No Money,right,0.8777,"[""No Brainslug No Barriers No Money"",""No Brainslug Difficult 1 No Money""]",,,,,,,,,,0,0,0,0,1,,,,,,,,,,,,,,,,,,,,,,,
,,,,,,,,,,,,5e668d33ffed4c410e662f8a,001,3,2024-10-09_13h00.46.109,avatar_quest_3AFC_legacy,2022.1.3,Win32,59.88023952,5e668d33ffed4c410e662f8a,62bca317d87d479cda00ba3d,6706b4576c2af222bbe68e09,,,,,,,,,,,,,,,,,,,,,,No Brainslug No Barriers With Money,0,images/assets/snowy_money.jpg,learning,10,images/assets/success_money.jpg,images/assets/gameover.jpg,,,,,,,,,,,,,0,0,0,9,1,,,,,,,,,,,,,,,,,,,,,,,,,,,,,,,,
,,,,,,,,,,,,5e668d33ffed4c410e662f8a,001,3,2024-10-09_13h00.46.109,avatar_quest_3AFC_legacy,2022.1.3,Win32,59.88023952,5e668d33ffed4c410e662f8a,62bca317d87d479cda00ba3d,6706b4576c2af222bbe68e09,,,,,,,,,,,,,,,,,,,,,,With Brainslug No Barriers No Money,0,images/assets/snowy_original.jpg,learning,10,images/assets/success.jpg,images/assets/gameover.jpg,,,,,,,,,,,,,0,1,1,5,1,,,,,,,,,,,,,,,,,,,,,,,,,,,,,,,,
,,,,,,,,,,,,5e668d33ffed4c410e662f8a,001,3,2024-10-09_13h00.46.109,avatar_quest_3AFC_legacy,2022.1.3,Win32,59.88023952,5e668d33ffed4c410e662f8a,62bca317d87d479cda00ba3d,6706b4576c2af222bbe68e09,,,,,,,,,,,,,,,,,,,,,,No Brainslug Difficult 2 With Money,12,images/assets/snowy_money.jpg,learning,20,images/assets/success_money.jpg,images/assets/gameover.jpg,,,,,,,,,,,,,0,2,2,7,1,,,,,,,,,,,,,,,,,,,,,,,,,,,,,,,,
,,,,,,,,,,,,5e668d33ffed4c410e662f8a,001,3,2024-10-09_13h00.46.109,avatar_quest_3AFC_legacy,2022.1.3,Win32,59.88023952,5e668d33ffed4c410e662f8a,62bca317d87d479cda00ba3d,6706b4576c2af222bbe68e09,,,,,,,,,,,,,,,,,,,,,,With Brainslug Difficult 2 With Money,12,images/assets/snowy_money.jpg,learning,20,images/assets/success_money.jpg,images/assets/gameover.jpg,,,,,,,,,,,,,0,3,3,2,1,,,,,,,,,,,,,,,,,,,,,,,,,,,,,,,,
,,,,,,,,,,,,5e668d33ffed4c410e662f8a,001,3,2024-10-09_13h00.46.109,avatar_quest_3AFC_legacy,2022.1.3,Win32,59.88023952,5e668d33ffed4c410e662f8a,62bca317d87d479cda00ba3d,6706b4576c2af222bbe68e09,,,,,,,,,,,,,,,,,,,,,,No Brainslug Difficult 1 No Money,6,images/assets/snowy_original.jpg,learning,20,images/assets/success.jpg,images/assets/gameover.jpg,,,,,,,,,,,,,0,4,4,6,1,,,,,,,,,,,,,,,,,,,,,,,,,,,,,,,,
,,,,,,,,,,,,5e668d33ffed4c410e662f8a,001,3,2024-10-09_13h00.46.109,avatar_quest_3AFC_legacy,2022.1.3,Win32,59.88023952,5e668d33ffed4c410e662f8a,62bca317d87d479cda00ba3d,6706b4576c2af222bbe68e09,,,,,,,,,,,,,,,,,,,,,,With Brainslug Difficult 1 No Money,6,images/assets/snowy_original.jpg,learning,20,images/assets/success.jpg,images/assets/gameover.jpg,,,,,,,,,,,,,0,5,5,1,1,,,,,,,,,,,,,,,,,,,,,,,,,,,,,,,,
,,,,,,,,,,,,5e668d33ffed4c410e662f8a,001,3,2024-10-09_13h00.46.109,avatar_quest_3AFC_legacy,2022.1.3,Win32,59.88023952,5e668d33ffed4c410e662f8a,62bca317d87d479cda00ba3d,6706b4576c2af222bbe68e09,,,,,,,,,,,,,,,,,,,,,,With Brainslug Difficult 1 With Money,6,images/assets/snowy_money.jpg,learning,20,images/assets/success_money.jpg,images/assets/gameover.jpg,,,,,,,,,,,,,0,6,6,0,1,,,,,,,,,,,,,,,,,,,,,,,,,,,,,,,,
,,,,,,,,,,,,5e668d33ffed4c410e662f8a,001,3,2024-10-09_13h00.46.109,avatar_quest_3AFC_legacy,2022.1.3,Win32,59.88023952,5e668d33ffed4c410e662f8a,62bca317d87d479cda00ba3d,6706b4576c2af222bbe68e09,,,,,,,,,,,,,,,,,,,,,,With Brainslug No Barriers With Money,0,images/assets/snowy_money.jpg,learning,10,images/assets/success_money.jpg,images/assets/gameover.jpg,,,,,,,,,,,,,0,7,7,4,1,,,,,,,,,,,,,,,,,,,,,,,,,,,,,,,,
,,,,,,,,,,,,5e668d33ffed4c410e662f8a,001,3,2024-10-09_13h00.46.109,avatar_quest_3AFC_legacy,2022.1.3,Win32,59.88023952,5e668d33ffed4c410e662f8a,62bca317d87d479cda00ba3d,6706b4576c2af222bbe68e09,,,,,,,,,,,,,,,,,,,,,,No Brainslug Difficult 2 No Money,12,images/assets/snowy_original.jpg,learning,20,images/assets/success.jpg,images/assets/gameover.jpg,,,,,,,,,,,,,0,8,8,8,1,,,,,,,,,,,,,,,,,,,,,,,,,,,,,,,,
,,,,,,,,,,,,5e668d33ffed4c410e662f8a,001,3,2024-10-09_13h00.46.109,avatar_quest_3AFC_legacy,2022.1.3,Win32,59.88023952,5e668d33ffed4c410e662f8a,62bca317d87d479cda00ba3d,6706b4576c2af222bbe68e09,,,,,,,,,,,,,,,,,,,,,,No Brainslug No Barriers No Money,0,images/assets/snowy_original.jpg,learning,10,images/assets/success.jpg,images/assets/gameover.jpg,,,,,,,,,,,,,0,9,9,10,1,,,,,,,,,,,,,,,,,,,,,,,,,,,,,,,,
