instruction_mouse.x,instruction_mouse.y,instruction_mouse.leftButton,instruction_mouse.midButton,instruction_mouse.rightButton,instruction_mouse.clicked_name,introduce_general.thisRepN,introduce_general.thisTrialN,introduce_general.thisN,introduce_general.thisIndex,introduce_general.ran,thisInstruction,participant,session,game version,date,expName,psychopyVersion,OS,frameRate,PROLIFIC PID,STUDY ID,SESSION ID,move_resp.keys,move_resp.rt,end_resp.keys,phase,condition,trial_num,time_limit,completion_time,left_right_steps,number_of_obsticle_blocks,number_of_tree_blocks,quest_complete,responsivity_summary,av_inter_brainslug_intervals,proportion_jitter,jitter_direction_proportion_right,calibration_phase.thisRepN,calibration_phase.thisTrialN,calibration_phase.thisN,calibration_phase.thisIndex,calibration_phase.ran,BlockLabel,nObsticles,backgroundImage,phaseLabel,n_side_steps,success_im,gameover_im,success_condition,introduce_learning_or_choice.thisRepN,introduce_learning_or_choice.thisTrialN,introduce_learning_or_choice.thisN,introduce_learning_or_choice.thisIndex,introduce_learning_or_choice.ran,choice_resp.keys,chosen_quest,unchosen_quest,choice_resp_3afc.keys,choice_resp_3afc.rt,unchosen_quests,forced_choice_trial.thisRepN,forced_choice_trial.thisTrialN,forced_choice_trial.thisN,forced_choice_trial.thisIndex,forced_choice_trial.ran,enjoyment_slider.response,enjoyment_slider.rt,effort_slider.response,effort_slider.rt,show_loop2.thisRepN,show_loop2.thisTrialN,show_loop2.thisN,show_loop2.thisIndex,show_loop2.ran,trials_per_block.thisRepN,trials_per_block.thisTrialN,trials_per_block.thisN,trials_per_block.thisIndex,trials_per_block.ran,decision_phase_AFC.thisRepN,decision_phase_AFC.thisTrialN,decision_phase_AFC.thisN,decision_phase_AFC.thisIndex,decision_phase_AFC.ran,blockN,BlockLabel1,questIm1,BlockLabel2,questIm2,BlockLabel3,questIm3,quest_condition,showForcedChoice.thisRepN,showForcedChoice.thisTrialN,showForcedChoice.thisN,showForcedChoice.thisIndex,showForcedChoice.ran
0.368518519,-0.387962963,1,0,0,instruction_button,0,0,0,0,1,images/instructions_part1_LSM_taskversion1/Slide1.JPG,5f0fab5abdec9a1aff2b2744,001,3,2024-10-09_12h36.23.466,avatar_quest_3AFC_legacy,2022.1.3,Win32,59.88023952,5f0fab5abdec9a1aff2b2744,62bca317d87d479cda00ba3d,6706be4208493754f3d16bee,,,,,,,,,,,,,,,,,,,,,,,,,,,,,,,,,,,,,,,,,,,,,,,,,,,,,,,,,,,,,,,,,,,,,,,,,,,,,
0.368518519,-0.387962963,1,0,0,instruction_button,0,1,1,1,1,images/instructions_part1_LSM_taskversion1/Slide2.JPG,5f0fab5abdec9a1aff2b2744,001,3,2024-10-09_12h36.23.466,avatar_quest_3AFC_legacy,2022.1.3,Win32,59.88023952,5f0fab5abdec9a1aff2b2744,62bca317d87d479cda00ba3d,6706be4208493754f3d16bee,,,,,,,,,,,,,,,,,,,,,,,,,,,,,,,,,,,,,,,,,,,,,,,,,,,,,,,,,,,,,,,,,,,,,,,,,,,,,
0.368518519,-0.387962963,1,0,0,instruction_button,0,2,2,2,1,images/instructions_part1_LSM_taskversion1/Slide3.JPG,5f0fab5abdec9a1aff2b2744,001,3,2024-10-09_12h36.23.466,avatar_quest_3AFC_legacy,2022.1.3,Win32,59.88023952,5f0fab5abdec9a1aff2b2744,62bca317d87d479cda00ba3d,6706be4208493754f3d16bee,,,,,,,,,,,,,,,,,,,,,,,,,,,,,,,,,,,,,,,,,,,,,,,,,,,,,,,,,,,,,,,,,,,,,,,,,,,,,
0.366666667,-0.393518519,1,0,0,instruction_button,0,3,3,3,1,images/instructions_part1_LSM_taskversion1/Slide3.5.JPG,5f0fab5abdec9a1aff2b2744,001,3,2024-10-09_12h36.23.466,avatar_quest_3AFC_legacy,2022.1.3,Win32,59.88023952,5f0fab5abdec9a1aff2b2744,62bca317d87d479cda00ba3d,6706be4208493754f3d16bee,,,,,,,,,,,,,,,,,,,,,,,,,,,,,,,,,,,,,,,,,,,,,,,,,,,,,,,,,,,,,,,,,,,,,,,,,,,,,
0.366666667,-0.393518519,1,0,0,instruction_button,0,4,4,4,1,images/instructions_part1_LSM_taskversion1/Slide4.JPG,5f0fab5abdec9a1aff2b2744,001,3,2024-10-09_12h36.23.466,avatar_quest_3AFC_legacy,2022.1.3,Win32,59.88023952,5f0fab5abdec9a1aff2b2744,62bca317d87d479cda00ba3d,6706be4208493754f3d16bee,,,,,,,,,,,,,,,,,,,,,,,,,,,,,,,,,,,,,,,,,,,,,,,,,,,,,,,,,,,,,,,,,,,,,,,,,,,,,
0.366666667,-0.393518519,1,0,0,instruction_button,0,5,5,5,1,images/instructions_part1_LSM_taskversion1/Slide6.5.JPG,5f0fab5abdec9a1aff2b2744,001,3,2024-10-09_12h36.23.466,avatar_quest_3AFC_legacy,2022.1.3,Win32,59.88023952,5f0fab5abdec9a1aff2b2744,62bca317d87d479cda00ba3d,6706be4208493754f3d16bee,,,,,,,,,,,,,,,,,,,,,,,,,,,,,,,,,,,,,,,,,,,,,,,,,,,,,,,,,,,,,,,,,,,,,,,,,,,,,
,,,,,,,,,,,,5f0fab5abdec9a1aff2b2744,001,3,2024-10-09_12h36.23.466,avatar_quest_3AFC_legacy,2022.1.3,Win32,59.88023952,5f0fab5abdec9a1aff2b2744,62bca317d87d479cda00ba3d,6706be4208493754f3d16bee,"[""left"",""left"",""right"",""right"",""right"",""right""]","[1.9112999999970128,2.941299999997014,3.5106999999955235,4.214899999998508,4.582799999997022,5.014600000001494]",,calibration,No Brainslug No Barriers No Money,1,100,5.2957,5,0,0,TRUE,na,na,na,na,0,0,0,1,1,No Brainslug No Barriers No Money,0,images/assets/snowy_original.jpg,calibration,10,images/assets/success.jpg,images/assets/gameover.jpg,never,,,,,,,,,,,,,,,,,,,,,,,,,,,,,,,,,,,,,,,,,,,,,,,,
,,,,,,,,,,,,5f0fab5abdec9a1aff2b2744,001,3,2024-10-09_12h36.23.466,avatar_quest_3AFC_legacy,2022.1.3,Win32,59.88023952,5f0fab5abdec9a1aff2b2744,62bca317d87d479cda00ba3d,6706be4208493754f3d16bee,"[""right"",""right"",""right"",""right"",""right"",""right"",""left"",""left"",""left"",""left"",""right"",""right""]","[0.13720000000297716,0.7671000000014914,1.100600000001478,1.4508000000044632,1.8012000000029786,2.2183000000044615,2.6186000000014786,2.9853000000044716,3.5363000000044593,3.9368000000044674,4.889100000001491,5.161100000001483]",,calibration,No Brainslug No Barriers No Money,2,100,5.2865,7,0,13,TRUE,na,na,na,na,0,1,1,2,1,No Brainslug No Barriers No Money,0,images/assets/snowy_original.jpg,calibration,10,images/assets/success.jpg,images/assets/gameover.jpg,never,,,,,,,,,,,,,,,,,,,,,,,,,,,,,,,,,,,,,,,,,,,,,,,,
,,,,,,,,,,,,5f0fab5abdec9a1aff2b2744,001,3,2024-10-09_12h36.23.466,avatar_quest_3AFC_legacy,2022.1.3,Win32,59.88023952,5f0fab5abdec9a1aff2b2744,62bca317d87d479cda00ba3d,6706be4208493754f3d16bee,"[""right"",""right"",""right"",""right"",""left"",""left"",""left"",""left"",""left"",""left"",""right"",""right"",""right"",""right"",""right"",""right"",""right"",""right""]","[0.08399999999998897,0.5843999999985101,0.8348000000044635,1.009600000001484,1.3352000000029705,1.6018000000044594,2.5697000000029817,3.2036000000014866,3.4254999999999995,3.670800000004462,3.857600000001483,4.137800000004461,4.321399999998505,4.5046000000014885,4.689499999999995,4.87180000000447,5.025399999998498,5.172100000001478]",,calibration,No Brainslug No Barriers No Money,3,100,5.2874,9,0,0,TRUE,na,na,na,na,0,2,2,0,1,No Brainslug No Barriers No Money,0,images/assets/snowy_original.jpg,calibration,10,images/assets/success.jpg,images/assets/gameover.jpg,never,,,,,,,,,,,,,,,,,,,,,,,,,,,,,,,,,,,,,,,,,,,,,,,,
0.387037037,-0.412962963,1,0,0,instruction_button,,,,,,images/instructions_part2_LSM_taskversion3.jpg,5f0fab5abdec9a1aff2b2744,001,3,2024-10-09_12h36.23.466,avatar_quest_3AFC_legacy,2022.1.3,Win32,59.88023952,5f0fab5abdec9a1aff2b2744,62bca317d87d479cda00ba3d,6706be4208493754f3d16bee,,,,,,,,,,,,,,,,,,,,,,,,,,,,,,0,0,0,0,1,,,,,,,,,,,,,,,,,,,,,,,,,,,,,,,,,,,,,,,,,,,
,,,,,,,,,,,,5f0fab5abdec9a1aff2b2744,001,3,2024-10-09_12h36.23.466,avatar_quest_3AFC_legacy,2022.1.3,Win32,59.88023952,5f0fab5abdec9a1aff2b2744,62bca317d87d479cda00ba3d,6706be4208493754f3d16bee,,,,,,,,,,,,,,,,,,,,,,With Brainslug Difficult 2 No Money,12,images/assets/snowy_original.jpg,learning,20,images/assets/success.jpg,images/assets/gameover.jpg,,,,,,,,With Brainslug Difficult 1 No Money,With Brainslug Difficult 1 No Money,left,1.7468,"[""With Brainslug Difficult 2 No Money"",""With Brainslug Difficult 2 With Money""]",0,0,0,3,1,,,,,,,,,,,,,,,,,,,,,,,,,,,,,,,,
,,,,,,,,,,,,5f0fab5abdec9a1aff2b2744,001,3,2024-10-09_12h36.23.466,avatar_quest_3AFC_legacy,2022.1.3,Win32,59.88023952,5f0fab5abdec9a1aff2b2744,62bca317d87d479cda00ba3d,6706be4208493754f3d16bee,,,,,,,,,,,,,,,,,,,,,,With Brainslug No Barriers With Money,0,images/assets/snowy_money.jpg,learning,10,images/assets/success_money.jpg,images/assets/gameover.jpg,,,,,,,,,,,,,0,1,1,4,1,,,,,,,,,,,,,,,,,,,,,,,,,,,,,,,,
,,,,,,,,,,,,5f0fab5abdec9a1aff2b2744,001,3,2024-10-09_12h36.23.466,avatar_quest_3AFC_legacy,2022.1.3,Win32,59.88023952,5f0fab5abdec9a1aff2b2744,62bca317d87d479cda00ba3d,6706be4208493754f3d16bee,,,,,,,,,,,,,,,,,,,,,,With Brainslug No Barriers No Money,0,images/assets/snowy_original.jpg,learning,10,images/assets/success.jpg,images/assets/gameover.jpg,,,,,,,,,,,,,0,2,2,5,1,,,,,,,,,,,,,,,,,,,,,,,,,,,,,,,,
,,,,,,,,,,,,5f0fab5abdec9a1aff2b2744,001,3,2024-10-09_12h36.23.466,avatar_quest_3AFC_legacy,2022.1.3,Win32,59.88023952,5f0fab5abdec9a1aff2b2744,62bca317d87d479cda00ba3d,6706be4208493754f3d16bee,"[""left"",""left"",""right"",""right"",""right"",""left"",""left"",""right"",""right"",""right"",""right"",""left"",""down"",""down"",""down"",""down"",""left"",""down"",""right"",""left"",""down"",""left"",""down"",""right"",""down"",""down"",""left"",""right"",""left"",""down""]","[0.778599999994043,1.0955000000000155,1.3149999999999977,1.629399999998526,1.795899999998511,2.012500000000017,2.413399999998518,2.63019999999554,2.8510999999940623,3.030299999997027,3.2990999999940414,3.4140000000000157,3.564699999995554,3.881699999995533,4.131199999995545,4.387099999994064,4.58250000000001,4.948899999998531,5.203000000000003,5.4495000000000005,5.783399999998522,5.971000000000004,6.183799999997035,6.419000000000011,6.618299999997021,6.985599999994037,7.123099999994054,7.485399999998521,7.635199999995535,7.752599999994061]",,calibration,With Brainslug Difficult 1 No Money,4,7.9348,7.941,5,3,0,FALSE,na,na,na,na,,,,,,,,,,,,,,,,,,,,,,,,,,,,,,,,,,0,0,0,0,1,,,,,,,,,,,,,,,,,,,,,,,
,,,,,,,,,,,,5f0fab5abdec9a1aff2b2744,001,3,2024-10-09_12h36.23.466,avatar_quest_3AFC_legacy,2022.1.3,Win32,59.88023952,5f0fab5abdec9a1aff2b2744,62bca317d87d479cda00ba3d,6706be4208493754f3d16bee,,,,,,,,,,,,,,,,,,,,,,With Brainslug Difficult 1 No Money,6,images/assets/snowy_original.jpg,learning,20,images/assets/success.jpg,images/assets/gameover.jpg,,,,,,,,,,,,,0,3,3,1,1,,,,,,,,,,,,,,,,,,,,,,,,,,,,,,,,
,,,,,,,,,,,,5f0fab5abdec9a1aff2b2744,001,3,2024-10-09_12h36.23.466,avatar_quest_3AFC_legacy,2022.1.3,Win32,59.88023952,5f0fab5abdec9a1aff2b2744,62bca317d87d479cda00ba3d,6706be4208493754f3d16bee,,,,,,,,,,,,,,,,,,,,,,No Brainslug No Barriers No Money,0,images/assets/snowy_original.jpg,learning,10,images/assets/success.jpg,images/assets/gameover.jpg,,,,,,,,,,,,,0,4,4,10,1,,,,,,,,,,,,,,,,,,,,,,,,,,,,,,,,
,,,,,,,,,,,,5f0fab5abdec9a1aff2b2744,001,3,2024-10-09_12h36.23.466,avatar_quest_3AFC_legacy,2022.1.3,Win32,59.88023952,5f0fab5abdec9a1aff2b2744,62bca317d87d479cda00ba3d,6706be4208493754f3d16bee,,,,,,,,,,,,,,,,,,,,,,No Brainslug No Barriers With Money,0,images/assets/snowy_money.jpg,learning,10,images/assets/success_money.jpg,images/assets/gameover.jpg,,,,,,,,,,,,,0,5,5,9,1,,,,,,,,,,,,,,,,,,,,,,,,,,,,,,,,
,,,,,,,,,,,,5f0fab5abdec9a1aff2b2744,001,3,2024-10-09_12h36.23.466,avatar_quest_3AFC_legacy,2022.1.3,Win32,59.88023952,5f0fab5abdec9a1aff2b2744,62bca317d87d479cda00ba3d,6706be4208493754f3d16bee,,,,,,,,,,,,,,,,,,,,,,No Brainslug Difficult 1 No Money,6,images/assets/snowy_original.jpg,learning,20,images/assets/success.jpg,images/assets/gameover.jpg,,,,,,,,,,,,,0,6,6,6,1,,,,,,,,,,,,,,,,,,,,,,,,,,,,,,,,
,,,,,,,,,,,,5f0fab5abdec9a1aff2b2744,001,3,2024-10-09_12h36.23.466,avatar_quest_3AFC_legacy,2022.1.3,Win32,59.88023952,5f0fab5abdec9a1aff2b2744,62bca317d87d479cda00ba3d,6706be4208493754f3d16bee,,,,,,,,,,,,,,,,,,,,,,With Brainslug Difficult 1 With Money,6,images/assets/snowy_money.jpg,learning,20,images/assets/success_money.jpg,images/assets/gameover.jpg,,,,,,,,,,,,,0,7,7,0,1,,,,,,,,,,,,,,,,,,,,,,,,,,,,,,,,
,,,,,,,,,,,,5f0fab5abdec9a1aff2b2744,001,3,2024-10-09_12h36.23.466,avatar_quest_3AFC_legacy,2022.1.3,Win32,59.88023952,5f0fab5abdec9a1aff2b2744,62bca317d87d479cda00ba3d,6706be4208493754f3d16bee,,,,,,,,,,,,,,,,,,,,,,No Brainslug Difficult 2 No Money,12,images/assets/snowy_original.jpg,learning,20,images/assets/success.jpg,images/assets/gameover.jpg,,,,,,,,,,,,,0,8,8,8,1,,,,,,,,,,,,,,,,,,,,,,,,,,,,,,,,
,,,,,,,,,,,,5f0fab5abdec9a1aff2b2744,001,3,2024-10-09_12h36.23.466,avatar_quest_3AFC_legacy,2022.1.3,Win32,59.88023952,5f0fab5abdec9a1aff2b2744,62bca317d87d479cda00ba3d,6706be4208493754f3d16bee,,,,,,,,,,,,,,,,,,,,,,With Brainslug Difficult 2 With Money,12,images/assets/snowy_money.jpg,learning,20,images/assets/success_money.jpg,images/assets/gameover.jpg,,,,,,,,,,,,,0,9,9,2,1,,,,,,,,,,,,,,,,,,,,,,,,,,,,,,,,
,,,,,,,,,,,,5f0fab5abdec9a1aff2b2744,001,3,2024-10-09_12h36.23.466,avatar_quest_3AFC_legacy,2022.1.3,Win32,59.88023952,5f0fab5abdec9a1aff2b2744,62bca317d87d479cda00ba3d,6706be4208493754f3d16bee,,,,,,,,,,,,,,,,,,,,,,No Brainslug Difficult 2 With Money,12,images/assets/snowy_money.jpg,learning,20,images/assets/success_money.jpg,images/assets/gameover.jpg,,,,,,,,,,,,,0,10,10,7,1,,,,,,,,,,,,,,,,,,,,,,,,,,,,,,,,
,,,,,,,,,,,,5f0fab5abdec9a1aff2b2744,001,3,2024-10-09_12h36.23.466,avatar_quest_3AFC_legacy,2022.1.3,Win32,59.88023952,5f0fab5abdec9a1aff2b2744,62bca317d87d479cda00ba3d,6706be4208493754f3d16bee,,,,,,,,,,,,,,,,,,,,,,,,,,,,,,,,,,,,,,,,,,,,,,,,,,,,,,,0,0,0,0,1,,,,,,,,,,,,,,,,,,
,,,,,,,,,,,,5f0fab5abdec9a1aff2b2744,001,3,2024-10-09_12h36.23.466,avatar_quest_3AFC_legacy,2022.1.3,Win32,59.88023952,5f0fab5abdec9a1aff2b2744,62bca317d87d479cda00ba3d,6706be4208493754f3d16bee,,,,,,,,,,,,,,,,,,,,,,No Brainslug No Barriers No Money,0,images/assets/snowy_original.jpg,learning,10,images/assets/success.jpg,images/assets/gameover.jpg,,,,,,,,With Brainslug Difficult 2 With Money,With Brainslug Difficult 1 No Money,right,3.1654,"[""With Brainslug Difficult 1 No Money"",""With Brainslug Difficult 2 No Money""]",0,0,0,10,1,,,,,,,,,,,,,,,,,,,,,,,,,,,,,,,,
,,,,,,,,,,,,5f0fab5abdec9a1aff2b2744,001,3,2024-10-09_12h36.23.466,avatar_quest_3AFC_legacy,2022.1.3,Win32,59.88023952,5f0fab5abdec9a1aff2b2744,62bca317d87d479cda00ba3d,6706be4208493754f3d16bee,,,,,,,,,,,,,,,,,,,,,,No Brainslug Difficult 1 No Money,6,images/assets/snowy_original.jpg,learning,20,images/assets/success.jpg,images/assets/gameover.jpg,,,,,,,,,,,,,0,1,1,6,1,,,,,,,,,,,,,,,,,,,,,,,,,,,,,,,,
,,,,,,,,,,,,5f0fab5abdec9a1aff2b2744,001,3,2024-10-09_12h36.23.466,avatar_quest_3AFC_legacy,2022.1.3,Win32,59.88023952,5f0fab5abdec9a1aff2b2744,62bca317d87d479cda00ba3d,6706be4208493754f3d16bee,,,,,,,,,,,,,,,,,,,,,,With Brainslug Difficult 1 With Money,6,images/assets/snowy_money.jpg,learning,20,images/assets/success_money.jpg,images/assets/gameover.jpg,,,,,,,,,,,,,0,2,2,0,1,,,,,,,,,,,,,,,,,,,,,,,,,,,,,,,,
,,,,,,,,,,,,5f0fab5abdec9a1aff2b2744,001,3,2024-10-09_12h36.23.466,avatar_quest_3AFC_legacy,2022.1.3,Win32,59.88023952,5f0fab5abdec9a1aff2b2744,62bca317d87d479cda00ba3d,6706be4208493754f3d16bee,,,,,,,,,,,,,,,,,,,,,,With Brainslug Difficult 1 No Money,6,images/assets/snowy_original.jpg,learning,20,images/assets/success.jpg,images/assets/gameover.jpg,,,,,,,,,,,,,0,3,3,1,1,,,,,,,,,,,,,,,,,,,,,,,,,,,,,,,,
,,,,,,,,,,,,5f0fab5abdec9a1aff2b2744,001,3,2024-10-09_12h36.23.466,avatar_quest_3AFC_legacy,2022.1.3,Win32,59.88023952,5f0fab5abdec9a1aff2b2744,62bca317d87d479cda00ba3d,6706be4208493754f3d16bee,,,,,,,,,,,,,,,,,,,,,,With Brainslug Difficult 2 No Money,12,images/assets/snowy_original.jpg,learning,20,images/assets/success.jpg,images/assets/gameover.jpg,,,,,,,,,,,,,0,4,4,3,1,,,,,,,,,,,,,,,,,,,,,,,,,,,,,,,,
,,,,,,,,,,,,5f0fab5abdec9a1aff2b2744,001,3,2024-10-09_12h36.23.466,avatar_quest_3AFC_legacy,2022.1.3,Win32,59.88023952,5f0fab5abdec9a1aff2b2744,62bca317d87d479cda00ba3d,6706be4208493754f3d16bee,"[""left"",""left"",""right"",""down"",""left"",""left"",""down"",""right"",""right"",""right"",""right"",""right"",""left"",""left"",""right"",""right"",""right"",""left"",""right"",""left"",""left"",""left"",""right"",""left"",""right"",""right"",""right"",""right"",""down""]","[0.4676000000015108,0.8177000000029864,1.0552999999970325,1.2350000000000136,1.601399999998506,1.9192999999970368,2.052500000000009,2.16889999999853,2.591299999997034,2.8530000000000086,3.039299999997013,3.270200000003001,3.4072999999970364,3.8552999999970154,4.054399999998509,4.320700000003001,4.471000000000004,4.623200000002981,5.039299999997013,5.189200000002984,5.62229999999704,5.823299999997033,6.079200000002999,6.239399999998511,6.559399999998504,6.789899999998511,6.97529999999702,7.190100000001507,7.574200000002975]",,calibration,With Brainslug Difficult 2 With Money,5,7.9348,7.9413,10,5,0,FALSE,na,na,na,na,,,,,,,,,,,,,,,,,,,,,,,,,,,,,,,,,,0,0,0,0,1,,,,,,,,,,,,,,,,,,,,,,,
,,,,,,,,,,,,5f0fab5abdec9a1aff2b2744,001,3,2024-10-09_12h36.23.466,avatar_quest_3AFC_legacy,2022.1.3,Win32,59.88023952,5f0fab5abdec9a1aff2b2744,62bca317d87d479cda00ba3d,6706be4208493754f3d16bee,,,,,,,,,,,,,,,,,,,,,,With Brainslug Difficult 2 With Money,12,images/assets/snowy_money.jpg,learning,20,images/assets/success_money.jpg,images/assets/gameover.jpg,,,,,,,,,,,,,0,5,5,2,1,,,,,,,,,,,,,,,,,,,,,,,,,,,,,,,,
,,,,,,,,,,,,5f0fab5abdec9a1aff2b2744,001,3,2024-10-09_12h36.23.466,avatar_quest_3AFC_legacy,2022.1.3,Win32,59.88023952,5f0fab5abdec9a1aff2b2744,62bca317d87d479cda00ba3d,6706be4208493754f3d16bee,,,,,,,,,,,,,,,,,,,,,,No Brainslug Difficult 2 No Money,12,images/assets/snowy_original.jpg,learning,20,images/assets/success.jpg,images/assets/gameover.jpg,,,,,,,,,,,,,0,6,6,8,1,,,,,,,,,,,,,,,,,,,,,,,,,,,,,,,,
,,,,,,,,,,,,5f0fab5abdec9a1aff2b2744,001,3,2024-10-09_12h36.23.466,avatar_quest_3AFC_legacy,2022.1.3,Win32,59.88023952,5f0fab5abdec9a1aff2b2744,62bca317d87d479cda00ba3d,6706be4208493754f3d16bee,,,,,,,,,,,,,,,,,,,,,,With Brainslug No Barriers No Money,0,images/assets/snowy_original.jpg,learning,10,images/assets/success.jpg,images/assets/gameover.jpg,,,,,,,,,,,,,0,7,7,5,1,,,,,,,,,,,,,,,,,,,,,,,,,,,,,,,,
,,,,,,,,,,,,5f0fab5abdec9a1aff2b2744,001,3,2024-10-09_12h36.23.466,avatar_quest_3AFC_legacy,2022.1.3,Win32,59.88023952,5f0fab5abdec9a1aff2b2744,62bca317d87d479cda00ba3d,6706be4208493754f3d16bee,,,,,,,,,,,,,,,,,,,,,,With Brainslug No Barriers With Money,0,images/assets/snowy_money.jpg,learning,10,images/assets/success_money.jpg,images/assets/gameover.jpg,,,,,,,,,,,,,0,8,8,4,1,,,,,,,,,,,,,,,,,,,,,,,,,,,,,,,,
,,,,,,,,,,,,5f0fab5abdec9a1aff2b2744,001,3,2024-10-09_12h36.23.466,avatar_quest_3AFC_legacy,2022.1.3,Win32,59.88023952,5f0fab5abdec9a1aff2b2744,62bca317d87d479cda00ba3d,6706be4208493754f3d16bee,,,,,,,,,,,,,,,,,,,,,,No Brainslug No Barriers With Money,0,images/assets/snowy_money.jpg,learning,10,images/assets/success_money.jpg,images/assets/gameover.jpg,,,,,,,,,,,,,0,9,9,9,1,,,,,,,,,,,,,,,,,,,,,,,,,,,,,,,,
,,,,,,,,,,,,5f0fab5abdec9a1aff2b2744,001,3,2024-10-09_12h36.23.466,avatar_quest_3AFC_legacy,2022.1.3,Win32,59.88023952,5f0fab5abdec9a1aff2b2744,62bca317d87d479cda00ba3d,6706be4208493754f3d16bee,,,,,,,,,,,,,,,,,,,,,,No Brainslug Difficult 2 With Money,12,images/assets/snowy_money.jpg,learning,20,images/assets/success_money.jpg,images/assets/gameover.jpg,,,,,,,,,,,,,0,10,10,7,1,,,,,,,,,,,,,,,,,,,,,,,,,,,,,,,,
,,,,,,,,,,,,5f0fab5abdec9a1aff2b2744,001,3,2024-10-09_12h36.23.466,avatar_quest_3AFC_legacy,2022.1.3,Win32,59.88023952,5f0fab5abdec9a1aff2b2744,62bca317d87d479cda00ba3d,6706be4208493754f3d16bee,,,,,,,,,,,,,,,,,,,,,,,,,,,,,,,,,,,,,,,,,,,,,,,,,,,,,,,1,0,1,0,1,,,,,,,,,,,,,,,,,,
,,,,,,,,,,,,5f0fab5abdec9a1aff2b2744,001,3,2024-10-09_12h36.23.466,avatar_quest_3AFC_legacy,2022.1.3,Win32,59.88023952,5f0fab5abdec9a1aff2b2744,62bca317d87d479cda00ba3d,6706be4208493754f3d16bee,,,,,,,,,,,,,,,,,,,,,,With Brainslug Difficult 1 With Money,6,images/assets/snowy_money.jpg,learning,20,images/assets/success_money.jpg,images/assets/gameover.jpg,,,,,,,,With Brainslug Difficult 2 No Money,With Brainslug Difficult 1 No Money,down,0.1559,"[""With Brainslug Difficult 1 No Money"",""With Brainslug Difficult 2 With Money""]",0,0,0,0,1,,,,,,,,,,,,,,,,,,,,,,,,,,,,,,,,
,,,,,,,,,,,,5f0fab5abdec9a1aff2b2744,001,3,2024-10-09_12h36.23.466,avatar_quest_3AFC_legacy,2022.1.3,Win32,59.88023952,5f0fab5abdec9a1aff2b2744,62bca317d87d479cda00ba3d,6706be4208493754f3d16bee,,,,,,,,,,,,,,,,,,,,,,No Brainslug Difficult 2 With Money,12,images/assets/snowy_money.jpg,learning,20,images/assets/success_money.jpg,images/assets/gameover.jpg,,,,,,,,,,,,,0,1,1,7,1,,,,,,,,,,,,,,,,,,,,,,,,,,,,,,,,
,,,,,,,,,,,,5f0fab5abdec9a1aff2b2744,001,3,2024-10-09_12h36.23.466,avatar_quest_3AFC_legacy,2022.1.3,Win32,59.88023952,5f0fab5abdec9a1aff2b2744,62bca317d87d479cda00ba3d,6706be4208493754f3d16bee,,,,,,,,,,,,,,,,,,,,,,No Brainslug No Barriers No Money,0,images/assets/snowy_original.jpg,learning,10,images/assets/success.jpg,images/assets/gameover.jpg,,,,,,,,,,,,,0,2,2,10,1,,,,,,,,,,,,,,,,,,,,,,,,,,,,,,,,
,,,,,,,,,,,,5f0fab5abdec9a1aff2b2744,001,3,2024-10-09_12h36.23.466,avatar_quest_3AFC_legacy,2022.1.3,Win32,59.88023952,5f0fab5abdec9a1aff2b2744,62bca317d87d479cda00ba3d,6706be4208493754f3d16bee,,,,,,,,,,,,,,,,,,,,,,With Brainslug No Barriers No Money,0,images/assets/snowy_original.jpg,learning,10,images/assets/success.jpg,images/assets/gameover.jpg,,,,,,,,,,,,,0,3,3,5,1,,,,,,,,,,,,,,,,,,,,,,,,,,,,,,,,
,,,,,,,,,,,,5f0fab5abdec9a1aff2b2744,001,3,2024-10-09_12h36.23.466,avatar_quest_3AFC_legacy,2022.1.3,Win32,59.88023952,5f0fab5abdec9a1aff2b2744,62bca317d87d479cda00ba3d,6706be4208493754f3d16bee,,,,,,,,,,,,,,,,,,,,,,With Brainslug No Barriers With Money,0,images/assets/snowy_money.jpg,learning,10,images/assets/success_money.jpg,images/assets/gameover.jpg,,,,,,,,,,,,,0,4,4,4,1,,,,,,,,,,,,,,,,,,,,,,,,,,,,,,,,
,,,,,,,,,,,,5f0fab5abdec9a1aff2b2744,001,3,2024-10-09_12h36.23.466,avatar_quest_3AFC_legacy,2022.1.3,Win32,59.88023952,5f0fab5abdec9a1aff2b2744,62bca317d87d479cda00ba3d,6706be4208493754f3d16bee,,,,,,,,,,,,,,,,,,,,,,With Brainslug Difficult 2 With Money,12,images/assets/snowy_money.jpg,learning,20,images/assets/success_money.jpg,images/assets/gameover.jpg,,,,,,,,,,,,,0,5,5,2,1,,,,,,,,,,,,,,,,,,,,,,,,,,,,,,,,
,,,,,,,,,,,,5f0fab5abdec9a1aff2b2744,001,3,2024-10-09_12h36.23.466,avatar_quest_3AFC_legacy,2022.1.3,Win32,59.88023952,5f0fab5abdec9a1aff2b2744,62bca317d87d479cda00ba3d,6706be4208493754f3d16bee,,,,,,,,,,,,,,,,,,,,,,With Brainslug Difficult 1 No Money,6,images/assets/snowy_original.jpg,learning,20,images/assets/success.jpg,images/assets/gameover.jpg,,,,,,,,,,,,,0,6,6,1,1,,,,,,,,,,,,,,,,,,,,,,,,,,,,,,,,
,,,,,,,,,,,,5f0fab5abdec9a1aff2b2744,001,3,2024-10-09_12h36.23.466,avatar_quest_3AFC_legacy,2022.1.3,Win32,59.88023952,5f0fab5abdec9a1aff2b2744,62bca317d87d479cda00ba3d,6706be4208493754f3d16bee,,,,,,,,,,,,,,,,,,,,,,No Brainslug No Barriers With Money,0,images/assets/snowy_money.jpg,learning,10,images/assets/success_money.jpg,images/assets/gameover.jpg,,,,,,,,,,,,,0,7,7,9,1,,,,,,,,,,,,,,,,,,,,,,,,,,,,,,,,
,,,,,,,,,,,,5f0fab5abdec9a1aff2b2744,001,3,2024-10-09_12h36.23.466,avatar_quest_3AFC_legacy,2022.1.3,Win32,59.88023952,5f0fab5abdec9a1aff2b2744,62bca317d87d479cda00ba3d,6706be4208493754f3d16bee,,,,,,,,,,,,,,,,,,,,,,No Brainslug Difficult 1 No Money,6,images/assets/snowy_original.jpg,learning,20,images/assets/success.jpg,images/assets/gameover.jpg,,,,,,,,,,,,,0,8,8,6,1,,,,,,,,,,,,,,,,,,,,,,,,,,,,,,,,
,,,,,,,,,,,,5f0fab5abdec9a1aff2b2744,001,3,2024-10-09_12h36.23.466,avatar_quest_3AFC_legacy,2022.1.3,Win32,59.88023952,5f0fab5abdec9a1aff2b2744,62bca317d87d479cda00ba3d,6706be4208493754f3d16bee,,,,,,,,,,,,,,,,,,,,,,No Brainslug Difficult 2 No Money,12,images/assets/snowy_original.jpg,learning,20,images/assets/success.jpg,images/assets/gameover.jpg,,,,,,,,,,,,,0,9,9,8,1,,,,,,,,,,,,,,,,,,,,,,,,,,,,,,,,
,,,,,,,,,,,,5f0fab5abdec9a1aff2b2744,001,3,2024-10-09_12h36.23.466,avatar_quest_3AFC_legacy,2022.1.3,Win32,59.88023952,5f0fab5abdec9a1aff2b2744,62bca317d87d479cda00ba3d,6706be4208493754f3d16bee,"[""left"",""left"",""left"",""right"",""left"",""right"",""right"",""right"",""right"",""right"",""right"",""right"",""left"",""left"",""right"",""left"",""left"",""left"",""left"",""right"",""up"",""right"",""right"",""right"",""right"",""right"",""right"",""left"",""right""]","[0.4105000000000132,0.8611000000014997,1.578700000002982,1.8122000000030027,2.2123000000044897,2.5129000000059705,2.779600000001494,2.946700000002977,3.1302000000029864,3.2971000000015067,3.564200000002984,3.747700000002993,4.197900000005973,4.398600000001494,4.398800000004485,4.765200000002977,4.915500000000009,5.031800000004495,5.249200000002986,5.5330000000000155,5.69960000000151,5.966600000001506,6.232700000002978,6.383100000001491,6.583600000001496,6.833900000005968,7.117500000000007,7.401100000001492,7.918500000000023]",,calibration,With Brainslug Difficult 2 No Money,6,7.9348,7.9495,13,5,0,FALSE,na,na,na,na,,,,,,,,,,,,,,,,,,,,,,,,,,,,,,,,,,0,0,0,0,1,,,,,,,,,,,,,,,,,,,,,,,
,,,,,,,,,,,,5f0fab5abdec9a1aff2b2744,001,3,2024-10-09_12h36.23.466,avatar_quest_3AFC_legacy,2022.1.3,Win32,59.88023952,5f0fab5abdec9a1aff2b2744,62bca317d87d479cda00ba3d,6706be4208493754f3d16bee,,,,,,,,,,,,,,,,,,,,,,With Brainslug Difficult 2 No Money,12,images/assets/snowy_original.jpg,learning,20,images/assets/success.jpg,images/assets/gameover.jpg,,,,,,,,,,,,,0,10,10,3,1,,,,,,,,,,,,,,,,,,,,,,,,,,,,,,,,
,,,,,,,,,,,,5f0fab5abdec9a1aff2b2744,001,3,2024-10-09_12h36.23.466,avatar_quest_3AFC_legacy,2022.1.3,Win32,59.88023952,5f0fab5abdec9a1aff2b2744,62bca317d87d479cda00ba3d,6706be4208493754f3d16bee,,,,,,,,,,,,,,,,,,,,,,,,,,,,,,,,,,,,,,,,,,,,,,,,,,,,,,,2,0,2,0,1,,,,,,,,,,,,,,,,,,
,,,,,,,,,,,,5f0fab5abdec9a1aff2b2744,001,3,2024-10-09_12h36.23.466,avatar_quest_3AFC_legacy,2022.1.3,Win32,59.88023952,5f0fab5abdec9a1aff2b2744,62bca317d87d479cda00ba3d,6706be4208493754f3d16bee,,,,,,,,,,,,,,,,,,,,,,With Brainslug No Barriers With Money,0,images/assets/snowy_money.jpg,learning,10,images/assets/success_money.jpg,images/assets/gameover.jpg,,,,,,,,With Brainslug Difficult 2 No Money,With Brainslug Difficult 1 No Money,down,1.359,"[""With Brainslug Difficult 1 No Money"",""With Brainslug Difficult 2 With Money""]",0,0,0,4,1,,,,,,,,,,,,,,,,,,,,,,,,,,,,,,,,
,,,,,,,,,,,,5f0fab5abdec9a1aff2b2744,001,3,2024-10-09_12h36.23.466,avatar_quest_3AFC_legacy,2022.1.3,Win32,59.88023952,5f0fab5abdec9a1aff2b2744,62bca317d87d479cda00ba3d,6706be4208493754f3d16bee,,,,,,,,,,,,,,,,,,,,,,With Brainslug Difficult 1 With Money,6,images/assets/snowy_money.jpg,learning,20,images/assets/success_money.jpg,images/assets/gameover.jpg,,,,,,,,,,,,,0,1,1,0,1,,,,,,,,,,,,,,,,,,,,,,,,,,,,,,,,
,,,,,,,,,,,,5f0fab5abdec9a1aff2b2744,001,3,2024-10-09_12h36.23.466,avatar_quest_3AFC_legacy,2022.1.3,Win32,59.88023952,5f0fab5abdec9a1aff2b2744,62bca317d87d479cda00ba3d,6706be4208493754f3d16bee,,,,,,,,,,,,,,,,,,,,,,With Brainslug Difficult 2 With Money,12,images/assets/snowy_money.jpg,learning,20,images/assets/success_money.jpg,images/assets/gameover.jpg,,,,,,,,,,,,,0,2,2,2,1,,,,,,,,,,,,,,,,,,,,,,,,,,,,,,,,
,,,,,,,,,,,,5f0fab5abdec9a1aff2b2744,001,3,2024-10-09_12h36.23.466,avatar_quest_3AFC_legacy,2022.1.3,Win32,59.88023952,5f0fab5abdec9a1aff2b2744,62bca317d87d479cda00ba3d,6706be4208493754f3d16bee,,,,,,,,,,,,,,,,,,,,,,With Brainslug No Barriers No Money,0,images/assets/snowy_original.jpg,learning,10,images/assets/success.jpg,images/assets/gameover.jpg,,,,,,,,,,,,,0,3,3,5,1,,,,,,,,,,,,,,,,,,,,,,,,,,,,,,,,
,,,,,,,,,,,,5f0fab5abdec9a1aff2b2744,001,3,2024-10-09_12h36.23.466,avatar_quest_3AFC_legacy,2022.1.3,Win32,59.88023952,5f0fab5abdec9a1aff2b2744,62bca317d87d479cda00ba3d,6706be4208493754f3d16bee,,,,,,,,,,,,,,,,,,,,,,No Brainslug No Barriers No Money,0,images/assets/snowy_original.jpg,learning,10,images/assets/success.jpg,images/assets/gameover.jpg,,,,,,,,,,,,,0,4,4,10,1,,,,,,,,,,,,,,,,,,,,,,,,,,,,,,,,
,,,,,,,,,,,,5f0fab5abdec9a1aff2b2744,001,3,2024-10-09_12h36.23.466,avatar_quest_3AFC_legacy,2022.1.3,Win32,59.88023952,5f0fab5abdec9a1aff2b2744,62bca317d87d479cda00ba3d,6706be4208493754f3d16bee,,,,,,,,,,,,,,,,,,,,,,No Brainslug Difficult 2 With Money,12,images/assets/snowy_money.jpg,learning,20,images/assets/success_money.jpg,images/assets/gameover.jpg,,,,,,,,,,,,,0,5,5,7,1,,,,,,,,,,,,,,,,,,,,,,,,,,,,,,,,
,,,,,,,,,,,,5f0fab5abdec9a1aff2b2744,001,3,2024-10-09_12h36.23.466,avatar_quest_3AFC_legacy,2022.1.3,Win32,59.88023952,5f0fab5abdec9a1aff2b2744,62bca317d87d479cda00ba3d,6706be4208493754f3d16bee,,,,,,,,,,,,,,,,,,,,,,No Brainslug No Barriers With Money,0,images/assets/snowy_money.jpg,learning,10,images/assets/success_money.jpg,images/assets/gameover.jpg,,,,,,,,,,,,,0,6,6,9,1,,,,,,,,,,,,,,,,,,,,,,,,,,,,,,,,
,,,,,,,,,,,,5f0fab5abdec9a1aff2b2744,001,3,2024-10-09_12h36.23.466,avatar_quest_3AFC_legacy,2022.1.3,Win32,59.88023952,5f0fab5abdec9a1aff2b2744,62bca317d87d479cda00ba3d,6706be4208493754f3d16bee,"[""right"",""left"",""left"",""left"",""left"",""left"",""left"",""right"",""right"",""right"",""right"",""right"",""right"",""right"",""right"",""left"",""left"",""left"",""left"",""up"",""left"",""left"",""right"",""left"",""left"",""left"",""left"",""left"",""left"",""right"",""right"",""right"",""right"",""right"",""right"",""left"",""left"",""left"",""left"",""left""]","[0.3661000000014951,0.6493000000044731,1.1836000000014906,1.3504000000059477,1.6175000000000068,1.9009000000059473,2.067900000005949,2.3015000000000043,2.485100000001495,2.635200000002982,2.7682000000029916,2.8855000000000075,3.0353000000044688,3.1521000000014965,3.2523000000044817,3.4691000000014753,3.6362000000029866,3.869300000004472,4.003100000001496,4.269499999999994,4.436700000002986,4.72020000000299,4.970600000001497,5.070700000002972,5.287600000001476,5.487500000000011,5.6544999999999845,5.821499999999986,5.955200000002975,6.272100000001501,6.455400000005966,6.622300000004458,6.756300000004472,6.922700000002976,7.106400000005948,7.256300000004472,7.506300000004472,7.639900000005952,7.756400000005954,7.890100000001496]",,calibration,With Brainslug Difficult 2 No Money,7,7.9348,7.9494,17,7,0,FALSE,na,na,na,na,,,,,,,,,,,,,,,,,,,,,,,,,,,,,,,,,,0,0,0,0,1,,,,,,,,,,,,,,,,,,,,,,,
,,,,,,,,,,,,5f0fab5abdec9a1aff2b2744,001,3,2024-10-09_12h36.23.466,avatar_quest_3AFC_legacy,2022.1.3,Win32,59.88023952,5f0fab5abdec9a1aff2b2744,62bca317d87d479cda00ba3d,6706be4208493754f3d16bee,,,,,,,,,,,,,,,,,,,,,,With Brainslug Difficult 2 No Money,12,images/assets/snowy_original.jpg,learning,20,images/assets/success.jpg,images/assets/gameover.jpg,,,,,,,,,,,,,0,7,7,3,1,,,,,,,,,,,,,,,,,,,,,,,,,,,,,,,,
,,,,,,,,,,,,5f0fab5abdec9a1aff2b2744,001,3,2024-10-09_12h36.23.466,avatar_quest_3AFC_legacy,2022.1.3,Win32,59.88023952,5f0fab5abdec9a1aff2b2744,62bca317d87d479cda00ba3d,6706be4208493754f3d16bee,,,,,,,,,,,,,,,,,,,,,,With Brainslug Difficult 1 No Money,6,images/assets/snowy_original.jpg,learning,20,images/assets/success.jpg,images/assets/gameover.jpg,,,,,,,,,,,,,0,8,8,1,1,,,,,,,,,,,,,,,,,,,,,,,,,,,,,,,,
,,,,,,,,,,,,5f0fab5abdec9a1aff2b2744,001,3,2024-10-09_12h36.23.466,avatar_quest_3AFC_legacy,2022.1.3,Win32,59.88023952,5f0fab5abdec9a1aff2b2744,62bca317d87d479cda00ba3d,6706be4208493754f3d16bee,,,,,,,,,,,,,,,,,,,,,,No Brainslug Difficult 1 No Money,6,images/assets/snowy_original.jpg,learning,20,images/assets/success.jpg,images/assets/gameover.jpg,,,,,,,,,,,,,0,9,9,6,1,,,,,,,,,,,,,,,,,,,,,,,,,,,,,,,,
,,,,,,,,,,,,5f0fab5abdec9a1aff2b2744,001,3,2024-10-09_12h36.23.466,avatar_quest_3AFC_legacy,2022.1.3,Win32,59.88023952,5f0fab5abdec9a1aff2b2744,62bca317d87d479cda00ba3d,6706be4208493754f3d16bee,,,,,,,,,,,,,,,,,,,,,,No Brainslug Difficult 2 No Money,12,images/assets/snowy_original.jpg,learning,20,images/assets/success.jpg,images/assets/gameover.jpg,,,,,,,,,,,,,0,10,10,8,1,,,,,,,,,,,,,,,,,,,,,,,,,,,,,,,,
,,,,,,,,,,,,5f0fab5abdec9a1aff2b2744,001,3,2024-10-09_12h36.23.466,avatar_quest_3AFC_legacy,2022.1.3,Win32,59.88023952,5f0fab5abdec9a1aff2b2744,62bca317d87d479cda00ba3d,6706be4208493754f3d16bee,,,,,,,,,,,,,,,,,,,,,,,,,,,,,,,,,,,,,,,,,,,,,,,,,,,,,,,3,0,3,0,1,,,,,,,,,,,,,,,,,,
,,,,,,,,,,,,5f0fab5abdec9a1aff2b2744,001,3,2024-10-09_12h36.23.466,avatar_quest_3AFC_legacy,2022.1.3,Win32,59.88023952,5f0fab5abdec9a1aff2b2744,62bca317d87d479cda00ba3d,6706be4208493754f3d16bee,"[""left"",""left"",""right"",""left"",""left"",""left"",""right"",""right"",""left"",""right"",""right"",""right"",""right"",""left"",""left"",""left"",""left"",""left"",""left"",""left"",""left"",""left"",""left"",""left"",""left"",""left"",""left"",""up"",""left"",""left"",""right"",""left"",""right""]","[0.28739999999851307,0.4714999999999918,0.6552000000029921,1.055300000004479,1.2558000000044558,1.406700000002985,1.5395000000000039,1.7906000000014899,1.8894999999999982,2.0397000000029664,2.3063999999985185,2.4468000000044583,2.640100000001496,3.507399999998512,3.6628999999985012,3.907499999999999,4.046899999998516,4.20230000000447,4.325399999998496,4.478700000002988,4.775800000004466,4.942800000004468,5.092700000002992,5.230600000001488,5.3433000000044615,5.598600000001483,5.86099999999999,6.194300000004461,6.527800000004476,6.76670000000297,6.8951000000014915,7.3618999999985135,7.662600000001476]",,calibration,With Brainslug Difficult 2 With Money,8,7.9348,7.9409,15,5,0,FALSE,na,na,na,na,,,,,,,,,,,,,,,,,,,,With Brainslug Difficult 2 With Money,With Brainslug Difficult 1 No Money,right,0.7028,"[""With Brainslug Difficult 1 No Money"",""With Brainslug Difficult 2 No Money""]",,,,,,,,,,0,0,0,0,1,,,,,,,,,,,,,,,,,,,,,,,
,,,,,,,,,,,,5f0fab5abdec9a1aff2b2744,001,3,2024-10-09_12h36.23.466,avatar_quest_3AFC_legacy,2022.1.3,Win32,59.88023952,5f0fab5abdec9a1aff2b2744,62bca317d87d479cda00ba3d,6706be4208493754f3d16bee,,,,,,,,,,,,,,,,,,,,,,With Brainslug Difficult 2 With Money,12,images/assets/snowy_money.jpg,learning,20,images/assets/success_money.jpg,images/assets/gameover.jpg,,,,,,,,,,,,,0,0,0,2,1,,,,,,,,,,,,,,,,,,,,,,,,,,,,,,,,
,,,,,,,,,,,,5f0fab5abdec9a1aff2b2744,001,3,2024-10-09_12h36.23.466,avatar_quest_3AFC_legacy,2022.1.3,Win32,59.88023952,5f0fab5abdec9a1aff2b2744,62bca317d87d479cda00ba3d,6706be4208493754f3d16bee,,,,,,,,,,,,,,,,,,,,,,With Brainslug No Barriers With Money,0,images/assets/snowy_money.jpg,learning,10,images/assets/success_money.jpg,images/assets/gameover.jpg,,,,,,,,,,,,,0,1,1,4,1,,,,,,,,,,,,,,,,,,,,,,,,,,,,,,,,
,,,,,,,,,,,,5f0fab5abdec9a1aff2b2744,001,3,2024-10-09_12h36.23.466,avatar_quest_3AFC_legacy,2022.1.3,Win32,59.88023952,5f0fab5abdec9a1aff2b2744,62bca317d87d479cda00ba3d,6706be4208493754f3d16bee,,,,,,,,,,,,,,,,,,,,,,No Brainslug Difficult 2 With Money,12,images/assets/snowy_money.jpg,learning,20,images/assets/success_money.jpg,images/assets/gameover.jpg,,,,,,,,,,,,,0,2,2,7,1,,,,,,,,,,,,,,,,,,,,,,,,,,,,,,,,
,,,,,,,,,,,,5f0fab5abdec9a1aff2b2744,001,3,2024-10-09_12h36.23.466,avatar_quest_3AFC_legacy,2022.1.3,Win32,59.88023952,5f0fab5abdec9a1aff2b2744,62bca317d87d479cda00ba3d,6706be4208493754f3d16bee,,,,,,,,,,,,,,,,,,,,,,No Brainslug Difficult 1 No Money,6,images/assets/snowy_original.jpg,learning,20,images/assets/success.jpg,images/assets/gameover.jpg,,,,,,,,,,,,,0,3,3,6,1,,,,,,,,,,,,,,,,,,,,,,,,,,,,,,,,
,,,,,,,,,,,,5f0fab5abdec9a1aff2b2744,001,3,2024-10-09_12h36.23.466,avatar_quest_3AFC_legacy,2022.1.3,Win32,59.88023952,5f0fab5abdec9a1aff2b2744,62bca317d87d479cda00ba3d,6706be4208493754f3d16bee,,,,,,,,,,,,,,,,,,,,,,No Brainslug Difficult 2 No Money,12,images/assets/snowy_original.jpg,learning,20,images/assets/success.jpg,images/assets/gameover.jpg,,,,,,,,,,,,,0,4,4,8,1,,,,,,,,,,,,,,,,,,,,,,,,,,,,,,,,
,,,,,,,,,,,,5f0fab5abdec9a1aff2b2744,001,3,2024-10-09_12h36.23.466,avatar_quest_3AFC_legacy,2022.1.3,Win32,59.88023952,5f0fab5abdec9a1aff2b2744,62bca317d87d479cda00ba3d,6706be4208493754f3d16bee,,,,,,,,,,,,,,,,,,,,,,With Brainslug No Barriers No Money,0,images/assets/snowy_original.jpg,learning,10,images/assets/success.jpg,images/assets/gameover.jpg,,,,,,,,,,,,,0,5,5,5,1,,,,,,,,,,,,,,,,,,,,,,,,,,,,,,,,
,,,,,,,,,,,,5f0fab5abdec9a1aff2b2744,001,3,2024-10-09_12h36.23.466,avatar_quest_3AFC_legacy,2022.1.3,Win32,59.88023952,5f0fab5abdec9a1aff2b2744,62bca317d87d479cda00ba3d,6706be4208493754f3d16bee,,,,,,,,,,,,,,,,,,,,,,No Brainslug No Barriers With Money,0,images/assets/snowy_money.jpg,learning,10,images/assets/success_money.jpg,images/assets/gameover.jpg,,,,,,,,,,,,,0,6,6,9,1,,,,,,,,,,,,,,,,,,,,,,,,,,,,,,,,
,,,,,,,,,,,,5f0fab5abdec9a1aff2b2744,001,3,2024-10-09_12h36.23.466,avatar_quest_3AFC_legacy,2022.1.3,Win32,59.88023952,5f0fab5abdec9a1aff2b2744,62bca317d87d479cda00ba3d,6706be4208493754f3d16bee,,,,,,,,,,,,,,,,,,,,,,No Brainslug No Barriers No Money,0,images/assets/snowy_original.jpg,learning,10,images/assets/success.jpg,images/assets/gameover.jpg,,,,,,,,,,,,,0,7,7,10,1,,,,,,,,,,,,,,,,,,,,,,,,,,,,,,,,
,,,,,,,,,,,,5f0fab5abdec9a1aff2b2744,001,3,2024-10-09_12h36.23.466,avatar_quest_3AFC_legacy,2022.1.3,Win32,59.88023952,5f0fab5abdec9a1aff2b2744,62bca317d87d479cda00ba3d,6706be4208493754f3d16bee,,,,,,,,,,,,,,,,,,,,,,With Brainslug Difficult 1 No Money,6,images/assets/snowy_original.jpg,learning,20,images/assets/success.jpg,images/assets/gameover.jpg,,,,,,,,,,,,,0,8,8,1,1,,,,,,,,,,,,,,,,,,,,,,,,,,,,,,,,
,,,,,,,,,,,,5f0fab5abdec9a1aff2b2744,001,3,2024-10-09_12h36.23.466,avatar_quest_3AFC_legacy,2022.1.3,Win32,59.88023952,5f0fab5abdec9a1aff2b2744,62bca317d87d479cda00ba3d,6706be4208493754f3d16bee,,,,,,,,,,,,,,,,,,,,,,With Brainslug Difficult 2 No Money,12,images/assets/snowy_original.jpg,learning,20,images/assets/success.jpg,images/assets/gameover.jpg,,,,,,,,,,,,,0,9,9,3,1,,,,,,,,,,,,,,,,,,,,,,,,,,,,,,,,
,,,,,,,,,,,,5f0fab5abdec9a1aff2b2744,001,3,2024-10-09_12h36.23.466,avatar_quest_3AFC_legacy,2022.1.3,Win32,59.88023952,5f0fab5abdec9a1aff2b2744,62bca317d87d479cda00ba3d,6706be4208493754f3d16bee,,,,,,,,,,,,,,,,,,,,,,With Brainslug Difficult 1 With Money,6,images/assets/snowy_money.jpg,learning,20,images/assets/success_money.jpg,images/assets/gameover.jpg,,,,,,,,,,,,,0,10,10,0,1,,,,,,,,,,,,,,,,,,,,,,,,,,,,,,,,
,,,,,,,,,,,,5f0fab5abdec9a1aff2b2744,001,3,2024-10-09_12h36.23.466,avatar_quest_3AFC_legacy,2022.1.3,Win32,59.88023952,5f0fab5abdec9a1aff2b2744,62bca317d87d479cda00ba3d,6706be4208493754f3d16bee,,,,,,,,,,,,,,,,,,,,,,,,,,,,,,,,,,,,,,,,,,,,,,,,,,,,,,,4,0,4,0,1,,,,,,,,,,,,,,,,,,
,,,,,,,,,,,,5f0fab5abdec9a1aff2b2744,001,3,2024-10-09_12h36.23.466,avatar_quest_3AFC_legacy,2022.1.3,Win32,59.88023952,5f0fab5abdec9a1aff2b2744,62bca317d87d479cda00ba3d,6706be4208493754f3d16bee,,,,,,,,,,,,,,,,,,,,,,With Brainslug No Barriers No Money,0,images/assets/snowy_original.jpg,learning,10,images/assets/success.jpg,images/assets/gameover.jpg,,,,,,,,With Brainslug Difficult 1 No Money,With Brainslug Difficult 1 No Money,left,0.5662,"[""With Brainslug Difficult 2 No Money"",""With Brainslug Difficult 2 With Money""]",0,0,0,5,1,,,,,,,,,,,,,,,,,,,,,,,,,,,,,,,,
,,,,,,,,,,,,5f0fab5abdec9a1aff2b2744,001,3,2024-10-09_12h36.23.466,avatar_quest_3AFC_legacy,2022.1.3,Win32,59.88023952,5f0fab5abdec9a1aff2b2744,62bca317d87d479cda00ba3d,6706be4208493754f3d16bee,,,,,,,,,,,,,,,,,,,,,,No Brainslug Difficult 2 No Money,12,images/assets/snowy_original.jpg,learning,20,images/assets/success.jpg,images/assets/gameover.jpg,,,,,,,,,,,,,0,1,1,8,1,,,,,,,,,,,,,,,,,,,,,,,,,,,,,,,,
,,,,,,,,,,,,5f0fab5abdec9a1aff2b2744,001,3,2024-10-09_12h36.23.466,avatar_quest_3AFC_legacy,2022.1.3,Win32,59.88023952,5f0fab5abdec9a1aff2b2744,62bca317d87d479cda00ba3d,6706be4208493754f3d16bee,,,,,,,,,,,,,,,,,,,,,,With Brainslug Difficult 2 No Money,12,images/assets/snowy_original.jpg,learning,20,images/assets/success.jpg,images/assets/gameover.jpg,,,,,,,,,,,,,0,2,2,3,1,,,,,,,,,,,,,,,,,,,,,,,,,,,,,,,,
,,,,,,,,,,,,5f0fab5abdec9a1aff2b2744,001,3,2024-10-09_12h36.23.466,avatar_quest_3AFC_legacy,2022.1.3,Win32,59.88023952,5f0fab5abdec9a1aff2b2744,62bca317d87d479cda00ba3d,6706be4208493754f3d16bee,,,,,,,,,,,,,,,,,,,,,,No Brainslug No Barriers No Money,0,images/assets/snowy_original.jpg,learning,10,images/assets/success.jpg,images/assets/gameover.jpg,,,,,,,,,,,,,0,3,3,10,1,,,,,,,,,,,,,,,,,,,,,,,,,,,,,,,,
,,,,,,,,,,,,5f0fab5abdec9a1aff2b2744,001,3,2024-10-09_12h36.23.466,avatar_quest_3AFC_legacy,2022.1.3,Win32,59.88023952,5f0fab5abdec9a1aff2b2744,62bca317d87d479cda00ba3d,6706be4208493754f3d16bee,,,,,,,,,,,,,,,,,,,,,,No Brainslug No Barriers With Money,0,images/assets/snowy_money.jpg,learning,10,images/assets/success_money.jpg,images/assets/gameover.jpg,,,,,,,,,,,,,0,4,4,9,1,,,,,,,,,,,,,,,,,,,,,,,,,,,,,,,,
,,,,,,,,,,,,5f0fab5abdec9a1aff2b2744,001,3,2024-10-09_12h36.23.466,avatar_quest_3AFC_legacy,2022.1.3,Win32,59.88023952,5f0fab5abdec9a1aff2b2744,62bca317d87d479cda00ba3d,6706be4208493754f3d16bee,,,,,,,,,,,,,,,,,,,,,,No Brainslug Difficult 1 No Money,6,images/assets/snowy_original.jpg,learning,20,images/assets/success.jpg,images/assets/gameover.jpg,,,,,,,,,,,,,0,5,5,6,1,,,,,,,,,,,,,,,,,,,,,,,,,,,,,,,,
,,,,,,,,,,,,5f0fab5abdec9a1aff2b2744,001,3,2024-10-09_12h36.23.466,avatar_quest_3AFC_legacy,2022.1.3,Win32,59.88023952,5f0fab5abdec9a1aff2b2744,62bca317d87d479cda00ba3d,6706be4208493754f3d16bee,,,,,,,,,,,,,,,,,,,,,,No Brainslug Difficult 2 With Money,12,images/assets/snowy_money.jpg,learning,20,images/assets/success_money.jpg,images/assets/gameover.jpg,,,,,,,,,,,,,0,6,6,7,1,,,,,,,,,,,,,,,,,,,,,,,,,,,,,,,,
,,,,,,,,,,,,5f0fab5abdec9a1aff2b2744,001,3,2024-10-09_12h36.23.466,avatar_quest_3AFC_legacy,2022.1.3,Win32,59.88023952,5f0fab5abdec9a1aff2b2744,62bca317d87d479cda00ba3d,6706be4208493754f3d16bee,,,,,,,,,,,,,,,,,,,,,,With Brainslug No Barriers With Money,0,images/assets/snowy_money.jpg,learning,10,images/assets/success_money.jpg,images/assets/gameover.jpg,,,,,,,,,,,,,0,7,7,4,1,,,,,,,,,,,,,,,,,,,,,,,,,,,,,,,,
,,,,,,,,,,,,5f0fab5abdec9a1aff2b2744,001,3,2024-10-09_12h36.23.466,avatar_quest_3AFC_legacy,2022.1.3,Win32,59.88023952,5f0fab5abdec9a1aff2b2744,62bca317d87d479cda00ba3d,6706be4208493754f3d16bee,,,,,,,,,,,,,,,,,,,,,,With Brainslug Difficult 2 With Money,12,images/assets/snowy_money.jpg,learning,20,images/assets/success_money.jpg,images/assets/gameover.jpg,,,,,,,,,,,,,0,8,8,2,1,,,,,,,,,,,,,,,,,,,,,,,,,,,,,,,,
,,,,,,,,,,,,5f0fab5abdec9a1aff2b2744,001,3,2024-10-09_12h36.23.466,avatar_quest_3AFC_legacy,2022.1.3,Win32,59.88023952,5f0fab5abdec9a1aff2b2744,62bca317d87d479cda00ba3d,6706be4208493754f3d16bee,,,,,,,,,,,,,,,,,,,,,,With Brainslug Difficult 1 With Money,6,images/assets/snowy_money.jpg,learning,20,images/assets/success_money.jpg,images/assets/gameover.jpg,,,,,,,,,,,,,0,9,9,0,1,,,,,,,,,,,,,,,,,,,,,,,,,,,,,,,,
,,,,,,,,,,,,5f0fab5abdec9a1aff2b2744,001,3,2024-10-09_12h36.23.466,avatar_quest_3AFC_legacy,2022.1.3,Win32,59.88023952,5f0fab5abdec9a1aff2b2744,62bca317d87d479cda00ba3d,6706be4208493754f3d16bee,"[""left"",""right"",""up"",""left"",""left"",""left"",""up"",""up"",""up"",""up"",""down"",""down"",""down"",""down"",""left"",""left"",""left"",""left"",""left"",""left"",""right"",""right"",""right"",""right"",""right"",""right""]","[0.838899999998489,1.439199999995509,2.3572999999969966,2.9587999999970123,3.2787999999970054,3.491299999997011,4.094899999998489,4.292299999996999,4.446999999999974,4.609399999998487,4.926899999998483,5.127199999995526,5.326999999999998,5.493699999995528,5.662899999998501,5.89409999999404,6.046799999997006,6.210499999999996,6.361199999995506,6.511299999996993,6.830999999999989,7.078299999997,7.262899999998496,7.4625999999940404,7.64689999999851,7.879199999995507]",,calibration,With Brainslug Difficult 1 No Money,9,7.9348,7.9411,6,2,0,FALSE,na,na,na,na,,,,,,,,,,,,,,,,,,,,,,,,,,,,,,,,,,0,0,0,0,1,,,,,,,,,,,,,,,,,,,,,,,
,,,,,,,,,,,,5f0fab5abdec9a1aff2b2744,001,3,2024-10-09_12h36.23.466,avatar_quest_3AFC_legacy,2022.1.3,Win32,59.88023952,5f0fab5abdec9a1aff2b2744,62bca317d87d479cda00ba3d,6706be4208493754f3d16bee,,,,,,,,,,,,,,,,,,,,,,With Brainslug Difficult 1 No Money,6,images/assets/snowy_original.jpg,learning,20,images/assets/success.jpg,images/assets/gameover.jpg,,,,,,,,,,,,,0,10,10,1,1,,,,,,,,,,,,,,,,,,,,,,,,,,,,,,,,
,,,,,,,,,,,,5f0fab5abdec9a1aff2b2744,001,3,2024-10-09_12h36.23.466,avatar_quest_3AFC_legacy,2022.1.3,Win32,59.88023952,5f0fab5abdec9a1aff2b2744,62bca317d87d479cda00ba3d,6706be4208493754f3d16bee,,,,,,,,,,,,,,,,,,,,,,,,,,,,,,,,,,,,,,,,,,,,,,,,,,,,,,,5,0,5,0,1,,,,,,,,,,,,,,,,,,
,,,,,,,,,,,,5f0fab5abdec9a1aff2b2744,001,3,2024-10-09_12h36.23.466,avatar_quest_3AFC_legacy,2022.1.3,Win32,59.88023952,5f0fab5abdec9a1aff2b2744,62bca317d87d479cda00ba3d,6706be4208493754f3d16bee,,,,,,,,,,,,,,,,,,,,,,With Brainslug No Barriers With Money,0,images/assets/snowy_money.jpg,learning,10,images/assets/success_money.jpg,images/assets/gameover.jpg,,,,,,,,With Brainslug Difficult 2 With Money,With Brainslug Difficult 1 No Money,right,0.1506,"[""With Brainslug Difficult 1 No Money"",""With Brainslug Difficult 2 No Money""]",0,0,0,4,1,,,,,,,,,,,,,,,,,,,,,,,,,,,,,,,,
,,,,,,,,,,,,5f0fab5abdec9a1aff2b2744,001,3,2024-10-09_12h36.23.466,avatar_quest_3AFC_legacy,2022.1.3,Win32,59.88023952,5f0fab5abdec9a1aff2b2744,62bca317d87d479cda00ba3d,6706be4208493754f3d16bee,,,,,,,,,,,,,,,,,,,,,,With Brainslug Difficult 1 No Money,6,images/assets/snowy_original.jpg,learning,20,images/assets/success.jpg,images/assets/gameover.jpg,,,,,,,,,,,,,0,1,1,1,1,,,,,,,,,,,,,,,,,,,,,,,,,,,,,,,,
,,,,,,,,,,,,5f0fab5abdec9a1aff2b2744,001,3,2024-10-09_12h36.23.466,avatar_quest_3AFC_legacy,2022.1.3,Win32,59.88023952,5f0fab5abdec9a1aff2b2744,62bca317d87d479cda00ba3d,6706be4208493754f3d16bee,,,,,,,,,,,,,,,,,,,,,,No Brainslug Difficult 1 No Money,6,images/assets/snowy_original.jpg,learning,20,images/assets/success.jpg,images/assets/gameover.jpg,,,,,,,,,,,,,0,2,2,6,1,,,,,,,,,,,,,,,,,,,,,,,,,,,,,,,,
,,,,,,,,,,,,5f0fab5abdec9a1aff2b2744,001,3,2024-10-09_12h36.23.466,avatar_quest_3AFC_legacy,2022.1.3,Win32,59.88023952,5f0fab5abdec9a1aff2b2744,62bca317d87d479cda00ba3d,6706be4208493754f3d16bee,,,,,,,,,,,,,,,,,,,,,,No Brainslug No Barriers No Money,0,images/assets/snowy_original.jpg,learning,10,images/assets/success.jpg,images/assets/gameover.jpg,,,,,,,,,,,,,0,3,3,10,1,,,,,,,,,,,,,,,,,,,,,,,,,,,,,,,,
,,,,,,,,,,,,5f0fab5abdec9a1aff2b2744,001,3,2024-10-09_12h36.23.466,avatar_quest_3AFC_legacy,2022.1.3,Win32,59.88023952,5f0fab5abdec9a1aff2b2744,62bca317d87d479cda00ba3d,6706be4208493754f3d16bee,,,,,,,,,,,,,,,,,,,,,,With Brainslug Difficult 2 No Money,12,images/assets/snowy_original.jpg,learning,20,images/assets/success.jpg,images/assets/gameover.jpg,,,,,,,,,,,,,0,4,4,3,1,,,,,,,,,,,,,,,,,,,,,,,,,,,,,,,,
,,,,,,,,,,,,5f0fab5abdec9a1aff2b2744,001,3,2024-10-09_12h36.23.466,avatar_quest_3AFC_legacy,2022.1.3,Win32,59.88023952,5f0fab5abdec9a1aff2b2744,62bca317d87d479cda00ba3d,6706be4208493754f3d16bee,,,,,,,,,,,,,,,,,,,,,,No Brainslug Difficult 2 With Money,12,images/assets/snowy_money.jpg,learning,20,images/assets/success_money.jpg,images/assets/gameover.jpg,,,,,,,,,,,,,0,5,5,7,1,,,,,,,,,,,,,,,,,,,,,,,,,,,,,,,,
,,,,,,,,,,,,5f0fab5abdec9a1aff2b2744,001,3,2024-10-09_12h36.23.466,avatar_quest_3AFC_legacy,2022.1.3,Win32,59.88023952,5f0fab5abdec9a1aff2b2744,62bca317d87d479cda00ba3d,6706be4208493754f3d16bee,,,,,,,,,,,,,,,,,,,,,,No Brainslug Difficult 2 No Money,12,images/assets/snowy_original.jpg,learning,20,images/assets/success.jpg,images/assets/gameover.jpg,,,,,,,,,,,,,0,6,6,8,1,,,,,,,,,,,,,,,,,,,,,,,,,,,,,,,,
,,,,,,,,,,,,5f0fab5abdec9a1aff2b2744,001,3,2024-10-09_12h36.23.466,avatar_quest_3AFC_legacy,2022.1.3,Win32,59.88023952,5f0fab5abdec9a1aff2b2744,62bca317d87d479cda00ba3d,6706be4208493754f3d16bee,,,,,,,,,,,,,,,,,,,,,,With Brainslug Difficult 1 With Money,6,images/assets/snowy_money.jpg,learning,20,images/assets/success_money.jpg,images/assets/gameover.jpg,,,,,,,,,,,,,0,7,7,0,1,,,,,,,,,,,,,,,,,,,,,,,,,,,,,,,,
,,,,,,,,,,,,5f0fab5abdec9a1aff2b2744,001,3,2024-10-09_12h36.23.466,avatar_quest_3AFC_legacy,2022.1.3,Win32,59.88023952,5f0fab5abdec9a1aff2b2744,62bca317d87d479cda00ba3d,6706be4208493754f3d16bee,,,,,,,,,,,,,,,,,,,,,,No Brainslug No Barriers With Money,0,images/assets/snowy_money.jpg,learning,10,images/assets/success_money.jpg,images/assets/gameover.jpg,,,,,,,,,,,,,0,8,8,9,1,,,,,,,,,,,,,,,,,,,,,,,,,,,,,,,,
,,,,,,,,,,,,5f0fab5abdec9a1aff2b2744,001,3,2024-10-09_12h36.23.466,avatar_quest_3AFC_legacy,2022.1.3,Win32,59.88023952,5f0fab5abdec9a1aff2b2744,62bca317d87d479cda00ba3d,6706be4208493754f3d16bee,,,,,,,,,,,,,,,,,,,,,,With Brainslug No Barriers No Money,0,images/assets/snowy_original.jpg,learning,10,images/assets/success.jpg,images/assets/gameover.jpg,,,,,,,,,,,,,0,9,9,5,1,,,,,,,,,,,,,,,,,,,,,,,,,,,,,,,,
,,,,,,,,,,,,5f0fab5abdec9a1aff2b2744,001,3,2024-10-09_12h36.23.466,avatar_quest_3AFC_legacy,2022.1.3,Win32,59.88023952,5f0fab5abdec9a1aff2b2744,62bca317d87d479cda00ba3d,6706be4208493754f3d16bee,"[""left"",""left"",""left"",""left"",""left"",""left"",""right"",""right"",""right"",""right"",""left"",""left"",""left"",""left"",""left"",""left"",""left"",""right"",""right"",""right"",""right"",""right"",""right"",""right"",""right"",""left"",""left"",""right"",""right"",""right"",""right"",""left"",""left""]","[0.49709999999404886,1.2645999999940614,1.465299999997029,1.632000000000005,1.8173999999985142,1.9821999999955437,2.332199999995538,2.569500000000005,2.7515000000000214,3.0494999999999948,3.2663999999985265,3.4335000000000093,3.5330999999940502,3.6895000000000095,3.817399999998514,3.950799999997031,4.169499999999999,4.441399999998509,4.6511999999955265,4.857500000000016,5.034899999998515,5.185000000000002,5.321299999997024,5.451199999995538,5.869399999998507,6.235899999998509,6.369399999998507,6.75329999999704,7.037000000000006,7.2412999999970395,7.421000000000021,7.593399999998525,7.8215000000000146]",,calibration,With Brainslug Difficult 2 With Money,10,7.9348,7.9412,17,7,0,FALSE,na,na,na,na,,,,,,,,,,,,,,,,,,,,,,,,,,,,,,,,,,0,0,0,0,1,,,,,,,,,,,,,,,,,,,,,,,
,,,,,,,,,,,,5f0fab5abdec9a1aff2b2744,001,3,2024-10-09_12h36.23.466,avatar_quest_3AFC_legacy,2022.1.3,Win32,59.88023952,5f0fab5abdec9a1aff2b2744,62bca317d87d479cda00ba3d,6706be4208493754f3d16bee,,,,,,,,,,,,,,,,,,,,,,With Brainslug Difficult 2 With Money,12,images/assets/snowy_money.jpg,learning,20,images/assets/success_money.jpg,images/assets/gameover.jpg,,,,,,,,,,,,,0,10,10,2,1,,,,,,,,,,,,,,,,,,,,,,,,,,,,,,,,
,,,,,,,,,,,,5f0fab5abdec9a1aff2b2744,001,3,2024-10-09_12h36.23.466,avatar_quest_3AFC_legacy,2022.1.3,Win32,59.88023952,5f0fab5abdec9a1aff2b2744,62bca317d87d479cda00ba3d,6706be4208493754f3d16bee,,,,,,,,,,,,,,,,,,,,,,,,,,,,,,,,,,,,,,,,,,,,,,,,,,,,,,,6,0,6,0,1,,,,,,,,,,,,,,,,,,
,,,,,,,,,,,,5f0fab5abdec9a1aff2b2744,001,3,2024-10-09_12h36.23.466,avatar_quest_3AFC_legacy,2022.1.3,Win32,59.88023952,5f0fab5abdec9a1aff2b2744,62bca317d87d479cda00ba3d,6706be4208493754f3d16bee,,,,,,,,,,,,,,,,,,,,,,No Brainslug Difficult 2 With Money,12,images/assets/snowy_money.jpg,learning,20,images/assets/success_money.jpg,images/assets/gameover.jpg,,,,,,,,With Brainslug Difficult 2 With Money,With Brainslug Difficult 1 No Money,right,0.4891,"[""With Brainslug Difficult 1 No Money"",""With Brainslug Difficult 2 No Money""]",0,0,0,7,1,,,,,,,,,,,,,,,,,,,,,,,,,,,,,,,,
,,,,,,,,,,,,5f0fab5abdec9a1aff2b2744,001,3,2024-10-09_12h36.23.466,avatar_quest_3AFC_legacy,2022.1.3,Win32,59.88023952,5f0fab5abdec9a1aff2b2744,62bca317d87d479cda00ba3d,6706be4208493754f3d16bee,,,,,,,,,,,,,,,,,,,,,,With Brainslug Difficult 1 No Money,6,images/assets/snowy_original.jpg,learning,20,images/assets/success.jpg,images/assets/gameover.jpg,,,,,,,,,,,,,0,1,1,1,1,,,,,,,,,,,,,,,,,,,,,,,,,,,,,,,,
,,,,,,,,,,,,5f0fab5abdec9a1aff2b2744,001,3,2024-10-09_12h36.23.466,avatar_quest_3AFC_legacy,2022.1.3,Win32,59.88023952,5f0fab5abdec9a1aff2b2744,62bca317d87d479cda00ba3d,6706be4208493754f3d16bee,,,,,,,,,,,,,,,,,,,,,,No Brainslug Difficult 1 No Money,6,images/assets/snowy_original.jpg,learning,20,images/assets/success.jpg,images/assets/gameover.jpg,,,,,,,,,,,,,0,2,2,6,1,,,,,,,,,,,,,,,,,,,,,,,,,,,,,,,,
,,,,,,,,,,,,5f0fab5abdec9a1aff2b2744,001,3,2024-10-09_12h36.23.466,avatar_quest_3AFC_legacy,2022.1.3,Win32,59.88023952,5f0fab5abdec9a1aff2b2744,62bca317d87d479cda00ba3d,6706be4208493754f3d16bee,,,,,,,,,,,,,,,,,,,,,,No Brainslug Difficult 2 No Money,12,images/assets/snowy_original.jpg,learning,20,images/assets/success.jpg,images/assets/gameover.jpg,,,,,,,,,,,,,0,3,3,8,1,,,,,,,,,,,,,,,,,,,,,,,,,,,,,,,,
,,,,,,,,,,,,5f0fab5abdec9a1aff2b2744,001,3,2024-10-09_12h36.23.466,avatar_quest_3AFC_legacy,2022.1.3,Win32,59.88023952,5f0fab5abdec9a1aff2b2744,62bca317d87d479cda00ba3d,6706be4208493754f3d16bee,,,,,,,,,,,,,,,,,,,,,,With Brainslug Difficult 2 No Money,12,images/assets/snowy_original.jpg,learning,20,images/assets/success.jpg,images/assets/gameover.jpg,,,,,,,,,,,,,0,4,4,3,1,,,,,,,,,,,,,,,,,,,,,,,,,,,,,,,,
,,,,,,,,,,,,5f0fab5abdec9a1aff2b2744,001,3,2024-10-09_12h36.23.466,avatar_quest_3AFC_legacy,2022.1.3,Win32,59.88023952,5f0fab5abdec9a1aff2b2744,62bca317d87d479cda00ba3d,6706be4208493754f3d16bee,,,,,,,,,,,,,,,,,,,,,,With Brainslug No Barriers With Money,0,images/assets/snowy_money.jpg,learning,10,images/assets/success_money.jpg,images/assets/gameover.jpg,,,,,,,,,,,,,0,5,5,4,1,,,,,,,,,,,,,,,,,,,,,,,,,,,,,,,,
,,,,,,,,,,,,5f0fab5abdec9a1aff2b2744,001,3,2024-10-09_12h36.23.466,avatar_quest_3AFC_legacy,2022.1.3,Win32,59.88023952,5f0fab5abdec9a1aff2b2744,62bca317d87d479cda00ba3d,6706be4208493754f3d16bee,"[""right"",""right"",""left"",""left"",""left"",""left"",""left"",""left"",""left"",""left"",""right"",""right"",""right"",""left"",""left"",""left"",""right"",""left"",""left"",""left"",""right"",""right"",""right"",""right"",""left"",""left"",""left"",""right"",""right"",""right"",""right"",""right"",""right"",""right"",""right"",""right"",""right""]","[0.23339999999851102,0.41749999999998977,0.6173999999984972,1.0733999999985144,1.217599999994036,1.318399999998519,1.4573999999985006,1.5852999999970052,1.6853999999985092,1.9534999999999911,2.118399999998502,2.321499999999986,2.5187999999970145,2.7694999999999936,3.0026999999955137,3.1539999999999964,3.3696999999955324,3.6371999999955165,3.8253999999984956,3.9873999999985017,4.170999999999992,4.3375999999940404,4.554599999994025,4.705399999998519,4.937699999995516,5.138000000000005,5.305799999997021,5.521599999994038,5.738799999997013,5.955999999999989,6.129599999994042,6.306299999997009,6.489099999994039,6.657399999998518,6.839699999995531,7.009299999997012,7.4092999999970175]",,calibration,With Brainslug Difficult 2 With Money,11,7.9348,7.9412,13,7,0,FALSE,na,na,na,na,,,,,,,,,,,,,,,,,,,,,,,,,,,,,,,,,,0,0,0,0,1,,,,,,,,,,,,,,,,,,,,,,,
,,,,,,,,,,,,5f0fab5abdec9a1aff2b2744,001,3,2024-10-09_12h36.23.466,avatar_quest_3AFC_legacy,2022.1.3,Win32,59.88023952,5f0fab5abdec9a1aff2b2744,62bca317d87d479cda00ba3d,6706be4208493754f3d16bee,,,,,,,,,,,,,,,,,,,,,,With Brainslug Difficult 2 With Money,12,images/assets/snowy_money.jpg,learning,20,images/assets/success_money.jpg,images/assets/gameover.jpg,,,,,,,,,,,,,0,6,6,2,1,,,,,,,,,,,,,,,,,,,,,,,,,,,,,,,,
,,,,,,,,,,,,5f0fab5abdec9a1aff2b2744,001,3,2024-10-09_12h36.23.466,avatar_quest_3AFC_legacy,2022.1.3,Win32,59.88023952,5f0fab5abdec9a1aff2b2744,62bca317d87d479cda00ba3d,6706be4208493754f3d16bee,,,,,,,,,,,,,,,,,,,,,,No Brainslug No Barriers With Money,0,images/assets/snowy_money.jpg,learning,10,images/assets/success_money.jpg,images/assets/gameover.jpg,,,,,,,,,,,,,0,7,7,9,1,,,,,,,,,,,,,,,,,,,,,,,,,,,,,,,,
,,,,,,,,,,,,5f0fab5abdec9a1aff2b2744,001,3,2024-10-09_12h36.23.466,avatar_quest_3AFC_legacy,2022.1.3,Win32,59.88023952,5f0fab5abdec9a1aff2b2744,62bca317d87d479cda00ba3d,6706be4208493754f3d16bee,,,,,,,,,,,,,,,,,,,,,,With Brainslug Difficult 1 With Money,6,images/assets/snowy_money.jpg,learning,20,images/assets/success_money.jpg,images/assets/gameover.jpg,,,,,,,,,,,,,0,8,8,0,1,,,,,,,,,,,,,,,,,,,,,,,,,,,,,,,,
,,,,,,,,,,,,5f0fab5abdec9a1aff2b2744,001,3,2024-10-09_12h36.23.466,avatar_quest_3AFC_legacy,2022.1.3,Win32,59.88023952,5f0fab5abdec9a1aff2b2744,62bca317d87d479cda00ba3d,6706be4208493754f3d16bee,,,,,,,,,,,,,,,,,,,,,,No Brainslug No Barriers No Money,0,images/assets/snowy_original.jpg,learning,10,images/assets/success.jpg,images/assets/gameover.jpg,,,,,,,,,,,,,0,9,9,10,1,,,,,,,,,,,,,,,,,,,,,,,,,,,,,,,,
,,,,,,,,,,,,5f0fab5abdec9a1aff2b2744,001,3,2024-10-09_12h36.23.466,avatar_quest_3AFC_legacy,2022.1.3,Win32,59.88023952,5f0fab5abdec9a1aff2b2744,62bca317d87d479cda00ba3d,6706be4208493754f3d16bee,,,,,,,,,,,,,,,,,,,,,,With Brainslug No Barriers No Money,0,images/assets/snowy_original.jpg,learning,10,images/assets/success.jpg,images/assets/gameover.jpg,,,,,,,,,,,,,0,10,10,5,1,,,,,,,,,,,,,,,,,,,,,,,,,,,,,,,,
,,,,,,,,,,,,5f0fab5abdec9a1aff2b2744,001,3,2024-10-09_12h36.23.466,avatar_quest_3AFC_legacy,2022.1.3,Win32,59.88023952,5f0fab5abdec9a1aff2b2744,62bca317d87d479cda00ba3d,6706be4208493754f3d16bee,,,,,,,,,,,,,,,,,,,,,,,,,,,,,,,,,,,,,,,,,,,,,,,,,,,,,,,7,0,7,0,1,,,,,,,,,,,,,,,,,,
,,,,,,,,,,,,5f0fab5abdec9a1aff2b2744,001,3,2024-10-09_12h36.23.466,avatar_quest_3AFC_legacy,2022.1.3,Win32,59.88023952,5f0fab5abdec9a1aff2b2744,62bca317d87d479cda00ba3d,6706be4208493754f3d16bee,,,,,,,,,,,,,,,,,,,,,,With Brainslug Difficult 2 No Money,12,images/assets/snowy_original.jpg,learning,20,images/assets/success.jpg,images/assets/gameover.jpg,,,,,,,,With Brainslug Difficult 2 With Money,With Brainslug Difficult 1 No Money,right,0.8632,"[""With Brainslug Difficult 1 No Money"",""With Brainslug Difficult 2 No Money""]",0,0,0,3,1,,,,,,,,,,,,,,,,,,,,,,,,,,,,,,,,
,,,,,,,,,,,,5f0fab5abdec9a1aff2b2744,001,3,2024-10-09_12h36.23.466,avatar_quest_3AFC_legacy,2022.1.3,Win32,59.88023952,5f0fab5abdec9a1aff2b2744,62bca317d87d479cda00ba3d,6706be4208493754f3d16bee,,,,,,,,,,,,,,,,,,,,,,No Brainslug Difficult 2 No Money,12,images/assets/snowy_original.jpg,learning,20,images/assets/success.jpg,images/assets/gameover.jpg,,,,,,,,,,,,,0,1,1,8,1,,,,,,,,,,,,,,,,,,,,,,,,,,,,,,,,
,,,,,,,,,,,,5f0fab5abdec9a1aff2b2744,001,3,2024-10-09_12h36.23.466,avatar_quest_3AFC_legacy,2022.1.3,Win32,59.88023952,5f0fab5abdec9a1aff2b2744,62bca317d87d479cda00ba3d,6706be4208493754f3d16bee,,,,,,,,,,,,,,,,,,,,,,With Brainslug Difficult 1 No Money,6,images/assets/snowy_original.jpg,learning,20,images/assets/success.jpg,images/assets/gameover.jpg,,,,,,,,,,,,,0,2,2,1,1,,,,,,,,,,,,,,,,,,,,,,,,,,,,,,,,
,,,,,,,,,,,,5f0fab5abdec9a1aff2b2744,001,3,2024-10-09_12h36.23.466,avatar_quest_3AFC_legacy,2022.1.3,Win32,59.88023952,5f0fab5abdec9a1aff2b2744,62bca317d87d479cda00ba3d,6706be4208493754f3d16bee,,,,,,,,,,,,,,,,,,,,,,With Brainslug No Barriers No Money,0,images/assets/snowy_original.jpg,learning,10,images/assets/success.jpg,images/assets/gameover.jpg,,,,,,,,,,,,,0,3,3,5,1,,,,,,,,,,,,,,,,,,,,,,,,,,,,,,,,
,,,,,,,,,,,,5f0fab5abdec9a1aff2b2744,001,3,2024-10-09_12h36.23.466,avatar_quest_3AFC_legacy,2022.1.3,Win32,59.88023952,5f0fab5abdec9a1aff2b2744,62bca317d87d479cda00ba3d,6706be4208493754f3d16bee,"[""left"",""up"",""left"",""right"",""left"",""left"",""left"",""left"",""left"",""up"",""up"",""up"",""up"",""down"",""down"",""down"",""down"",""down"",""right"",""right"",""right"",""left""]","[0.5838999999984935,1.4507999999970025,1.5893999999985056,2.169199999995527,2.6520999999940216,3.157399999998489,3.653699999995524,3.9093999999984987,4.187799999996997,4.470599999994022,4.709299999997,4.855199999995506,5.061299999997004,5.389799999996995,5.839199999995515,6.021999999999991,6.2062999999970145,6.357299999996997,6.523199999995512,7.093399999998496,7.477299999997001,7.79049999999998]",,calibration,With Brainslug Difficult 2 With Money,12,7.9348,7.9411,6,3,0,FALSE,na,na,na,na,,,,,,,,,,,,,,,,,,,,,,,,,,,,,,,,,,0,0,0,0,1,,,,,,,,,,,,,,,,,,,,,,,
,,,,,,,,,,,,5f0fab5abdec9a1aff2b2744,001,3,2024-10-09_12h36.23.466,avatar_quest_3AFC_legacy,2022.1.3,Win32,59.88023952,5f0fab5abdec9a1aff2b2744,62bca317d87d479cda00ba3d,6706be4208493754f3d16bee,,,,,,,,,,,,,,,,,,,,,,With Brainslug Difficult 2 With Money,12,images/assets/snowy_money.jpg,learning,20,images/assets/success_money.jpg,images/assets/gameover.jpg,,,,,,,,,,,,,0,4,4,2,1,,,,,,,,,,,,,,,,,,,,,,,,,,,,,,,,
,,,,,,,,,,,,5f0fab5abdec9a1aff2b2744,001,3,2024-10-09_12h36.23.466,avatar_quest_3AFC_legacy,2022.1.3,Win32,59.88023952,5f0fab5abdec9a1aff2b2744,62bca317d87d479cda00ba3d,6706be4208493754f3d16bee,,,,,,,,,,,,,,,,,,,,,,With Brainslug Difficult 1 With Money,6,images/assets/snowy_money.jpg,learning,20,images/assets/success_money.jpg,images/assets/gameover.jpg,,,,,,,,,,,,,0,5,5,0,1,,,,,,,,,,,,,,,,,,,,,,,,,,,,,,,,
,,,,,,,,,,,,5f0fab5abdec9a1aff2b2744,001,3,2024-10-09_12h36.23.466,avatar_quest_3AFC_legacy,2022.1.3,Win32,59.88023952,5f0fab5abdec9a1aff2b2744,62bca317d87d479cda00ba3d,6706be4208493754f3d16bee,,,,,,,,,,,,,,,,,,,,,,No Brainslug No Barriers No Money,0,images/assets/snowy_original.jpg,learning,10,images/assets/success.jpg,images/assets/gameover.jpg,,,,,,,,,,,,,0,6,6,10,1,,,,,,,,,,,,,,,,,,,,,,,,,,,,,,,,
,,,,,,,,,,,,5f0fab5abdec9a1aff2b2744,001,3,2024-10-09_12h36.23.466,avatar_quest_3AFC_legacy,2022.1.3,Win32,59.88023952,5f0fab5abdec9a1aff2b2744,62bca317d87d479cda00ba3d,6706be4208493754f3d16bee,,,,,,,,,,,,,,,,,,,,,,With Brainslug No Barriers With Money,0,images/assets/snowy_money.jpg,learning,10,images/assets/success_money.jpg,images/assets/gameover.jpg,,,,,,,,,,,,,0,7,7,4,1,,,,,,,,,,,,,,,,,,,,,,,,,,,,,,,,
,,,,,,,,,,,,5f0fab5abdec9a1aff2b2744,001,3,2024-10-09_12h36.23.466,avatar_quest_3AFC_legacy,2022.1.3,Win32,59.88023952,5f0fab5abdec9a1aff2b2744,62bca317d87d479cda00ba3d,6706be4208493754f3d16bee,,,,,,,,,,,,,,,,,,,,,,No Brainslug Difficult 1 No Money,6,images/assets/snowy_original.jpg,learning,20,images/assets/success.jpg,images/assets/gameover.jpg,,,,,,,,,,,,,0,8,8,6,1,,,,,,,,,,,,,,,,,,,,,,,,,,,,,,,,
,,,,,,,,,,,,5f0fab5abdec9a1aff2b2744,001,3,2024-10-09_12h36.23.466,avatar_quest_3AFC_legacy,2022.1.3,Win32,59.88023952,5f0fab5abdec9a1aff2b2744,62bca317d87d479cda00ba3d,6706be4208493754f3d16bee,,,,,,,,,,,,,,,,,,,,,,No Brainslug Difficult 2 With Money,12,images/assets/snowy_money.jpg,learning,20,images/assets/success_money.jpg,images/assets/gameover.jpg,,,,,,,,,,,,,0,9,9,7,1,,,,,,,,,,,,,,,,,,,,,,,,,,,,,,,,
,,,,,,,,,,,,5f0fab5abdec9a1aff2b2744,001,3,2024-10-09_12h36.23.466,avatar_quest_3AFC_legacy,2022.1.3,Win32,59.88023952,5f0fab5abdec9a1aff2b2744,62bca317d87d479cda00ba3d,6706be4208493754f3d16bee,,,,,,,,,,,,,,,,,,,,,,No Brainslug No Barriers With Money,0,images/assets/snowy_money.jpg,learning,10,images/assets/success_money.jpg,images/assets/gameover.jpg,,,,,,,,,,,,,0,10,10,9,1,,,,,,,,,,,,,,,,,,,,,,,,,,,,,,,,
,,,,,,,,,,,,5f0fab5abdec9a1aff2b2744,001,3,2024-10-09_12h36.23.466,avatar_quest_3AFC_legacy,2022.1.3,Win32,59.88023952,5f0fab5abdec9a1aff2b2744,62bca317d87d479cda00ba3d,6706be4208493754f3d16bee,,,,,,,,,,,,,,,,,,,,,,,,,,,,,,,,,,,,,,,,,,,,,,,,,,,,,,,8,0,8,0,1,,,,,,,,,,,,,,,,,,
,,,,,,,,,,,,5f0fab5abdec9a1aff2b2744,001,3,2024-10-09_12h36.23.466,avatar_quest_3AFC_legacy,2022.1.3,Win32,59.88023952,5f0fab5abdec9a1aff2b2744,62bca317d87d479cda00ba3d,6706be4208493754f3d16bee,,,,,,,,,,,,,,,,,,,,,,With Brainslug No Barriers With Money,0,images/assets/snowy_money.jpg,learning,10,images/assets/success_money.jpg,images/assets/gameover.jpg,,,,,,,,With Brainslug Difficult 1 No Money,With Brainslug Difficult 1 No Money,left,0.9794,"[""With Brainslug Difficult 2 No Money"",""With Brainslug Difficult 2 With Money""]",0,0,0,4,1,,,,,,,,,,,,,,,,,,,,,,,,,,,,,,,,
,,,,,,,,,,,,5f0fab5abdec9a1aff2b2744,001,3,2024-10-09_12h36.23.466,avatar_quest_3AFC_legacy,2022.1.3,Win32,59.88023952,5f0fab5abdec9a1aff2b2744,62bca317d87d479cda00ba3d,6706be4208493754f3d16bee,,,,,,,,,,,,,,,,,,,,,,With Brainslug Difficult 1 With Money,6,images/assets/snowy_money.jpg,learning,20,images/assets/success_money.jpg,images/assets/gameover.jpg,,,,,,,,,,,,,0,1,1,0,1,,,,,,,,,,,,,,,,,,,,,,,,,,,,,,,,
,,,,,,,,,,,,5f0fab5abdec9a1aff2b2744,001,3,2024-10-09_12h36.23.466,avatar_quest_3AFC_legacy,2022.1.3,Win32,59.88023952,5f0fab5abdec9a1aff2b2744,62bca317d87d479cda00ba3d,6706be4208493754f3d16bee,,,,,,,,,,,,,,,,,,,,,,No Brainslug No Barriers With Money,0,images/assets/snowy_money.jpg,learning,10,images/assets/success_money.jpg,images/assets/gameover.jpg,,,,,,,,,,,,,0,2,2,9,1,,,,,,,,,,,,,,,,,,,,,,,,,,,,,,,,
,,,,,,,,,,,,5f0fab5abdec9a1aff2b2744,001,3,2024-10-09_12h36.23.466,avatar_quest_3AFC_legacy,2022.1.3,Win32,59.88023952,5f0fab5abdec9a1aff2b2744,62bca317d87d479cda00ba3d,6706be4208493754f3d16bee,"[""right"",""left"",""left"",""left"",""left"",""left"",""up"",""up"",""right"",""right"",""right"",""left"",""left"",""left"",""up"",""right"",""right"",""right"",""right"",""right"",""right"",""right"",""right"",""right"",""left""]","[0.22720000000299478,0.7499000000059652,1.1497000000030084,1.3619000000059884,1.8629000000059648,2.163200000003002,2.5972000000029993,2.9305000000000234,3.117800000004479,3.3809000000059655,3.8319000000059873,4.065300000004498,4.465300000004476,4.6698000000044715,5.349500000000006,6.084100000001513,6.285700000003004,6.500300000004472,6.701700000003001,6.850900000005964,7.005800000004484,7.185100000001512,7.351500000000016,7.537700000002985,7.885600000001517]",,calibration,With Brainslug Difficult 1 No Money,13,7.9348,7.9411,11,5,0,FALSE,na,na,na,na,,,,,,,,,,,,,,,,,,,,,,,,,,,,,,,,,,0,0,0,0,1,,,,,,,,,,,,,,,,,,,,,,,
,,,,,,,,,,,,5f0fab5abdec9a1aff2b2744,001,3,2024-10-09_12h36.23.466,avatar_quest_3AFC_legacy,2022.1.3,Win32,59.88023952,5f0fab5abdec9a1aff2b2744,62bca317d87d479cda00ba3d,6706be4208493754f3d16bee,,,,,,,,,,,,,,,,,,,,,,With Brainslug Difficult 1 No Money,6,images/assets/snowy_original.jpg,learning,20,images/assets/success.jpg,images/assets/gameover.jpg,,,,,,,,,,,,,0,3,3,1,1,,,,,,,,,,,,,,,,,,,,,,,,,,,,,,,,
,,,,,,,,,,,,5f0fab5abdec9a1aff2b2744,001,3,2024-10-09_12h36.23.466,avatar_quest_3AFC_legacy,2022.1.3,Win32,59.88023952,5f0fab5abdec9a1aff2b2744,62bca317d87d479cda00ba3d,6706be4208493754f3d16bee,,,,,,,,,,,,,,,,,,,,,,With Brainslug No Barriers No Money,0,images/assets/snowy_original.jpg,learning,10,images/assets/success.jpg,images/assets/gameover.jpg,,,,,,,,,,,,,0,4,4,5,1,,,,,,,,,,,,,,,,,,,,,,,,,,,,,,,,
,,,,,,,,,,,,5f0fab5abdec9a1aff2b2744,001,3,2024-10-09_12h36.23.466,avatar_quest_3AFC_legacy,2022.1.3,Win32,59.88023952,5f0fab5abdec9a1aff2b2744,62bca317d87d479cda00ba3d,6706be4208493754f3d16bee,,,,,,,,,,,,,,,,,,,,,,With Brainslug Difficult 2 No Money,12,images/assets/snowy_original.jpg,learning,20,images/assets/success.jpg,images/assets/gameover.jpg,,,,,,,,,,,,,0,5,5,3,1,,,,,,,,,,,,,,,,,,,,,,,,,,,,,,,,
,,,,,,,,,,,,5f0fab5abdec9a1aff2b2744,001,3,2024-10-09_12h36.23.466,avatar_quest_3AFC_legacy,2022.1.3,Win32,59.88023952,5f0fab5abdec9a1aff2b2744,62bca317d87d479cda00ba3d,6706be4208493754f3d16bee,,,,,,,,,,,,,,,,,,,,,,No Brainslug Difficult 2 No Money,12,images/assets/snowy_original.jpg,learning,20,images/assets/success.jpg,images/assets/gameover.jpg,,,,,,,,,,,,,0,6,6,8,1,,,,,,,,,,,,,,,,,,,,,,,,,,,,,,,,
,,,,,,,,,,,,5f0fab5abdec9a1aff2b2744,001,3,2024-10-09_12h36.23.466,avatar_quest_3AFC_legacy,2022.1.3,Win32,59.88023952,5f0fab5abdec9a1aff2b2744,62bca317d87d479cda00ba3d,6706be4208493754f3d16bee,,,,,,,,,,,,,,,,,,,,,,No Brainslug No Barriers No Money,0,images/assets/snowy_original.jpg,learning,10,images/assets/success.jpg,images/assets/gameover.jpg,,,,,,,,,,,,,0,7,7,10,1,,,,,,,,,,,,,,,,,,,,,,,,,,,,,,,,
,,,,,,,,,,,,5f0fab5abdec9a1aff2b2744,001,3,2024-10-09_12h36.23.466,avatar_quest_3AFC_legacy,2022.1.3,Win32,59.88023952,5f0fab5abdec9a1aff2b2744,62bca317d87d479cda00ba3d,6706be4208493754f3d16bee,,,,,,,,,,,,,,,,,,,,,,No Brainslug Difficult 1 No Money,6,images/assets/snowy_original.jpg,learning,20,images/assets/success.jpg,images/assets/gameover.jpg,,,,,,,,,,,,,0,8,8,6,1,,,,,,,,,,,,,,,,,,,,,,,,,,,,,,,,
,,,,,,,,,,,,5f0fab5abdec9a1aff2b2744,001,3,2024-10-09_12h36.23.466,avatar_quest_3AFC_legacy,2022.1.3,Win32,59.88023952,5f0fab5abdec9a1aff2b2744,62bca317d87d479cda00ba3d,6706be4208493754f3d16bee,,,,,,,,,,,,,,,,,,,,,,No Brainslug Difficult 2 With Money,12,images/assets/snowy_money.jpg,learning,20,images/assets/success_money.jpg,images/assets/gameover.jpg,,,,,,,,,,,,,0,9,9,7,1,,,,,,,,,,,,,,,,,,,,,,,,,,,,,,,,
,,,,,,,,,,,,5f0fab5abdec9a1aff2b2744,001,3,2024-10-09_12h36.23.466,avatar_quest_3AFC_legacy,2022.1.3,Win32,59.88023952,5f0fab5abdec9a1aff2b2744,62bca317d87d479cda00ba3d,6706be4208493754f3d16bee,,,,,,,,,,,,,,,,,,,,,,With Brainslug Difficult 2 With Money,12,images/assets/snowy_money.jpg,learning,20,images/assets/success_money.jpg,images/assets/gameover.jpg,,,,,,,,,,,,,0,10,10,2,1,,,,,,,,,,,,,,,,,,,,,,,,,,,,,,,,
,,,,,,,,,,,,5f0fab5abdec9a1aff2b2744,001,3,2024-10-09_12h36.23.466,avatar_quest_3AFC_legacy,2022.1.3,Win32,59.88023952,5f0fab5abdec9a1aff2b2744,62bca317d87d479cda00ba3d,6706be4208493754f3d16bee,,,,,,,,,,,,,,,,,,,,,,,,,,,,,,,,,,,,,,,,,,,,,,,,,,,,,,,9,0,9,0,1,,,,,,,,,,,,,,,,,,
,,,,,,,,,,,,5f0fab5abdec9a1aff2b2744,001,3,2024-10-09_12h36.23.466,avatar_quest_3AFC_legacy,2022.1.3,Win32,59.88023952,5f0fab5abdec9a1aff2b2744,62bca317d87d479cda00ba3d,6706be4208493754f3d16bee,,,,,,,,,,,,,,,,,,,,,,With Brainslug Difficult 1 With Money,6,images/assets/snowy_money.jpg,learning,20,images/assets/success_money.jpg,images/assets/gameover.jpg,,,,,,,,With Brainslug Difficult 1 No Money,With Brainslug Difficult 1 No Money,left,0.2119,"[""With Brainslug Difficult 2 No Money"",""With Brainslug Difficult 2 With Money""]",0,0,0,0,1,,,,,,,,,,,,,,,,,,,,,,,,,,,,,,,,
,,,,,,,,,,,,5f0fab5abdec9a1aff2b2744,001,3,2024-10-09_12h36.23.466,avatar_quest_3AFC_legacy,2022.1.3,Win32,59.88023952,5f0fab5abdec9a1aff2b2744,62bca317d87d479cda00ba3d,6706be4208493754f3d16bee,,,,,,,,,,,,,,,,,,,,,,No Brainslug Difficult 2 No Money,12,images/assets/snowy_original.jpg,learning,20,images/assets/success.jpg,images/assets/gameover.jpg,,,,,,,,,,,,,0,1,1,8,1,,,,,,,,,,,,,,,,,,,,,,,,,,,,,,,,
,,,,,,,,,,,,5f0fab5abdec9a1aff2b2744,001,3,2024-10-09_12h36.23.466,avatar_quest_3AFC_legacy,2022.1.3,Win32,59.88023952,5f0fab5abdec9a1aff2b2744,62bca317d87d479cda00ba3d,6706be4208493754f3d16bee,,,,,,,,,,,,,,,,,,,,,,No Brainslug Difficult 2 With Money,12,images/assets/snowy_money.jpg,learning,20,images/assets/success_money.jpg,images/assets/gameover.jpg,,,,,,,,,,,,,0,2,2,7,1,,,,,,,,,,,,,,,,,,,,,,,,,,,,,,,,
,,,,,,,,,,,,5f0fab5abdec9a1aff2b2744,001,3,2024-10-09_12h36.23.466,avatar_quest_3AFC_legacy,2022.1.3,Win32,59.88023952,5f0fab5abdec9a1aff2b2744,62bca317d87d479cda00ba3d,6706be4208493754f3d16bee,,,,,,,,,,,,,,,,,,,,,,With Brainslug Difficult 2 With Money,12,images/assets/snowy_money.jpg,learning,20,images/assets/success_money.jpg,images/assets/gameover.jpg,,,,,,,,,,,,,0,3,3,2,1,,,,,,,,,,,,,,,,,,,,,,,,,,,,,,,,
,,,,,,,,,,,,5f0fab5abdec9a1aff2b2744,001,3,2024-10-09_12h36.23.466,avatar_quest_3AFC_legacy,2022.1.3,Win32,59.88023952,5f0fab5abdec9a1aff2b2744,62bca317d87d479cda00ba3d,6706be4208493754f3d16bee,,,,,,,,,,,,,,,,,,,,,,With Brainslug Difficult 2 No Money,12,images/assets/snowy_original.jpg,learning,20,images/assets/success.jpg,images/assets/gameover.jpg,,,,,,,,,,,,,0,4,4,3,1,,,,,,,,,,,,,,,,,,,,,,,,,,,,,,,,
,,,,,,,,,,,,5f0fab5abdec9a1aff2b2744,001,3,2024-10-09_12h36.23.466,avatar_quest_3AFC_legacy,2022.1.3,Win32,59.88023952,5f0fab5abdec9a1aff2b2744,62bca317d87d479cda00ba3d,6706be4208493754f3d16bee,,,,,,,,,,,,,,,,,,,,,,With Brainslug No Barriers With Money,0,images/assets/snowy_money.jpg,learning,10,images/assets/success_money.jpg,images/assets/gameover.jpg,,,,,,,,,,,,,0,5,5,4,1,,,,,,,,,,,,,,,,,,,,,,,,,,,,,,,,
,,,,,,,,,,,,5f0fab5abdec9a1aff2b2744,001,3,2024-10-09_12h36.23.466,avatar_quest_3AFC_legacy,2022.1.3,Win32,59.88023952,5f0fab5abdec9a1aff2b2744,62bca317d87d479cda00ba3d,6706be4208493754f3d16bee,,,,,,,,,,,,,,,,,,,,,,No Brainslug No Barriers With Money,0,images/assets/snowy_money.jpg,learning,10,images/assets/success_money.jpg,images/assets/gameover.jpg,,,,,,,,,,,,,0,6,6,9,1,,,,,,,,,,,,,,,,,,,,,,,,,,,,,,,,
,,,,,,,,,,,,5f0fab5abdec9a1aff2b2744,001,3,2024-10-09_12h36.23.466,avatar_quest_3AFC_legacy,2022.1.3,Win32,59.88023952,5f0fab5abdec9a1aff2b2744,62bca317d87d479cda00ba3d,6706be4208493754f3d16bee,,,,,,,,,,,,,,,,,,,,,,No Brainslug No Barriers No Money,0,images/assets/snowy_original.jpg,learning,10,images/assets/success.jpg,images/assets/gameover.jpg,,,,,,,,,,,,,0,7,7,10,1,,,,,,,,,,,,,,,,,,,,,,,,,,,,,,,,
,,,,,,,,,,,,5f0fab5abdec9a1aff2b2744,001,3,2024-10-09_12h36.23.466,avatar_quest_3AFC_legacy,2022.1.3,Win32,59.88023952,5f0fab5abdec9a1aff2b2744,62bca317d87d479cda00ba3d,6706be4208493754f3d16bee,,,,,,,,,,,,,,,,,,,,,,No Brainslug Difficult 1 No Money,6,images/assets/snowy_original.jpg,learning,20,images/assets/success.jpg,images/assets/gameover.jpg,,,,,,,,,,,,,0,8,8,6,1,,,,,,,,,,,,,,,,,,,,,,,,,,,,,,,,
,,,,,,,,,,,,5f0fab5abdec9a1aff2b2744,001,3,2024-10-09_12h36.23.466,avatar_quest_3AFC_legacy,2022.1.3,Win32,59.88023952,5f0fab5abdec9a1aff2b2744,62bca317d87d479cda00ba3d,6706be4208493754f3d16bee,"[""right"",""left"",""left"",""left"",""left"",""left"",""left"",""left"",""left"",""left"",""left"",""right"",""right"",""right"",""right"",""right"",""up"",""up"",""up"",""up"",""left"",""left"",""left"",""left"",""left"",""left"",""left"",""left"",""up"",""right"",""right""]","[0.6288000000044747,0.9951000000014858,1.2454999999999927,1.4612000000029752,1.6293000000044628,1.8117000000029861,1.9811000000015042,2.1298000000044794,2.3012000000029786,2.462900000005959,2.630100000001505,3.0852000000029705,3.6313000000044724,3.853200000002971,4.031700000002985,4.215000000000003,4.548400000005955,4.965499999999992,5.149200000002992,5.4054000000059546,5.716600000001478,5.885200000002982,6.03260000000148,6.150300000004478,6.269200000002968,6.5892000000029896,6.801200000002979,6.973100000001494,7.268200000002992,7.534500000000008,7.751000000000005]",,calibration,With Brainslug Difficult 1 No Money,14,7.9348,7.941,8,4,0,FALSE,na,na,na,na,,,,,,,,,,,,,,,,,,,,,,,,,,,,,,,,,,0,0,0,0,1,,,,,,,,,,,,,,,,,,,,,,,
,,,,,,,,,,,,5f0fab5abdec9a1aff2b2744,001,3,2024-10-09_12h36.23.466,avatar_quest_3AFC_legacy,2022.1.3,Win32,59.88023952,5f0fab5abdec9a1aff2b2744,62bca317d87d479cda00ba3d,6706be4208493754f3d16bee,,,,,,,,,,,,,,,,,,,,,,With Brainslug Difficult 1 No Money,6,images/assets/snowy_original.jpg,learning,20,images/assets/success.jpg,images/assets/gameover.jpg,,,,,,,,,,,,,0,9,9,1,1,,,,,,,,,,,,,,,,,,,,,,,,,,,,,,,,
,,,,,,,,,,,,5f0fab5abdec9a1aff2b2744,001,3,2024-10-09_12h36.23.466,avatar_quest_3AFC_legacy,2022.1.3,Win32,59.88023952,5f0fab5abdec9a1aff2b2744,62bca317d87d479cda00ba3d,6706be4208493754f3d16bee,,,,,,,,,,,,,,,,,,,,,,With Brainslug No Barriers No Money,0,images/assets/snowy_original.jpg,learning,10,images/assets/success.jpg,images/assets/gameover.jpg,,,,,,,,,,,,,0,10,10,5,1,,,,,,,,,,,,,,,,,,,,,,,,,,,,,,,,
,,,,,,,,,,,,5f0fab5abdec9a1aff2b2744,001,3,2024-10-09_12h36.23.466,avatar_quest_3AFC_legacy,2022.1.3,Win32,59.88023952,5f0fab5abdec9a1aff2b2744,62bca317d87d479cda00ba3d,6706be4208493754f3d16bee,,,,,,,,,,,,,,,,,,,,,,,,,,,,,,,,,,,,,,,,,,,,,,,,,,,,,,,10,0,10,0,1,,,,,,,,,,,,,,,,,,
,,,,,,,,,,,,5f0fab5abdec9a1aff2b2744,001,3,2024-10-09_12h36.23.466,avatar_quest_3AFC_legacy,2022.1.3,Win32,59.88023952,5f0fab5abdec9a1aff2b2744,62bca317d87d479cda00ba3d,6706be4208493754f3d16bee,,,,,,,,,,,,,,,,,,,,,,With Brainslug No Barriers No Money,0,images/assets/snowy_original.jpg,learning,10,images/assets/success.jpg,images/assets/gameover.jpg,,,,,,,,With Brainslug Difficult 2 With Money,With Brainslug Difficult 1 No Money,right,0.0168,"[""With Brainslug Difficult 1 No Money"",""With Brainslug Difficult 2 No Money""]",0,0,0,5,1,,,,,,,,,,,,,,,,,,,,,,,,,,,,,,,,
,,,,,,,,,,,,5f0fab5abdec9a1aff2b2744,001,3,2024-10-09_12h36.23.466,avatar_quest_3AFC_legacy,2022.1.3,Win32,59.88023952,5f0fab5abdec9a1aff2b2744,62bca317d87d479cda00ba3d,6706be4208493754f3d16bee,"[""right"",""right"",""left"",""left"",""left"",""left"",""right"",""right"",""right"",""left"",""left"",""left"",""left"",""left"",""up"",""right"",""right"",""right"",""left"",""left"",""left"",""left"",""left"",""right"",""right"",""right"",""right"",""right"",""right"",""right"",""left""]","[0.5016999999955374,1.0795999999940307,1.3497999999970034,1.5635999999940395,1.733799999997018,1.9467999999970118,2.085799999997022,2.3143999999985,2.517899999998491,2.664299999997013,2.9337999999970066,3.131399999998507,3.3017999999970016,3.4819999999999993,3.7017999999970073,4.053899999998492,4.316299999997,4.533799999997001,4.783399999998494,5.050199999995527,5.255299999997021,5.466899999998503,5.685899999998497,5.9007999999970195,6.301299999997013,6.501699999995537,6.701699999995526,6.869899999998495,7.035500000000013,7.468599999994012,7.702399999998477]",,calibration,With Brainslug Difficult 2 With Money,15,7.9348,7.9412,13,6,0,FALSE,na,na,na,na,,,,,,,,,,,,,,,,,,,,,,,,,,,,,,,,,,0,0,0,0,1,,,,,,,,,,,,,,,,,,,,,,,
,,,,,,,,,,,,5f0fab5abdec9a1aff2b2744,001,3,2024-10-09_12h36.23.466,avatar_quest_3AFC_legacy,2022.1.3,Win32,59.88023952,5f0fab5abdec9a1aff2b2744,62bca317d87d479cda00ba3d,6706be4208493754f3d16bee,,,,,,,,,,,,,,,,,,,,,,With Brainslug Difficult 2 With Money,12,images/assets/snowy_money.jpg,learning,20,images/assets/success_money.jpg,images/assets/gameover.jpg,,,,,,,,,,,,,0,1,1,2,1,,,,,,,,,,,,,,,,,,,,,,,,,,,,,,,,
,,,,,,,,,,,,5f0fab5abdec9a1aff2b2744,001,3,2024-10-09_12h36.23.466,avatar_quest_3AFC_legacy,2022.1.3,Win32,59.88023952,5f0fab5abdec9a1aff2b2744,62bca317d87d479cda00ba3d,6706be4208493754f3d16bee,,,,,,,,,,,,,,,,,,,,,,With Brainslug Difficult 1 No Money,6,images/assets/snowy_original.jpg,learning,20,images/assets/success.jpg,images/assets/gameover.jpg,,,,,,,,,,,,,0,2,2,1,1,,,,,,,,,,,,,,,,,,,,,,,,,,,,,,,,
,,,,,,,,,,,,5f0fab5abdec9a1aff2b2744,001,3,2024-10-09_12h36.23.466,avatar_quest_3AFC_legacy,2022.1.3,Win32,59.88023952,5f0fab5abdec9a1aff2b2744,62bca317d87d479cda00ba3d,6706be4208493754f3d16bee,,,,,,,,,,,,,,,,,,,,,,No Brainslug No Barriers No Money,0,images/assets/snowy_original.jpg,learning,10,images/assets/success.jpg,images/assets/gameover.jpg,,,,,,,,,,,,,0,3,3,10,1,,,,,,,,,,,,,,,,,,,,,,,,,,,,,,,,
,,,,,,,,,,,,5f0fab5abdec9a1aff2b2744,001,3,2024-10-09_12h36.23.466,avatar_quest_3AFC_legacy,2022.1.3,Win32,59.88023952,5f0fab5abdec9a1aff2b2744,62bca317d87d479cda00ba3d,6706be4208493754f3d16bee,,,,,,,,,,,,,,,,,,,,,,With Brainslug Difficult 1 With Money,6,images/assets/snowy_money.jpg,learning,20,images/assets/success_money.jpg,images/assets/gameover.jpg,,,,,,,,,,,,,0,4,4,0,1,,,,,,,,,,,,,,,,,,,,,,,,,,,,,,,,
,,,,,,,,,,,,5f0fab5abdec9a1aff2b2744,001,3,2024-10-09_12h36.23.466,avatar_quest_3AFC_legacy,2022.1.3,Win32,59.88023952,5f0fab5abdec9a1aff2b2744,62bca317d87d479cda00ba3d,6706be4208493754f3d16bee,,,,,,,,,,,,,,,,,,,,,,No Brainslug Difficult 2 With Money,12,images/assets/snowy_money.jpg,learning,20,images/assets/success_money.jpg,images/assets/gameover.jpg,,,,,,,,,,,,,0,5,5,7,1,,,,,,,,,,,,,,,,,,,,,,,,,,,,,,,,
,,,,,,,,,,,,5f0fab5abdec9a1aff2b2744,001,3,2024-10-09_12h36.23.466,avatar_quest_3AFC_legacy,2022.1.3,Win32,59.88023952,5f0fab5abdec9a1aff2b2744,62bca317d87d479cda00ba3d,6706be4208493754f3d16bee,,,,,,,,,,,,,,,,,,,,,,No Brainslug No Barriers With Money,0,images/assets/snowy_money.jpg,learning,10,images/assets/success_money.jpg,images/assets/gameover.jpg,,,,,,,,,,,,,0,6,6,9,1,,,,,,,,,,,,,,,,,,,,,,,,,,,,,,,,
,,,,,,,,,,,,5f0fab5abdec9a1aff2b2744,001,3,2024-10-09_12h36.23.466,avatar_quest_3AFC_legacy,2022.1.3,Win32,59.88023952,5f0fab5abdec9a1aff2b2744,62bca317d87d479cda00ba3d,6706be4208493754f3d16bee,,,,,,,,,,,,,,,,,,,,,,No Brainslug Difficult 2 No Money,12,images/assets/snowy_original.jpg,learning,20,images/assets/success.jpg,images/assets/gameover.jpg,,,,,,,,,,,,,0,7,7,8,1,,,,,,,,,,,,,,,,,,,,,,,,,,,,,,,,
,,,,,,,,,,,,5f0fab5abdec9a1aff2b2744,001,3,2024-10-09_12h36.23.466,avatar_quest_3AFC_legacy,2022.1.3,Win32,59.88023952,5f0fab5abdec9a1aff2b2744,62bca317d87d479cda00ba3d,6706be4208493754f3d16bee,,,,,,,,,,,,,,,,,,,,,,With Brainslug No Barriers With Money,0,images/assets/snowy_money.jpg,learning,10,images/assets/success_money.jpg,images/assets/gameover.jpg,,,,,,,,,,,,,0,8,8,4,1,,,,,,,,,,,,,,,,,,,,,,,,,,,,,,,,
,,,,,,,,,,,,5f0fab5abdec9a1aff2b2744,001,3,2024-10-09_12h36.23.466,avatar_quest_3AFC_legacy,2022.1.3,Win32,59.88023952,5f0fab5abdec9a1aff2b2744,62bca317d87d479cda00ba3d,6706be4208493754f3d16bee,,,,,,,,,,,,,,,,,,,,,,With Brainslug Difficult 2 No Money,12,images/assets/snowy_original.jpg,learning,20,images/assets/success.jpg,images/assets/gameover.jpg,,,,,,,,,,,,,0,9,9,3,1,,,,,,,,,,,,,,,,,,,,,,,,,,,,,,,,
,,,,,,,,,,,,5f0fab5abdec9a1aff2b2744,001,3,2024-10-09_12h36.23.466,avatar_quest_3AFC_legacy,2022.1.3,Win32,59.88023952,5f0fab5abdec9a1aff2b2744,62bca317d87d479cda00ba3d,6706be4208493754f3d16bee,,,,,,,,,,,,,,,,,,,,,,No Brainslug Difficult 1 No Money,6,images/assets/snowy_original.jpg,learning,20,images/assets/success.jpg,images/assets/gameover.jpg,,,,,,,,,,,,,0,10,10,6,1,,,,,,,,,,,,,,,,,,,,,,,,,,,,,,,,
,,,,,,,,,,,,5f0fab5abdec9a1aff2b2744,001,3,2024-10-09_12h36.23.466,avatar_quest_3AFC_legacy,2022.1.3,Win32,59.88023952,5f0fab5abdec9a1aff2b2744,62bca317d87d479cda00ba3d,6706be4208493754f3d16bee,,,,,,,,,,,,,,,,,,,,,,,,,,,,,,,,,,,,,,,,,,,,,,,,,,,,,,,11,0,11,0,1,,,,,,,,,,,,,,,,,,
,,,,,,,,,,,,5f0fab5abdec9a1aff2b2744,001,3,2024-10-09_12h36.23.466,avatar_quest_3AFC_legacy,2022.1.3,Win32,59.88023952,5f0fab5abdec9a1aff2b2744,62bca317d87d479cda00ba3d,6706be4208493754f3d16bee,,,,,,,,,,,,,,,,,,,,,,,,,,,,,,,,,,,,,,,,,,,,,,,,,,,,,,,,,,,,0,0,0,0,1,1,With Brainslug Difficult 1 No Money,images/assets/With Brainslug Difficult 1 No Money.png,With Brainslug Difficult 2 No Money,images/assets/With Brainslug Difficult 2 No Money.png,With Brainslug Difficult 2 With Money,images/assets/With Brainslug Difficult 2 With Money.png,Achievement vs. money,,,,,
,,,,,,,,,,,,5f0fab5abdec9a1aff2b2744,001,3,2024-10-09_12h36.23.466,avatar_quest_3AFC_legacy,2022.1.3,Win32,59.88023952,5f0fab5abdec9a1aff2b2744,62bca317d87d479cda00ba3d,6706be4208493754f3d16bee,,,,,,,,,,,,,,,,,,,,,,With Brainslug No Barriers No Money,0,images/assets/snowy_original.jpg,learning,10,images/assets/success.jpg,images/assets/gameover.jpg,,,,,,,,No Brainslug Difficult 1 No Money,No Brainslug No Barriers No Money,down,0.8126,"[""No Brainslug No Barriers No Money"",""No Brainslug No Barriers With Money""]",0,0,0,5,1,,,,,,,,,,,,,,,,,,,,,,,,,,,,,,,,
,,,,,,,,,,,,5f0fab5abdec9a1aff2b2744,001,3,2024-10-09_12h36.23.466,avatar_quest_3AFC_legacy,2022.1.3,Win32,59.88023952,5f0fab5abdec9a1aff2b2744,62bca317d87d479cda00ba3d,6706be4208493754f3d16bee,,,,,,,,,,,,,,,,,,,,,,With Brainslug Difficult 1 No Money,6,images/assets/snowy_original.jpg,learning,20,images/assets/success.jpg,images/assets/gameover.jpg,,,,,,,,,,,,,0,1,1,1,1,,,,,,,,,,,,,,,,,,,,,,,,,,,,,,,,
,,,,,,,,,,,,5f0fab5abdec9a1aff2b2744,001,3,2024-10-09_12h36.23.466,avatar_quest_3AFC_legacy,2022.1.3,Win32,59.88023952,5f0fab5abdec9a1aff2b2744,62bca317d87d479cda00ba3d,6706be4208493754f3d16bee,,,,,,,,,,,,,,,,,,,,,,No Brainslug Difficult 2 With Money,12,images/assets/snowy_money.jpg,learning,20,images/assets/success_money.jpg,images/assets/gameover.jpg,,,,,,,,,,,,,0,2,2,7,1,,,,,,,,,,,,,,,,,,,,,,,,,,,,,,,,
,,,,,,,,,,,,5f0fab5abdec9a1aff2b2744,001,3,2024-10-09_12h36.23.466,avatar_quest_3AFC_legacy,2022.1.3,Win32,59.88023952,5f0fab5abdec9a1aff2b2744,62bca317d87d479cda00ba3d,6706be4208493754f3d16bee,,,,,,,,,,,,,,,,,,,,,,With Brainslug Difficult 1 With Money,6,images/assets/snowy_money.jpg,learning,20,images/assets/success_money.jpg,images/assets/gameover.jpg,,,,,,,,,,,,,0,3,3,0,1,,,,,,,,,,,,,,,,,,,,,,,,,,,,,,,,
,,,,,,,,,,,,5f0fab5abdec9a1aff2b2744,001,3,2024-10-09_12h36.23.466,avatar_quest_3AFC_legacy,2022.1.3,Win32,59.88023952,5f0fab5abdec9a1aff2b2744,62bca317d87d479cda00ba3d,6706be4208493754f3d16bee,,,,,,,,,,,,,,,,,,,,,,With Brainslug No Barriers With Money,0,images/assets/snowy_money.jpg,learning,10,images/assets/success_money.jpg,images/assets/gameover.jpg,,,,,,,,,,,,,0,4,4,4,1,,,,,,,,,,,,,,,,,,,,,,,,,,,,,,,,
,,,,,,,,,,,,5f0fab5abdec9a1aff2b2744,001,3,2024-10-09_12h36.23.466,avatar_quest_3AFC_legacy,2022.1.3,Win32,59.88023952,5f0fab5abdec9a1aff2b2744,62bca317d87d479cda00ba3d,6706be4208493754f3d16bee,,,,,,,,,,,,,,,,,,,,,,With Brainslug Difficult 2 With Money,12,images/assets/snowy_money.jpg,learning,20,images/assets/success_money.jpg,images/assets/gameover.jpg,,,,,,,,,,,,,0,5,5,2,1,,,,,,,,,,,,,,,,,,,,,,,,,,,,,,,,
,,,,,,,,,,,,5f0fab5abdec9a1aff2b2744,001,3,2024-10-09_12h36.23.466,avatar_quest_3AFC_legacy,2022.1.3,Win32,59.88023952,5f0fab5abdec9a1aff2b2744,62bca317d87d479cda00ba3d,6706be4208493754f3d16bee,,,,,,,,,,,,,,,,,,,,,,No Brainslug Difficult 2 No Money,12,images/assets/snowy_original.jpg,learning,20,images/assets/success.jpg,images/assets/gameover.jpg,,,,,,,,,,,,,0,6,6,8,1,,,,,,,,,,,,,,,,,,,,,,,,,,,,,,,,
,,,,,,,,,,,,5f0fab5abdec9a1aff2b2744,001,3,2024-10-09_12h36.23.466,avatar_quest_3AFC_legacy,2022.1.3,Win32,59.88023952,5f0fab5abdec9a1aff2b2744,62bca317d87d479cda00ba3d,6706be4208493754f3d16bee,,,,,,,,,,,,,,,,,,,,,,No Brainslug No Barriers No Money,0,images/assets/snowy_original.jpg,learning,10,images/assets/success.jpg,images/assets/gameover.jpg,,,,,,,,,,,,,0,7,7,10,1,,,,,,,,,,,,,,,,,,,,,,,,,,,,,,,,
,,,,,,,,,,,,5f0fab5abdec9a1aff2b2744,001,3,2024-10-09_12h36.23.466,avatar_quest_3AFC_legacy,2022.1.3,Win32,59.88023952,5f0fab5abdec9a1aff2b2744,62bca317d87d479cda00ba3d,6706be4208493754f3d16bee,,,,,,,,,,,,,,,,,,,,,,No Brainslug No Barriers With Money,0,images/assets/snowy_money.jpg,learning,10,images/assets/success_money.jpg,images/assets/gameover.jpg,,,,,,,,,,,,,0,8,8,9,1,,,,,,,,,,,,,,,,,,,,,,,,,,,,,,,,
,,,,,,,,,,,,5f0fab5abdec9a1aff2b2744,001,3,2024-10-09_12h36.23.466,avatar_quest_3AFC_legacy,2022.1.3,Win32,59.88023952,5f0fab5abdec9a1aff2b2744,62bca317d87d479cda00ba3d,6706be4208493754f3d16bee,"[""left"",""right"",""up"",""left"",""left"",""right"",""right"",""right"",""right"",""left"",""left"",""left"",""up"",""right"",""right"",""right""]","[0.7541000000014719,1.2214999999999918,1.8725000000000023,3.1398000000044703,3.474100000001499,4.095600000001525,4.391200000002982,4.608100000001514,5.1995000000000005,5.4253000000044835,5.615600000001507,5.793000000000006,6.415500000000009,6.927500000000009,7.167700000002981,7.777500000000032]",,calibration,No Brainslug Difficult 1 No Money,16,7.9348,7.9411,13,5,0,FALSE,na,na,na,na,,,,,,,,,,,,,,,,,,,,,,,,,,,,,,,,,,0,0,0,0,1,,,,,,,,,,,,,,,,,,,,,,,
,,,,,,,,,,,,5f0fab5abdec9a1aff2b2744,001,3,2024-10-09_12h36.23.466,avatar_quest_3AFC_legacy,2022.1.3,Win32,59.88023952,5f0fab5abdec9a1aff2b2744,62bca317d87d479cda00ba3d,6706be4208493754f3d16bee,,,,,,,,,,,,,,,,,,,,,,No Brainslug Difficult 1 No Money,6,images/assets/snowy_original.jpg,learning,20,images/assets/success.jpg,images/assets/gameover.jpg,,,,,,,,,,,,,0,9,9,6,1,,,,,,,,,,,,,,,,,,,,,,,,,,,,,,,,
,,,,,,,,,,,,5f0fab5abdec9a1aff2b2744,001,3,2024-10-09_12h36.23.466,avatar_quest_3AFC_legacy,2022.1.3,Win32,59.88023952,5f0fab5abdec9a1aff2b2744,62bca317d87d479cda00ba3d,6706be4208493754f3d16bee,,,,,,,,,,,,,,,,,,,,,,With Brainslug Difficult 2 No Money,12,images/assets/snowy_original.jpg,learning,20,images/assets/success.jpg,images/assets/gameover.jpg,,,,,,,,,,,,,0,10,10,3,1,,,,,,,,,,,,,,,,,,,,,,,,,,,,,,,,
,,,,,,,,,,,,5f0fab5abdec9a1aff2b2744,001,3,2024-10-09_12h36.23.466,avatar_quest_3AFC_legacy,2022.1.3,Win32,59.88023952,5f0fab5abdec9a1aff2b2744,62bca317d87d479cda00ba3d,6706be4208493754f3d16bee,,,,,,,,,,,,,,,,,,,,,,,,,,,,,,,,,,,,,,,,,,,,,,,,,,,,,,,0,0,0,0,1,,,,,,,,,,,,,,,,,,
,,,,,,,,,,,,5f0fab5abdec9a1aff2b2744,001,3,2024-10-09_12h36.23.466,avatar_quest_3AFC_legacy,2022.1.3,Win32,59.88023952,5f0fab5abdec9a1aff2b2744,62bca317d87d479cda00ba3d,6706be4208493754f3d16bee,,,,,,,,,,,,,,,,,,,,,,With Brainslug Difficult 1 No Money,6,images/assets/snowy_original.jpg,learning,20,images/assets/success.jpg,images/assets/gameover.jpg,,,,,,,,No Brainslug No Barriers No Money,No Brainslug No Barriers No Money,left,1.2239,"[""No Brainslug Difficult 1 No Money"",""No Brainslug No Barriers With Money""]",0,0,0,1,1,,,,,,,,,,,,,,,,,,,,,,,,,,,,,,,,
,,,,,,,,,,,,5f0fab5abdec9a1aff2b2744,001,3,2024-10-09_12h36.23.466,avatar_quest_3AFC_legacy,2022.1.3,Win32,59.88023952,5f0fab5abdec9a1aff2b2744,62bca317d87d479cda00ba3d,6706be4208493754f3d16bee,,,,,,,,,,,,,,,,,,,,,,With Brainslug Difficult 2 With Money,12,images/assets/snowy_money.jpg,learning,20,images/assets/success_money.jpg,images/assets/gameover.jpg,,,,,,,,,,,,,0,1,1,2,1,,,,,,,,,,,,,,,,,,,,,,,,,,,,,,,,
,,,,,,,,,,,,5f0fab5abdec9a1aff2b2744,001,3,2024-10-09_12h36.23.466,avatar_quest_3AFC_legacy,2022.1.3,Win32,59.88023952,5f0fab5abdec9a1aff2b2744,62bca317d87d479cda00ba3d,6706be4208493754f3d16bee,,,,,,,,,,,,,,,,,,,,,,With Brainslug Difficult 1 With Money,6,images/assets/snowy_money.jpg,learning,20,images/assets/success_money.jpg,images/assets/gameover.jpg,,,,,,,,,,,,,0,2,2,0,1,,,,,,,,,,,,,,,,,,,,,,,,,,,,,,,,
,,,,,,,,,,,,5f0fab5abdec9a1aff2b2744,001,3,2024-10-09_12h36.23.466,avatar_quest_3AFC_legacy,2022.1.3,Win32,59.88023952,5f0fab5abdec9a1aff2b2744,62bca317d87d479cda00ba3d,6706be4208493754f3d16bee,,,,,,,,,,,,,,,,,,,,,,No Brainslug Difficult 2 No Money,12,images/assets/snowy_original.jpg,learning,20,images/assets/success.jpg,images/assets/gameover.jpg,,,,,,,,,,,,,0,3,3,8,1,,,,,,,,,,,,,,,,,,,,,,,,,,,,,,,,
,,,,,,,,,,,,5f0fab5abdec9a1aff2b2744,001,3,2024-10-09_12h36.23.466,avatar_quest_3AFC_legacy,2022.1.3,Win32,59.88023952,5f0fab5abdec9a1aff2b2744,62bca317d87d479cda00ba3d,6706be4208493754f3d16bee,,,,,,,,,,,,,,,,,,,,,,With Brainslug Difficult 2 No Money,12,images/assets/snowy_original.jpg,learning,20,images/assets/success.jpg,images/assets/gameover.jpg,,,,,,,,,,,,,0,4,4,3,1,,,,,,,,,,,,,,,,,,,,,,,,,,,,,,,,
,,,,,,,,,,,,5f0fab5abdec9a1aff2b2744,001,3,2024-10-09_12h36.23.466,avatar_quest_3AFC_legacy,2022.1.3,Win32,59.88023952,5f0fab5abdec9a1aff2b2744,62bca317d87d479cda00ba3d,6706be4208493754f3d16bee,,,,,,,,,,,,,,,,,,,,,,With Brainslug No Barriers With Money,0,images/assets/snowy_money.jpg,learning,10,images/assets/success_money.jpg,images/assets/gameover.jpg,,,,,,,,,,,,,0,5,5,4,1,,,,,,,,,,,,,,,,,,,,,,,,,,,,,,,,
,,,,,,,,,,,,5f0fab5abdec9a1aff2b2744,001,3,2024-10-09_12h36.23.466,avatar_quest_3AFC_legacy,2022.1.3,Win32,59.88023952,5f0fab5abdec9a1aff2b2744,62bca317d87d479cda00ba3d,6706be4208493754f3d16bee,"[""left"",""left"",""right"",""left"",""left"",""right"",""right"",""right""]","[1.6363999999985026,2.1693999999984612,2.936899999998502,3.4442999999969857,4.1376000000014415,4.40479999999701,4.8386999999955265,5.0921999999955005]",,calibration,No Brainslug No Barriers No Money,17,6.34784,5.2718,8,0,0,TRUE,na,na,na,na,,,,,,,,,,,,,,,,,,,,,,,,,,,,,,,,,,0,0,0,0,1,,,,,,,,,,,,,,,,,,,,,,,
,,,,,,,,,,,,5f0fab5abdec9a1aff2b2744,001,3,2024-10-09_12h36.23.466,avatar_quest_3AFC_legacy,2022.1.3,Win32,59.88023952,5f0fab5abdec9a1aff2b2744,62bca317d87d479cda00ba3d,6706be4208493754f3d16bee,,,,,,,,,,,,,,,,,,,,,,No Brainslug No Barriers No Money,0,images/assets/snowy_original.jpg,learning,10,images/assets/success.jpg,images/assets/gameover.jpg,,,,,,,,,,,,,0,6,6,10,1,,,,,,,,,,,,,,,,,,,,,,,,,,,,,,,,
,,,,,,,,,,,,5f0fab5abdec9a1aff2b2744,001,3,2024-10-09_12h36.23.466,avatar_quest_3AFC_legacy,2022.1.3,Win32,59.88023952,5f0fab5abdec9a1aff2b2744,62bca317d87d479cda00ba3d,6706be4208493754f3d16bee,,,,,,,,,,,,,,,,,,,,,,No Brainslug No Barriers With Money,0,images/assets/snowy_money.jpg,learning,10,images/assets/success_money.jpg,images/assets/gameover.jpg,,,,,,,,,,,,,0,7,7,9,1,,,,,,,,,,,,,,,,,,,,,,,,,,,,,,,,
,,,,,,,,,,,,5f0fab5abdec9a1aff2b2744,001,3,2024-10-09_12h36.23.466,avatar_quest_3AFC_legacy,2022.1.3,Win32,59.88023952,5f0fab5abdec9a1aff2b2744,62bca317d87d479cda00ba3d,6706be4208493754f3d16bee,,,,,,,,,,,,,,,,,,,,,,With Brainslug No Barriers No Money,0,images/assets/snowy_original.jpg,learning,10,images/assets/success.jpg,images/assets/gameover.jpg,,,,,,,,,,,,,0,8,8,5,1,,,,,,,,,,,,,,,,,,,,,,,,,,,,,,,,
,,,,,,,,,,,,5f0fab5abdec9a1aff2b2744,001,3,2024-10-09_12h36.23.466,avatar_quest_3AFC_legacy,2022.1.3,Win32,59.88023952,5f0fab5abdec9a1aff2b2744,62bca317d87d479cda00ba3d,6706be4208493754f3d16bee,,,,,,,,,,,,,,,,,,,,,,No Brainslug Difficult 2 With Money,12,images/assets/snowy_money.jpg,learning,20,images/assets/success_money.jpg,images/assets/gameover.jpg,,,,,,,,,,,,,0,9,9,7,1,,,,,,,,,,,,,,,,,,,,,,,,,,,,,,,,
,,,,,,,,,,,,5f0fab5abdec9a1aff2b2744,001,3,2024-10-09_12h36.23.466,avatar_quest_3AFC_legacy,2022.1.3,Win32,59.88023952,5f0fab5abdec9a1aff2b2744,62bca317d87d479cda00ba3d,6706be4208493754f3d16bee,,,,,,,,,,,,,,,,,,,,,,No Brainslug Difficult 1 No Money,6,images/assets/snowy_original.jpg,learning,20,images/assets/success.jpg,images/assets/gameover.jpg,,,,,,,,,,,,,0,10,10,6,1,,,,,,,,,,,,,,,,,,,,,,,,,,,,,,,,
,,,,,,,,,,,,5f0fab5abdec9a1aff2b2744,001,3,2024-10-09_12h36.23.466,avatar_quest_3AFC_legacy,2022.1.3,Win32,59.88023952,5f0fab5abdec9a1aff2b2744,62bca317d87d479cda00ba3d,6706be4208493754f3d16bee,,,,,,,,,,,,,,,,,,,,,,,,,,,,,,,,,,,,,,,,,,,,,,,,,,,,,,,1,0,1,0,1,,,,,,,,,,,,,,,,,,
,,,,,,,,,,,,5f0fab5abdec9a1aff2b2744,001,3,2024-10-09_12h36.23.466,avatar_quest_3AFC_legacy,2022.1.3,Win32,59.88023952,5f0fab5abdec9a1aff2b2744,62bca317d87d479cda00ba3d,6706be4208493754f3d16bee,,,,,,,,,,,,,,,,,,,,,,With Brainslug Difficult 1 No Money,6,images/assets/snowy_original.jpg,learning,20,images/assets/success.jpg,images/assets/gameover.jpg,,,,,,,,No Brainslug No Barriers With Money,No Brainslug No Barriers No Money,right,0.748,"[""No Brainslug No Barriers No Money"",""No Brainslug Difficult 1 No Money""]",0,0,0,1,1,,,,,,,,,,,,,,,,,,,,,,,,,,,,,,,,
,,,,,,,,,,,,5f0fab5abdec9a1aff2b2744,001,3,2024-10-09_12h36.23.466,avatar_quest_3AFC_legacy,2022.1.3,Win32,59.88023952,5f0fab5abdec9a1aff2b2744,62bca317d87d479cda00ba3d,6706be4208493754f3d16bee,"[""right"",""right"",""left"",""left"",""left"",""up"",""right"",""right"",""up"",""up"",""down"",""left""]","[0.3592000000029998,0.9784999999999968,1.5267000000029611,1.7783999999984985,1.9278999999985444,2.3781000000014956,3.2346000000014783,3.698600000001477,4.179100000001483,4.434399999998504,5.154600000001494,5.586600000001511]",,calibration,No Brainslug No Barriers With Money,18,6.34784,6.3561,7,0,113,FALSE,na,na,na,na,,,,,,,,,,,,,,,,,,,,,,,,,,,,,,,,,,0,0,0,0,1,,,,,,,,,,,,,,,,,,,,,,,
,,,,,,,,,,,,5f0fab5abdec9a1aff2b2744,001,3,2024-10-09_12h36.23.466,avatar_quest_3AFC_legacy,2022.1.3,Win32,59.88023952,5f0fab5abdec9a1aff2b2744,62bca317d87d479cda00ba3d,6706be4208493754f3d16bee,,,,,,,,,,,,,,,,,,,,,,No Brainslug No Barriers With Money,0,images/assets/snowy_money.jpg,learning,10,images/assets/success_money.jpg,images/assets/gameover.jpg,,,,,,,,,,,,,0,1,1,9,1,,,,,,,,,,,,,,,,,,,,,,,,,,,,,,,,
,,,,,,,,,,,,5f0fab5abdec9a1aff2b2744,001,3,2024-10-09_12h36.23.466,avatar_quest_3AFC_legacy,2022.1.3,Win32,59.88023952,5f0fab5abdec9a1aff2b2744,62bca317d87d479cda00ba3d,6706be4208493754f3d16bee,,,,,,,,,,,,,,,,,,,,,,No Brainslug Difficult 1 No Money,6,images/assets/snowy_original.jpg,learning,20,images/assets/success.jpg,images/assets/gameover.jpg,,,,,,,,,,,,,0,2,2,6,1,,,,,,,,,,,,,,,,,,,,,,,,,,,,,,,,
,,,,,,,,,,,,5f0fab5abdec9a1aff2b2744,001,3,2024-10-09_12h36.23.466,avatar_quest_3AFC_legacy,2022.1.3,Win32,59.88023952,5f0fab5abdec9a1aff2b2744,62bca317d87d479cda00ba3d,6706be4208493754f3d16bee,,,,,,,,,,,,,,,,,,,,,,With Brainslug No Barriers With Money,0,images/assets/snowy_money.jpg,learning,10,images/assets/success_money.jpg,images/assets/gameover.jpg,,,,,,,,,,,,,0,3,3,4,1,,,,,,,,,,,,,,,,,,,,,,,,,,,,,,,,
,,,,,,,,,,,,5f0fab5abdec9a1aff2b2744,001,3,2024-10-09_12h36.23.466,avatar_quest_3AFC_legacy,2022.1.3,Win32,59.88023952,5f0fab5abdec9a1aff2b2744,62bca317d87d479cda00ba3d,6706be4208493754f3d16bee,,,,,,,,,,,,,,,,,,,,,,No Brainslug Difficult 2 With Money,12,images/assets/snowy_money.jpg,learning,20,images/assets/success_money.jpg,images/assets/gameover.jpg,,,,,,,,,,,,,0,4,4,7,1,,,,,,,,,,,,,,,,,,,,,,,,,,,,,,,,
,,,,,,,,,,,,5f0fab5abdec9a1aff2b2744,001,3,2024-10-09_12h36.23.466,avatar_quest_3AFC_legacy,2022.1.3,Win32,59.88023952,5f0fab5abdec9a1aff2b2744,62bca317d87d479cda00ba3d,6706be4208493754f3d16bee,,,,,,,,,,,,,,,,,,,,,,With Brainslug No Barriers No Money,0,images/assets/snowy_original.jpg,learning,10,images/assets/success.jpg,images/assets/gameover.jpg,,,,,,,,,,,,,0,5,5,5,1,,,,,,,,,,,,,,,,,,,,,,,,,,,,,,,,
,,,,,,,,,,,,5f0fab5abdec9a1aff2b2744,001,3,2024-10-09_12h36.23.466,avatar_quest_3AFC_legacy,2022.1.3,Win32,59.88023952,5f0fab5abdec9a1aff2b2744,62bca317d87d479cda00ba3d,6706be4208493754f3d16bee,,,,,,,,,,,,,,,,,,,,,,No Brainslug No Barriers No Money,0,images/assets/snowy_original.jpg,learning,10,images/assets/success.jpg,images/assets/gameover.jpg,,,,,,,,,,,,,0,6,6,10,1,,,,,,,,,,,,,,,,,,,,,,,,,,,,,,,,
,,,,,,,,,,,,5f0fab5abdec9a1aff2b2744,001,3,2024-10-09_12h36.23.466,avatar_quest_3AFC_legacy,2022.1.3,Win32,59.88023952,5f0fab5abdec9a1aff2b2744,62bca317d87d479cda00ba3d,6706be4208493754f3d16bee,,,,,,,,,,,,,,,,,,,,,,With Brainslug Difficult 2 No Money,12,images/assets/snowy_original.jpg,learning,20,images/assets/success.jpg,images/assets/gameover.jpg,,,,,,,,,,,,,0,7,7,3,1,,,,,,,,,,,,,,,,,,,,,,,,,,,,,,,,
,,,,,,,,,,,,5f0fab5abdec9a1aff2b2744,001,3,2024-10-09_12h36.23.466,avatar_quest_3AFC_legacy,2022.1.3,Win32,59.88023952,5f0fab5abdec9a1aff2b2744,62bca317d87d479cda00ba3d,6706be4208493754f3d16bee,,,,,,,,,,,,,,,,,,,,,,With Brainslug Difficult 1 With Money,6,images/assets/snowy_money.jpg,learning,20,images/assets/success_money.jpg,images/assets/gameover.jpg,,,,,,,,,,,,,0,8,8,0,1,,,,,,,,,,,,,,,,,,,,,,,,,,,,,,,,
,,,,,,,,,,,,5f0fab5abdec9a1aff2b2744,001,3,2024-10-09_12h36.23.466,avatar_quest_3AFC_legacy,2022.1.3,Win32,59.88023952,5f0fab5abdec9a1aff2b2744,62bca317d87d479cda00ba3d,6706be4208493754f3d16bee,,,,,,,,,,,,,,,,,,,,,,No Brainslug Difficult 2 No Money,12,images/assets/snowy_original.jpg,learning,20,images/assets/success.jpg,images/assets/gameover.jpg,,,,,,,,,,,,,0,9,9,8,1,,,,,,,,,,,,,,,,,,,,,,,,,,,,,,,,
,,,,,,,,,,,,5f0fab5abdec9a1aff2b2744,001,3,2024-10-09_12h36.23.466,avatar_quest_3AFC_legacy,2022.1.3,Win32,59.88023952,5f0fab5abdec9a1aff2b2744,62bca317d87d479cda00ba3d,6706be4208493754f3d16bee,,,,,,,,,,,,,,,,,,,,,,With Brainslug Difficult 2 With Money,12,images/assets/snowy_money.jpg,learning,20,images/assets/success_money.jpg,images/assets/gameover.jpg,,,,,,,,,,,,,0,10,10,2,1,,,,,,,,,,,,,,,,,,,,,,,,,,,,,,,,
,,,,,,,,,,,,5f0fab5abdec9a1aff2b2744,001,3,2024-10-09_12h36.23.466,avatar_quest_3AFC_legacy,2022.1.3,Win32,59.88023952,5f0fab5abdec9a1aff2b2744,62bca317d87d479cda00ba3d,6706be4208493754f3d16bee,,,,,,,,,,,,,,,,,,,,,,,,,,,,,,,,,,,,,,,,,,,,,,,,,,,,,,,2,0,2,0,1,,,,,,,,,,,,,,,,,,
,,,,,,,,,,,,5f0fab5abdec9a1aff2b2744,001,3,2024-10-09_12h36.23.466,avatar_quest_3AFC_legacy,2022.1.3,Win32,59.88023952,5f0fab5abdec9a1aff2b2744,62bca317d87d479cda00ba3d,6706be4208493754f3d16bee,,,,,,,,,,,,,,,,,,,,,,With Brainslug Difficult 2 No Money,12,images/assets/snowy_original.jpg,learning,20,images/assets/success.jpg,images/assets/gameover.jpg,,,,,,,,No Brainslug No Barriers With Money,No Brainslug No Barriers No Money,right,1.5727,"[""No Brainslug No Barriers No Money"",""No Brainslug Difficult 1 No Money""]",0,0,0,3,1,,,,,,,,,,,,,,,,,,,,,,,,,,,,,,,,
,,,,,,,,,,,,5f0fab5abdec9a1aff2b2744,001,3,2024-10-09_12h36.23.466,avatar_quest_3AFC_legacy,2022.1.3,Win32,59.88023952,5f0fab5abdec9a1aff2b2744,62bca317d87d479cda00ba3d,6706be4208493754f3d16bee,,,,,,,,,,,,,,,,,,,,,,With Brainslug No Barriers With Money,0,images/assets/snowy_money.jpg,learning,10,images/assets/success_money.jpg,images/assets/gameover.jpg,,,,,,,,,,,,,0,1,1,4,1,,,,,,,,,,,,,,,,,,,,,,,,,,,,,,,,
,,,,,,,,,,,,5f0fab5abdec9a1aff2b2744,001,3,2024-10-09_12h36.23.466,avatar_quest_3AFC_legacy,2022.1.3,Win32,59.88023952,5f0fab5abdec9a1aff2b2744,62bca317d87d479cda00ba3d,6706be4208493754f3d16bee,,,,,,,,,,,,,,,,,,,,,,No Brainslug No Barriers No Money,0,images/assets/snowy_original.jpg,learning,10,images/assets/success.jpg,images/assets/gameover.jpg,,,,,,,,,,,,,0,2,2,10,1,,,,,,,,,,,,,,,,,,,,,,,,,,,,,,,,
,,,,,,,,,,,,5f0fab5abdec9a1aff2b2744,001,3,2024-10-09_12h36.23.466,avatar_quest_3AFC_legacy,2022.1.3,Win32,59.88023952,5f0fab5abdec9a1aff2b2744,62bca317d87d479cda00ba3d,6706be4208493754f3d16bee,,,,,,,,,,,,,,,,,,,,,,With Brainslug Difficult 2 With Money,12,images/assets/snowy_money.jpg,learning,20,images/assets/success_money.jpg,images/assets/gameover.jpg,,,,,,,,,,,,,0,3,3,2,1,,,,,,,,,,,,,,,,,,,,,,,,,,,,,,,,
