instruction_mouse.x,instruction_mouse.y,instruction_mouse.leftButton,instruction_mouse.midButton,instruction_mouse.rightButton,instruction_mouse.clicked_name,introduce_general.thisRepN,introduce_general.thisTrialN,introduce_general.thisN,introduce_general.thisIndex,introduce_general.ran,thisInstruction,participant,session,game version,date,expName,psychopyVersion,OS,frameRate,PROLIFIC PID,STUDY ID,SESSION ID,move_resp.keys,move_resp.rt,end_resp.keys,phase,condition,trial_num,time_limit,completion_time,left_right_steps,number_of_obsticle_blocks,number_of_tree_blocks,quest_complete,responsivity_summary,av_inter_brainslug_intervals,proportion_jitter,jitter_direction_proportion_right,calibration_phase.thisRepN,calibration_phase.thisTrialN,calibration_phase.thisN,calibration_phase.thisIndex,calibration_phase.ran,BlockLabel,nObsticles,backgroundImage,phaseLabel,n_side_steps,success_im,gameover_im,success_condition,introduce_learning_or_choice.thisRepN,introduce_learning_or_choice.thisTrialN,introduce_learning_or_choice.thisN,introduce_learning_or_choice.thisIndex,introduce_learning_or_choice.ran,choice_resp.keys,chosen_quest,unchosen_quest,choice_resp_3afc.keys,choice_resp_3afc.rt,unchosen_quests,forced_choice_trial.thisRepN,forced_choice_trial.thisTrialN,forced_choice_trial.thisN,forced_choice_trial.thisIndex,forced_choice_trial.ran,enjoyment_slider.response,enjoyment_slider.rt,effort_slider.response,effort_slider.rt,show_loop2.thisRepN,show_loop2.thisTrialN,show_loop2.thisN,show_loop2.thisIndex,show_loop2.ran,trials_per_block.thisRepN,trials_per_block.thisTrialN,trials_per_block.thisN,trials_per_block.thisIndex,trials_per_block.ran,decision_phase_AFC.thisRepN,decision_phase_AFC.thisTrialN,decision_phase_AFC.thisN,decision_phase_AFC.thisIndex,decision_phase_AFC.ran,blockN,BlockLabel1,questIm1,BlockLabel2,questIm2,BlockLabel3,questIm3,quest_condition,showForcedChoice.thisRepN,showForcedChoice.thisTrialN,showForcedChoice.thisN,showForcedChoice.thisIndex,showForcedChoice.ran
0.420855035,-0.404618056,1,0,0,instruction_button,0,0,0,0,1,images/instructions_part1_LSM_taskversion1/Slide1.JPG,615374d9fd9b41728babd974,001,3,2025-04-15_08h38.08.680,avatar_quest_3AFC_legacy,2022.1.3,MacIntel,60.24096386,615374d9fd9b41728babd974,67fe37cb3bd870bba73819bd,67fe5283e3ad45c2881fd609,,,,,,,,,,,,,,,,,,,,,,,,,,,,,,,,,,,,,,,,,,,,,,,,,,,,,,,,,,,,,,,,,,,,,,,,,,,,,
0.420855035,-0.404618056,1,0,0,instruction_button,0,1,1,1,1,images/instructions_part1_LSM_taskversion1/Slide2.JPG,615374d9fd9b41728babd974,001,3,2025-04-15_08h38.08.680,avatar_quest_3AFC_legacy,2022.1.3,MacIntel,60.24096386,615374d9fd9b41728babd974,67fe37cb3bd870bba73819bd,67fe5283e3ad45c2881fd609,,,,,,,,,,,,,,,,,,,,,,,,,,,,,,,,,,,,,,,,,,,,,,,,,,,,,,,,,,,,,,,,,,,,,,,,,,,,,
0.420855035,-0.404618056,1,0,0,instruction_button,0,2,2,2,1,images/instructions_part1_LSM_taskversion1/Slide3.JPG,615374d9fd9b41728babd974,001,3,2025-04-15_08h38.08.680,avatar_quest_3AFC_legacy,2022.1.3,MacIntel,60.24096386,615374d9fd9b41728babd974,67fe37cb3bd870bba73819bd,67fe5283e3ad45c2881fd609,,,,,,,,,,,,,,,,,,,,,,,,,,,,,,,,,,,,,,,,,,,,,,,,,,,,,,,,,,,,,,,,,,,,,,,,,,,,,
0.417391493,-0.401375868,1,0,0,instruction_button,0,3,3,3,1,images/instructions_part1_LSM_taskversion1/Slide3.5.JPG,615374d9fd9b41728babd974,001,3,2025-04-15_08h38.08.680,avatar_quest_3AFC_legacy,2022.1.3,MacIntel,60.24096386,615374d9fd9b41728babd974,67fe37cb3bd870bba73819bd,67fe5283e3ad45c2881fd609,,,,,,,,,,,,,,,,,,,,,,,,,,,,,,,,,,,,,,,,,,,,,,,,,,,,,,,,,,,,,,,,,,,,,,,,,,,,,
0.417391493,-0.401375868,1,0,0,instruction_button,0,4,4,4,1,images/instructions_part1_LSM_taskversion1/Slide4.JPG,615374d9fd9b41728babd974,001,3,2025-04-15_08h38.08.680,avatar_quest_3AFC_legacy,2022.1.3,MacIntel,60.24096386,615374d9fd9b41728babd974,67fe37cb3bd870bba73819bd,67fe5283e3ad45c2881fd609,,,,,,,,,,,,,,,,,,,,,,,,,,,,,,,,,,,,,,,,,,,,,,,,,,,,,,,,,,,,,,,,,,,,,,,,,,,,,
0.417391493,-0.401375868,1,0,0,instruction_button,0,5,5,5,1,images/instructions_part1_LSM_taskversion1/Slide6.5.JPG,615374d9fd9b41728babd974,001,3,2025-04-15_08h38.08.680,avatar_quest_3AFC_legacy,2022.1.3,MacIntel,60.24096386,615374d9fd9b41728babd974,67fe37cb3bd870bba73819bd,67fe5283e3ad45c2881fd609,,,,,,,,,,,,,,,,,,,,,,,,,,,,,,,,,,,,,,,,,,,,,,,,,,,,,,,,,,,,,,,,,,,,,,,,,,,,,
,,,,,,,,,,,,615374d9fd9b41728babd974,001,3,2025-04-15_08h38.08.680,avatar_quest_3AFC_legacy,2022.1.3,MacIntel,60.24096386,615374d9fd9b41728babd974,67fe37cb3bd870bba73819bd,67fe5283e3ad45c2881fd609,"[""left"",""left"",""left"",""right""]","[4.374699999928467,4.4879999999999995,4.822999999999993,6.923199999928471]",,calibration,No Brainslug No Barriers No Money,1,100,7.016,4,0,93,TRUE,na,na,na,na,0,0,0,0,1,No Brainslug No Barriers No Money,0,images/assets/snowy_original.jpg,calibration,10,images/assets/success.jpg,images/assets/gameover.jpg,never,,,,,,,,,,,,,,,,,,,,,,,,,,,,,,,,,,,,,,,,,,,,,,,,
,,,,,,,,,,,,615374d9fd9b41728babd974,001,3,2025-04-15_08h38.08.680,avatar_quest_3AFC_legacy,2022.1.3,MacIntel,60.24096386,615374d9fd9b41728babd974,67fe37cb3bd870bba73819bd,67fe5283e3ad45c2881fd609,"[""right"",""up"",""up"",""left"",""left"",""left"",""left"",""right"",""right"",""right"",""right"",""up""]","[0.16320000004768076,1.5634999999999906,2.0291000000238455,2.6653000000715252,2.948999999999998,3.150800000071527,3.4302000000476767,4.012999999999991,4.179999999999993,4.36390000009537,4.582600000023845,5.350999999999999]",,calibration,No Brainslug No Barriers No Money,2,100,5.4469,9,0,5,TRUE,na,na,na,na,0,1,1,1,1,No Brainslug No Barriers No Money,0,images/assets/snowy_original.jpg,calibration,10,images/assets/success.jpg,images/assets/gameover.jpg,never,,,,,,,,,,,,,,,,,,,,,,,,,,,,,,,,,,,,,,,,,,,,,,,,
,,,,,,,,,,,,615374d9fd9b41728babd974,001,3,2025-04-15_08h38.08.680,avatar_quest_3AFC_legacy,2022.1.3,MacIntel,60.24096386,615374d9fd9b41728babd974,67fe37cb3bd870bba73819bd,67fe5283e3ad45c2881fd609,"[""up"",""left"",""left"",""left"",""right"",""right"",""right"",""right"",""right"",""up"",""down"",""down"",""up"",""left"",""left"",""left""]","[0.11360000002385107,2.6481000000238453,2.8963999999761683,3.1301000000238446,3.6463999999761683,3.8633000000715327,4.064000000000007,4.2806000000238384,4.497,5.007600000023842,6.64800000000001,6.880899999976165,7.134399999976168,12.28139999997616,12.465200000047687,12.664000000000001]",,calibration,No Brainslug No Barriers No Money,3,100,13.4999,10,0,480,TRUE,na,na,na,na,0,2,2,2,1,No Brainslug No Barriers No Money,0,images/assets/snowy_original.jpg,calibration,10,images/assets/success.jpg,images/assets/gameover.jpg,never,,,,,,,,,,,,,,,,,,,,,,,,,,,,,,,,,,,,,,,,,,,,,,,,
0.408328993,-0.393346354,1,0,0,instruction_button,,,,,,images/instructions_part2_LSM_taskversion3.jpg,615374d9fd9b41728babd974,001,3,2025-04-15_08h38.08.680,avatar_quest_3AFC_legacy,2022.1.3,MacIntel,60.24096386,615374d9fd9b41728babd974,67fe37cb3bd870bba73819bd,67fe5283e3ad45c2881fd609,,,,,,,,,,,,,,,,,,,,,,,,,,,,,,0,0,0,0,1,,,,,,,,,,,,,,,,,,,,,,,,,,,,,,,,,,,,,,,,,,,
,,,,,,,,,,,,615374d9fd9b41728babd974,001,3,2025-04-15_08h38.08.680,avatar_quest_3AFC_legacy,2022.1.3,MacIntel,60.24096386,615374d9fd9b41728babd974,67fe37cb3bd870bba73819bd,67fe5283e3ad45c2881fd609,,,,,,,,,,,,,,,,,,,,,,No Brainslug Difficult 2 With Money,12,images/assets/snowy_money.jpg,learning,20,images/assets/success_money.jpg,images/assets/gameover.jpg,,,,,,,,With Brainslug Difficult 2 With Money,With Brainslug Difficult 1 No Money,right,4.2465,"[""With Brainslug Difficult 1 No Money"",""With Brainslug Difficult 2 No Money""]",0,0,0,7,1,,,,,,,,,,,,,,,,,,,,,,,,,,,,,,,,
,,,,,,,,,,,,615374d9fd9b41728babd974,001,3,2025-04-15_08h38.08.680,avatar_quest_3AFC_legacy,2022.1.3,MacIntel,60.24096386,615374d9fd9b41728babd974,67fe37cb3bd870bba73819bd,67fe5283e3ad45c2881fd609,,,,,,,,,,,,,,,,,,,,,,No Brainslug No Barriers With Money,0,images/assets/snowy_money.jpg,learning,10,images/assets/success_money.jpg,images/assets/gameover.jpg,,,,,,,,,,,,,0,1,1,9,1,,,,,,,,,,,,,,,,,,,,,,,,,,,,,,,,
,,,,,,,,,,,,615374d9fd9b41728babd974,001,3,2025-04-15_08h38.08.680,avatar_quest_3AFC_legacy,2022.1.3,MacIntel,60.24096386,615374d9fd9b41728babd974,67fe37cb3bd870bba73819bd,67fe5283e3ad45c2881fd609,,,,,,,,,,,,,,,,,,,,,,No Brainslug No Barriers No Money,0,images/assets/snowy_original.jpg,learning,10,images/assets/success.jpg,images/assets/gameover.jpg,,,,,,,,,,,,,0,2,2,10,1,,,,,,,,,,,,,,,,,,,,,,,,,,,,,,,,
,,,,,,,,,,,,615374d9fd9b41728babd974,001,3,2025-04-15_08h38.08.680,avatar_quest_3AFC_legacy,2022.1.3,MacIntel,60.24096386,615374d9fd9b41728babd974,67fe37cb3bd870bba73819bd,67fe5283e3ad45c2881fd609,,,,,,,,,,,,,,,,,,,,,,With Brainslug Difficult 1 With Money,6,images/assets/snowy_money.jpg,learning,20,images/assets/success_money.jpg,images/assets/gameover.jpg,,,,,,,,,,,,,0,3,3,0,1,,,,,,,,,,,,,,,,,,,,,,,,,,,,,,,,
,,,,,,,,,,,,615374d9fd9b41728babd974,001,3,2025-04-15_08h38.08.680,avatar_quest_3AFC_legacy,2022.1.3,MacIntel,60.24096386,615374d9fd9b41728babd974,67fe37cb3bd870bba73819bd,67fe5283e3ad45c2881fd609,,,,,,,,,,,,,,,,,,,,,,With Brainslug No Barriers No Money,0,images/assets/snowy_original.jpg,learning,10,images/assets/success.jpg,images/assets/gameover.jpg,,,,,,,,,,,,,0,4,4,5,1,,,,,,,,,,,,,,,,,,,,,,,,,,,,,,,,
,,,,,,,,,,,,615374d9fd9b41728babd974,001,3,2025-04-15_08h38.08.680,avatar_quest_3AFC_legacy,2022.1.3,MacIntel,60.24096386,615374d9fd9b41728babd974,67fe37cb3bd870bba73819bd,67fe5283e3ad45c2881fd609,,,,,,,,,,,,,,,,,,,,,,With Brainslug No Barriers With Money,0,images/assets/snowy_money.jpg,learning,10,images/assets/success_money.jpg,images/assets/gameover.jpg,,,,,,,,,,,,,0,5,5,4,1,,,,,,,,,,,,,,,,,,,,,,,,,,,,,,,,
,,,,,,,,,,,,615374d9fd9b41728babd974,001,3,2025-04-15_08h38.08.680,avatar_quest_3AFC_legacy,2022.1.3,MacIntel,60.24096386,615374d9fd9b41728babd974,67fe37cb3bd870bba73819bd,67fe5283e3ad45c2881fd609,,,,,,,,,,,,,,,,,,,,,,With Brainslug Difficult 1 No Money,6,images/assets/snowy_original.jpg,learning,20,images/assets/success.jpg,images/assets/gameover.jpg,,,,,,,,,,,,,0,6,6,1,1,,,,,,,,,,,,,,,,,,,,,,,,,,,,,,,,
,,,,,,,,,,,,615374d9fd9b41728babd974,001,3,2025-04-15_08h38.08.680,avatar_quest_3AFC_legacy,2022.1.3,MacIntel,60.24096386,615374d9fd9b41728babd974,67fe37cb3bd870bba73819bd,67fe5283e3ad45c2881fd609,,,,,,,,,,,,,,,,,,,,,,No Brainslug Difficult 1 No Money,6,images/assets/snowy_original.jpg,learning,20,images/assets/success.jpg,images/assets/gameover.jpg,,,,,,,,,,,,,0,7,7,6,1,,,,,,,,,,,,,,,,,,,,,,,,,,,,,,,,
,,,,,,,,,,,,615374d9fd9b41728babd974,001,3,2025-04-15_08h38.08.680,avatar_quest_3AFC_legacy,2022.1.3,MacIntel,60.24096386,615374d9fd9b41728babd974,67fe37cb3bd870bba73819bd,67fe5283e3ad45c2881fd609,"[""up"",""left"",""left"",""up"",""up"",""left"",""right"",""right"",""up"",""up"",""up"",""up"",""left"",""left"",""left"",""right"",""right"",""right"",""right"",""right"",""right""]","[3.0751999999284862,3.842299999952303,4.075199999928486,4.49179999995232,4.707199999928463,5.24199999999999,7.19160000002384,7.458199999928468,8.48379999995231,8.708499999999987,8.94169999992846,9.192000000000007,9.625499999999988,9.858000000000004,10.082199999928463,10.882600000023842,11.07460000002385,11.291699999928483,11.525100000023855,12.383799999952316,12.608499999999992]",,calibration,With Brainslug Difficult 2 With Money,4,12.9814,12.9841,8,7,0,FALSE,na,na,na,na,,,,,,,,,,,,,,,,,,,,,,,,,,,,,,,,,,0,0,0,0,1,,,,,,,,,,,,,,,,,,,,,,,
,,,,,,,,,,,,615374d9fd9b41728babd974,001,3,2025-04-15_08h38.08.680,avatar_quest_3AFC_legacy,2022.1.3,MacIntel,60.24096386,615374d9fd9b41728babd974,67fe37cb3bd870bba73819bd,67fe5283e3ad45c2881fd609,,,,,,,,,,,,,,,,,,,,,,With Brainslug Difficult 2 With Money,12,images/assets/snowy_money.jpg,learning,20,images/assets/success_money.jpg,images/assets/gameover.jpg,,,,,,,,,,,,,0,8,8,2,1,,,,,,,,,,,,,,,,,,,,,,,,,,,,,,,,
,,,,,,,,,,,,615374d9fd9b41728babd974,001,3,2025-04-15_08h38.08.680,avatar_quest_3AFC_legacy,2022.1.3,MacIntel,60.24096386,615374d9fd9b41728babd974,67fe37cb3bd870bba73819bd,67fe5283e3ad45c2881fd609,,,,,,,,,,,,,,,,,,,,,,No Brainslug Difficult 2 No Money,12,images/assets/snowy_original.jpg,learning,20,images/assets/success.jpg,images/assets/gameover.jpg,,,,,,,,,,,,,0,9,9,8,1,,,,,,,,,,,,,,,,,,,,,,,,,,,,,,,,
,,,,,,,,,,,,615374d9fd9b41728babd974,001,3,2025-04-15_08h38.08.680,avatar_quest_3AFC_legacy,2022.1.3,MacIntel,60.24096386,615374d9fd9b41728babd974,67fe37cb3bd870bba73819bd,67fe5283e3ad45c2881fd609,,,,,,,,,,,,,,,,,,,,,,With Brainslug Difficult 2 No Money,12,images/assets/snowy_original.jpg,learning,20,images/assets/success.jpg,images/assets/gameover.jpg,,,,,,,,,,,,,0,10,10,3,1,,,,,,,,,,,,,,,,,,,,,,,,,,,,,,,,
,,,,,,,,,,,,615374d9fd9b41728babd974,001,3,2025-04-15_08h38.08.680,avatar_quest_3AFC_legacy,2022.1.3,MacIntel,60.24096386,615374d9fd9b41728babd974,67fe37cb3bd870bba73819bd,67fe5283e3ad45c2881fd609,,,,,,,,,,,,,,,,,,,,,,,,,,,,,,,,,,,,,,,,,,,,,,,,,,,,,,,0,0,0,0,1,,,,,,,,,,,,,,,,,,
,,,,,,,,,,,,615374d9fd9b41728babd974,001,3,2025-04-15_08h38.08.680,avatar_quest_3AFC_legacy,2022.1.3,MacIntel,60.24096386,615374d9fd9b41728babd974,67fe37cb3bd870bba73819bd,67fe5283e3ad45c2881fd609,,,,,,,,,,,,,,,,,,,,,,No Brainslug No Barriers With Money,0,images/assets/snowy_money.jpg,learning,10,images/assets/success_money.jpg,images/assets/gameover.jpg,,,,,,,,With Brainslug Difficult 2 With Money,With Brainslug Difficult 1 No Money,right,3.0679,"[""With Brainslug Difficult 1 No Money"",""With Brainslug Difficult 2 No Money""]",0,0,0,9,1,,,,,,,,,,,,,,,,,,,,,,,,,,,,,,,,
,,,,,,,,,,,,615374d9fd9b41728babd974,001,3,2025-04-15_08h38.08.680,avatar_quest_3AFC_legacy,2022.1.3,MacIntel,60.24096386,615374d9fd9b41728babd974,67fe37cb3bd870bba73819bd,67fe5283e3ad45c2881fd609,,,,,,,,,,,,,,,,,,,,,,With Brainslug Difficult 1 No Money,6,images/assets/snowy_original.jpg,learning,20,images/assets/success.jpg,images/assets/gameover.jpg,,,,,,,,,,,,,0,1,1,1,1,,,,,,,,,,,,,,,,,,,,,,,,,,,,,,,,
,,,,,,,,,,,,615374d9fd9b41728babd974,001,3,2025-04-15_08h38.08.680,avatar_quest_3AFC_legacy,2022.1.3,MacIntel,60.24096386,615374d9fd9b41728babd974,67fe37cb3bd870bba73819bd,67fe5283e3ad45c2881fd609,,,,,,,,,,,,,,,,,,,,,,No Brainslug Difficult 1 No Money,6,images/assets/snowy_original.jpg,learning,20,images/assets/success.jpg,images/assets/gameover.jpg,,,,,,,,,,,,,0,2,2,6,1,,,,,,,,,,,,,,,,,,,,,,,,,,,,,,,,
,,,,,,,,,,,,615374d9fd9b41728babd974,001,3,2025-04-15_08h38.08.680,avatar_quest_3AFC_legacy,2022.1.3,MacIntel,60.24096386,615374d9fd9b41728babd974,67fe37cb3bd870bba73819bd,67fe5283e3ad45c2881fd609,,,,,,,,,,,,,,,,,,,,,,With Brainslug Difficult 1 With Money,6,images/assets/snowy_money.jpg,learning,20,images/assets/success_money.jpg,images/assets/gameover.jpg,,,,,,,,,,,,,0,3,3,0,1,,,,,,,,,,,,,,,,,,,,,,,,,,,,,,,,
,,,,,,,,,,,,615374d9fd9b41728babd974,001,3,2025-04-15_08h38.08.680,avatar_quest_3AFC_legacy,2022.1.3,MacIntel,60.24096386,615374d9fd9b41728babd974,67fe37cb3bd870bba73819bd,67fe5283e3ad45c2881fd609,,,,,,,,,,,,,,,,,,,,,,With Brainslug Difficult 2 No Money,12,images/assets/snowy_original.jpg,learning,20,images/assets/success.jpg,images/assets/gameover.jpg,,,,,,,,,,,,,0,4,4,3,1,,,,,,,,,,,,,,,,,,,,,,,,,,,,,,,,
,,,,,,,,,,,,615374d9fd9b41728babd974,001,3,2025-04-15_08h38.08.680,avatar_quest_3AFC_legacy,2022.1.3,MacIntel,60.24096386,615374d9fd9b41728babd974,67fe37cb3bd870bba73819bd,67fe5283e3ad45c2881fd609,,,,,,,,,,,,,,,,,,,,,,With Brainslug No Barriers No Money,0,images/assets/snowy_original.jpg,learning,10,images/assets/success.jpg,images/assets/gameover.jpg,,,,,,,,,,,,,0,5,5,5,1,,,,,,,,,,,,,,,,,,,,,,,,,,,,,,,,
,,,,,,,,,,,,615374d9fd9b41728babd974,001,3,2025-04-15_08h38.08.680,avatar_quest_3AFC_legacy,2022.1.3,MacIntel,60.24096386,615374d9fd9b41728babd974,67fe37cb3bd870bba73819bd,67fe5283e3ad45c2881fd609,,,,,,,,,,,,,,,,,,,,,,No Brainslug Difficult 2 No Money,12,images/assets/snowy_original.jpg,learning,20,images/assets/success.jpg,images/assets/gameover.jpg,,,,,,,,,,,,,0,6,6,8,1,,,,,,,,,,,,,,,,,,,,,,,,,,,,,,,,
,,,,,,,,,,,,615374d9fd9b41728babd974,001,3,2025-04-15_08h38.08.680,avatar_quest_3AFC_legacy,2022.1.3,MacIntel,60.24096386,615374d9fd9b41728babd974,67fe37cb3bd870bba73819bd,67fe5283e3ad45c2881fd609,,,,,,,,,,,,,,,,,,,,,,With Brainslug No Barriers With Money,0,images/assets/snowy_money.jpg,learning,10,images/assets/success_money.jpg,images/assets/gameover.jpg,,,,,,,,,,,,,0,7,7,4,1,,,,,,,,,,,,,,,,,,,,,,,,,,,,,,,,
,,,,,,,,,,,,615374d9fd9b41728babd974,001,3,2025-04-15_08h38.08.680,avatar_quest_3AFC_legacy,2022.1.3,MacIntel,60.24096386,615374d9fd9b41728babd974,67fe37cb3bd870bba73819bd,67fe5283e3ad45c2881fd609,"[""left"",""left"",""left"",""right"",""right"",""right"",""right"",""right"",""right"",""right"",""right"",""up"",""up"",""up"",""left"",""left"",""left"",""up"",""up"",""up"",""up"",""right"",""right"",""right"",""up"",""up"",""up"",""left"",""left"",""left"",""left"",""up"",""up"",""up"",""up"",""up"",""up""]","[1.4379999999999882,2.137699999928458,2.4365999999046153,2.9776999999284612,3.2113999999761518,3.42769999992845,4.103999999999985,4.303699999928455,4.520699999928468,6.437999999999988,6.604599999904622,6.9214999999999804,7.154799999952303,7.38719999992847,7.771299999952305,7.954599999904616,8.137899999976156,8.621599999904618,8.804799999952309,8.987199999928464,9.170799999952294,9.428499999999985,9.65539999997614,9.845699999928456,10.119699999928457,10.38919999992845,10.604799999952292,10.854799999952292,11.061699999928464,11.246399999976148,11.437999999999988,11.888399999976144,12.071399999976137,12.271199999928456,12.487799999952301,12.67169999992845,12.870399999976144]",,calibration,With Brainslug Difficult 2 With Money,5,12.9814,12.9836,9,6,0,FALSE,na,na,na,na,,,,,,,,,,,,,,,,,,,,,,,,,,,,,,,,,,0,0,0,0,1,,,,,,,,,,,,,,,,,,,,,,,
,,,,,,,,,,,,615374d9fd9b41728babd974,001,3,2025-04-15_08h38.08.680,avatar_quest_3AFC_legacy,2022.1.3,MacIntel,60.24096386,615374d9fd9b41728babd974,67fe37cb3bd870bba73819bd,67fe5283e3ad45c2881fd609,,,,,,,,,,,,,,,,,,,,,,With Brainslug Difficult 2 With Money,12,images/assets/snowy_money.jpg,learning,20,images/assets/success_money.jpg,images/assets/gameover.jpg,,,,,,,,,,,,,0,8,8,2,1,,,,,,,,,,,,,,,,,,,,,,,,,,,,,,,,
,,,,,,,,,,,,615374d9fd9b41728babd974,001,3,2025-04-15_08h38.08.680,avatar_quest_3AFC_legacy,2022.1.3,MacIntel,60.24096386,615374d9fd9b41728babd974,67fe37cb3bd870bba73819bd,67fe5283e3ad45c2881fd609,,,,,,,,,,,,,,,,,,,,,,No Brainslug Difficult 2 With Money,12,images/assets/snowy_money.jpg,learning,20,images/assets/success_money.jpg,images/assets/gameover.jpg,,,,,,,,,,,,,0,9,9,7,1,,,,,,,,,,,,,,,,,,,,,,,,,,,,,,,,
,,,,,,,,,,,,615374d9fd9b41728babd974,001,3,2025-04-15_08h38.08.680,avatar_quest_3AFC_legacy,2022.1.3,MacIntel,60.24096386,615374d9fd9b41728babd974,67fe37cb3bd870bba73819bd,67fe5283e3ad45c2881fd609,,,,,,,,,,,,,,,,,,,,,,No Brainslug No Barriers No Money,0,images/assets/snowy_original.jpg,learning,10,images/assets/success.jpg,images/assets/gameover.jpg,,,,,,,,,,,,,0,10,10,10,1,,,,,,,,,,,,,,,,,,,,,,,,,,,,,,,,
,,,,,,,,,,,,615374d9fd9b41728babd974,001,3,2025-04-15_08h38.08.680,avatar_quest_3AFC_legacy,2022.1.3,MacIntel,60.24096386,615374d9fd9b41728babd974,67fe37cb3bd870bba73819bd,67fe5283e3ad45c2881fd609,,,,,,,,,,,,,,,,,,,,,,,,,,,,,,,,,,,,,,,,,,,,,,,,,,,,,,,1,0,1,0,1,,,,,,,,,,,,,,,,,,
,,,,,,,,,,,,615374d9fd9b41728babd974,001,3,2025-04-15_08h38.08.680,avatar_quest_3AFC_legacy,2022.1.3,MacIntel,60.24096386,615374d9fd9b41728babd974,67fe37cb3bd870bba73819bd,67fe5283e3ad45c2881fd609,,,,,,,,,,,,,,,,,,,,,,No Brainslug No Barriers With Money,0,images/assets/snowy_money.jpg,learning,10,images/assets/success_money.jpg,images/assets/gameover.jpg,,,,,,,,With Brainslug Difficult 2 With Money,With Brainslug Difficult 1 No Money,right,2.9395,"[""With Brainslug Difficult 1 No Money"",""With Brainslug Difficult 2 No Money""]",0,0,0,9,1,,,,,,,,,,,,,,,,,,,,,,,,,,,,,,,,
,,,,,,,,,,,,615374d9fd9b41728babd974,001,3,2025-04-15_08h38.08.680,avatar_quest_3AFC_legacy,2022.1.3,MacIntel,60.24096386,615374d9fd9b41728babd974,67fe37cb3bd870bba73819bd,67fe5283e3ad45c2881fd609,,,,,,,,,,,,,,,,,,,,,,With Brainslug No Barriers No Money,0,images/assets/snowy_original.jpg,learning,10,images/assets/success.jpg,images/assets/gameover.jpg,,,,,,,,,,,,,0,1,1,5,1,,,,,,,,,,,,,,,,,,,,,,,,,,,,,,,,
,,,,,,,,,,,,615374d9fd9b41728babd974,001,3,2025-04-15_08h38.08.680,avatar_quest_3AFC_legacy,2022.1.3,MacIntel,60.24096386,615374d9fd9b41728babd974,67fe37cb3bd870bba73819bd,67fe5283e3ad45c2881fd609,,,,,,,,,,,,,,,,,,,,,,With Brainslug No Barriers With Money,0,images/assets/snowy_money.jpg,learning,10,images/assets/success_money.jpg,images/assets/gameover.jpg,,,,,,,,,,,,,0,2,2,4,1,,,,,,,,,,,,,,,,,,,,,,,,,,,,,,,,
,,,,,,,,,,,,615374d9fd9b41728babd974,001,3,2025-04-15_08h38.08.680,avatar_quest_3AFC_legacy,2022.1.3,MacIntel,60.24096386,615374d9fd9b41728babd974,67fe37cb3bd870bba73819bd,67fe5283e3ad45c2881fd609,,,,,,,,,,,,,,,,,,,,,,With Brainslug Difficult 1 No Money,6,images/assets/snowy_original.jpg,learning,20,images/assets/success.jpg,images/assets/gameover.jpg,,,,,,,,,,,,,0,3,3,1,1,,,,,,,,,,,,,,,,,,,,,,,,,,,,,,,,
,,,,,,,,,,,,615374d9fd9b41728babd974,001,3,2025-04-15_08h38.08.680,avatar_quest_3AFC_legacy,2022.1.3,MacIntel,60.24096386,615374d9fd9b41728babd974,67fe37cb3bd870bba73819bd,67fe5283e3ad45c2881fd609,,,,,,,,,,,,,,,,,,,,,,With Brainslug Difficult 1 With Money,6,images/assets/snowy_money.jpg,learning,20,images/assets/success_money.jpg,images/assets/gameover.jpg,,,,,,,,,,,,,0,4,4,0,1,,,,,,,,,,,,,,,,,,,,,,,,,,,,,,,,
,,,,,,,,,,,,615374d9fd9b41728babd974,001,3,2025-04-15_08h38.08.680,avatar_quest_3AFC_legacy,2022.1.3,MacIntel,60.24096386,615374d9fd9b41728babd974,67fe37cb3bd870bba73819bd,67fe5283e3ad45c2881fd609,,,,,,,,,,,,,,,,,,,,,,With Brainslug Difficult 2 No Money,12,images/assets/snowy_original.jpg,learning,20,images/assets/success.jpg,images/assets/gameover.jpg,,,,,,,,,,,,,0,5,5,3,1,,,,,,,,,,,,,,,,,,,,,,,,,,,,,,,,
,,,,,,,,,,,,615374d9fd9b41728babd974,001,3,2025-04-15_08h38.08.680,avatar_quest_3AFC_legacy,2022.1.3,MacIntel,60.24096386,615374d9fd9b41728babd974,67fe37cb3bd870bba73819bd,67fe5283e3ad45c2881fd609,"[""right"",""right"",""right"",""right"",""right"",""right"",""right"",""left"",""left"",""left"",""right"",""right"",""right"",""right"",""right"",""left"",""left"",""right"",""right"",""right"",""right"",""right"",""right"",""right"",""left"",""left"",""left"",""left"",""left"",""right"",""right"",""right"",""right"",""right"",""right""]","[0.728600000023846,0.9610000000000127,1.2355000000000018,1.4448999999761725,2.2620000000000005,2.444299999952335,2.627299999952328,3.7450000000000045,3.9450000000000216,4.144500000000022,5.294899999976167,5.511100000023845,5.710899999976164,5.911500000000018,6.127799999952316,6.861799999952325,7.0617000000476935,7.828700000047689,8.035799999952332,8.228799999952344,8.478299999952327,8.728600000023846,8.962000000000018,9.21160000002385,10.278899999976176,10.495600000023842,10.695799999952328,10.9112000000477,11.111899999976174,11.594100000023843,11.785799999952332,12.012299999952319,12.245700000047691,12.578100000023852,12.845100000023848]",,calibration,With Brainslug Difficult 2 With Money,6,12.9814,12.9837,16,7,0,FALSE,na,na,na,na,,,,,,,,,,,,,,,,,,,,,,,,,,,,,,,,,,0,0,0,0,1,,,,,,,,,,,,,,,,,,,,,,,
,,,,,,,,,,,,615374d9fd9b41728babd974,001,3,2025-04-15_08h38.08.680,avatar_quest_3AFC_legacy,2022.1.3,MacIntel,60.24096386,615374d9fd9b41728babd974,67fe37cb3bd870bba73819bd,67fe5283e3ad45c2881fd609,,,,,,,,,,,,,,,,,,,,,,With Brainslug Difficult 2 With Money,12,images/assets/snowy_money.jpg,learning,20,images/assets/success_money.jpg,images/assets/gameover.jpg,,,,,,,,,,,,,0,6,6,2,1,,,,,,,,,,,,,,,,,,,,,,,,,,,,,,,,
,,,,,,,,,,,,615374d9fd9b41728babd974,001,3,2025-04-15_08h38.08.680,avatar_quest_3AFC_legacy,2022.1.3,MacIntel,60.24096386,615374d9fd9b41728babd974,67fe37cb3bd870bba73819bd,67fe5283e3ad45c2881fd609,,,,,,,,,,,,,,,,,,,,,,No Brainslug Difficult 1 No Money,6,images/assets/snowy_original.jpg,learning,20,images/assets/success.jpg,images/assets/gameover.jpg,,,,,,,,,,,,,0,7,7,6,1,,,,,,,,,,,,,,,,,,,,,,,,,,,,,,,,
,,,,,,,,,,,,615374d9fd9b41728babd974,001,3,2025-04-15_08h38.08.680,avatar_quest_3AFC_legacy,2022.1.3,MacIntel,60.24096386,615374d9fd9b41728babd974,67fe37cb3bd870bba73819bd,67fe5283e3ad45c2881fd609,,,,,,,,,,,,,,,,,,,,,,No Brainslug Difficult 2 No Money,12,images/assets/snowy_original.jpg,learning,20,images/assets/success.jpg,images/assets/gameover.jpg,,,,,,,,,,,,,0,8,8,8,1,,,,,,,,,,,,,,,,,,,,,,,,,,,,,,,,
,,,,,,,,,,,,615374d9fd9b41728babd974,001,3,2025-04-15_08h38.08.680,avatar_quest_3AFC_legacy,2022.1.3,MacIntel,60.24096386,615374d9fd9b41728babd974,67fe37cb3bd870bba73819bd,67fe5283e3ad45c2881fd609,,,,,,,,,,,,,,,,,,,,,,No Brainslug Difficult 2 With Money,12,images/assets/snowy_money.jpg,learning,20,images/assets/success_money.jpg,images/assets/gameover.jpg,,,,,,,,,,,,,0,9,9,7,1,,,,,,,,,,,,,,,,,,,,,,,,,,,,,,,,
,,,,,,,,,,,,615374d9fd9b41728babd974,001,3,2025-04-15_08h38.08.680,avatar_quest_3AFC_legacy,2022.1.3,MacIntel,60.24096386,615374d9fd9b41728babd974,67fe37cb3bd870bba73819bd,67fe5283e3ad45c2881fd609,,,,,,,,,,,,,,,,,,,,,,No Brainslug No Barriers No Money,0,images/assets/snowy_original.jpg,learning,10,images/assets/success.jpg,images/assets/gameover.jpg,,,,,,,,,,,,,0,10,10,10,1,,,,,,,,,,,,,,,,,,,,,,,,,,,,,,,,
,,,,,,,,,,,,615374d9fd9b41728babd974,001,3,2025-04-15_08h38.08.680,avatar_quest_3AFC_legacy,2022.1.3,MacIntel,60.24096386,615374d9fd9b41728babd974,67fe37cb3bd870bba73819bd,67fe5283e3ad45c2881fd609,,,,,,,,,,,,,,,,,,,,,,,,,,,,,,,,,,,,,,,,,,,,,,,,,,,,,,,2,0,2,0,1,,,,,,,,,,,,,,,,,,
,,,,,,,,,,,,615374d9fd9b41728babd974,001,3,2025-04-15_08h38.08.680,avatar_quest_3AFC_legacy,2022.1.3,MacIntel,60.24096386,615374d9fd9b41728babd974,67fe37cb3bd870bba73819bd,67fe5283e3ad45c2881fd609,,,,,,,,,,,,,,,,,,,,,,With Brainslug Difficult 1 With Money,6,images/assets/snowy_money.jpg,learning,20,images/assets/success_money.jpg,images/assets/gameover.jpg,,,,,,,,With Brainslug Difficult 2 With Money,With Brainslug Difficult 1 No Money,right,1.5893,"[""With Brainslug Difficult 1 No Money"",""With Brainslug Difficult 2 No Money""]",0,0,0,0,1,,,,,,,,,,,,,,,,,,,,,,,,,,,,,,,,
,,,,,,,,,,,,615374d9fd9b41728babd974,001,3,2025-04-15_08h38.08.680,avatar_quest_3AFC_legacy,2022.1.3,MacIntel,60.24096386,615374d9fd9b41728babd974,67fe37cb3bd870bba73819bd,67fe5283e3ad45c2881fd609,,,,,,,,,,,,,,,,,,,,,,With Brainslug No Barriers No Money,0,images/assets/snowy_original.jpg,learning,10,images/assets/success.jpg,images/assets/gameover.jpg,,,,,,,,,,,,,0,1,1,5,1,,,,,,,,,,,,,,,,,,,,,,,,,,,,,,,,
,,,,,,,,,,,,615374d9fd9b41728babd974,001,3,2025-04-15_08h38.08.680,avatar_quest_3AFC_legacy,2022.1.3,MacIntel,60.24096386,615374d9fd9b41728babd974,67fe37cb3bd870bba73819bd,67fe5283e3ad45c2881fd609,,,,,,,,,,,,,,,,,,,,,,No Brainslug Difficult 2 With Money,12,images/assets/snowy_money.jpg,learning,20,images/assets/success_money.jpg,images/assets/gameover.jpg,,,,,,,,,,,,,0,2,2,7,1,,,,,,,,,,,,,,,,,,,,,,,,,,,,,,,,
,,,,,,,,,,,,615374d9fd9b41728babd974,001,3,2025-04-15_08h38.08.680,avatar_quest_3AFC_legacy,2022.1.3,MacIntel,60.24096386,615374d9fd9b41728babd974,67fe37cb3bd870bba73819bd,67fe5283e3ad45c2881fd609,,,,,,,,,,,,,,,,,,,,,,No Brainslug No Barriers No Money,0,images/assets/snowy_original.jpg,learning,10,images/assets/success.jpg,images/assets/gameover.jpg,,,,,,,,,,,,,0,3,3,10,1,,,,,,,,,,,,,,,,,,,,,,,,,,,,,,,,
,,,,,,,,,,,,615374d9fd9b41728babd974,001,3,2025-04-15_08h38.08.680,avatar_quest_3AFC_legacy,2022.1.3,MacIntel,60.24096386,615374d9fd9b41728babd974,67fe37cb3bd870bba73819bd,67fe5283e3ad45c2881fd609,,,,,,,,,,,,,,,,,,,,,,With Brainslug Difficult 2 No Money,12,images/assets/snowy_original.jpg,learning,20,images/assets/success.jpg,images/assets/gameover.jpg,,,,,,,,,,,,,0,4,4,3,1,,,,,,,,,,,,,,,,,,,,,,,,,,,,,,,,
,,,,,,,,,,,,615374d9fd9b41728babd974,001,3,2025-04-15_08h38.08.680,avatar_quest_3AFC_legacy,2022.1.3,MacIntel,60.24096386,615374d9fd9b41728babd974,67fe37cb3bd870bba73819bd,67fe5283e3ad45c2881fd609,,,,,,,,,,,,,,,,,,,,,,No Brainslug Difficult 2 No Money,12,images/assets/snowy_original.jpg,learning,20,images/assets/success.jpg,images/assets/gameover.jpg,,,,,,,,,,,,,0,5,5,8,1,,,,,,,,,,,,,,,,,,,,,,,,,,,,,,,,
,,,,,,,,,,,,615374d9fd9b41728babd974,001,3,2025-04-15_08h38.08.680,avatar_quest_3AFC_legacy,2022.1.3,MacIntel,60.24096386,615374d9fd9b41728babd974,67fe37cb3bd870bba73819bd,67fe5283e3ad45c2881fd609,,,,,,,,,,,,,,,,,,,,,,No Brainslug Difficult 1 No Money,6,images/assets/snowy_original.jpg,learning,20,images/assets/success.jpg,images/assets/gameover.jpg,,,,,,,,,,,,,0,6,6,6,1,,,,,,,,,,,,,,,,,,,,,,,,,,,,,,,,
,,,,,,,,,,,,615374d9fd9b41728babd974,001,3,2025-04-15_08h38.08.680,avatar_quest_3AFC_legacy,2022.1.3,MacIntel,60.24096386,615374d9fd9b41728babd974,67fe37cb3bd870bba73819bd,67fe5283e3ad45c2881fd609,,,,,,,,,,,,,,,,,,,,,,With Brainslug Difficult 1 No Money,6,images/assets/snowy_original.jpg,learning,20,images/assets/success.jpg,images/assets/gameover.jpg,,,,,,,,,,,,,0,7,7,1,1,,,,,,,,,,,,,,,,,,,,,,,,,,,,,,,,
,,,,,,,,,,,,615374d9fd9b41728babd974,001,3,2025-04-15_08h38.08.680,avatar_quest_3AFC_legacy,2022.1.3,MacIntel,60.24096386,615374d9fd9b41728babd974,67fe37cb3bd870bba73819bd,67fe5283e3ad45c2881fd609,,,,,,,,,,,,,,,,,,,,,,No Brainslug No Barriers With Money,0,images/assets/snowy_money.jpg,learning,10,images/assets/success_money.jpg,images/assets/gameover.jpg,,,,,,,,,,,,,0,8,8,9,1,,,,,,,,,,,,,,,,,,,,,,,,,,,,,,,,
,,,,,,,,,,,,615374d9fd9b41728babd974,001,3,2025-04-15_08h38.08.680,avatar_quest_3AFC_legacy,2022.1.3,MacIntel,60.24096386,615374d9fd9b41728babd974,67fe37cb3bd870bba73819bd,67fe5283e3ad45c2881fd609,,,,,,,,,,,,,,,,,,,,,,With Brainslug No Barriers With Money,0,images/assets/snowy_money.jpg,learning,10,images/assets/success_money.jpg,images/assets/gameover.jpg,,,,,,,,,,,,,0,9,9,4,1,,,,,,,,,,,,,,,,,,,,,,,,,,,,,,,,
,,,,,,,,,,,,615374d9fd9b41728babd974,001,3,2025-04-15_08h38.08.680,avatar_quest_3AFC_legacy,2022.1.3,MacIntel,60.24096386,615374d9fd9b41728babd974,67fe37cb3bd870bba73819bd,67fe5283e3ad45c2881fd609,"[""right"",""right"",""right"",""right"",""right"",""right"",""left"",""left"",""left"",""left"",""left"",""right"",""right"",""right"",""right"",""right"",""left"",""left"",""left"",""right"",""right"",""right"",""right"",""right"",""right"",""right"",""right"",""right"",""right"",""down"",""up"",""down"",""up"",""up"",""up"",""left"",""left"",""left"",""up""]","[1.304200000047672,1.8383999999761613,2.103799999952315,2.6541000000238455,2.8367999999523192,3.0204999999999984,3.505700000047682,3.7050000000000125,3.9382000000476864,4.205100000023833,4.454499999999996,5.005200000047694,5.178799999952304,5.3714999999999975,5.587999999999994,5.821899999976154,6.53839999997615,6.7549999999999955,6.971600000023841,7.688700000047675,7.804100000023851,8.004700000047677,8.188299999952307,8.388399999976144,8.58870000004768,8.804700000047688,8.988499999999988,9.455299999952302,9.805100000023828,10.521700000047673,10.521700000047673,10.755299999952314,11.237600000023832,11.488,11.6875,11.988100000023849,12.172899999976153,12.362200000047693,12.871999999999986]",,calibration,With Brainslug Difficult 2 With Money,7,12.9814,12.9833,10,6,0,FALSE,na,na,na,na,,,,,,,,,,,,,,,,,,,,,,,,,,,,,,,,,,0,0,0,0,1,,,,,,,,,,,,,,,,,,,,,,,
,,,,,,,,,,,,615374d9fd9b41728babd974,001,3,2025-04-15_08h38.08.680,avatar_quest_3AFC_legacy,2022.1.3,MacIntel,60.24096386,615374d9fd9b41728babd974,67fe37cb3bd870bba73819bd,67fe5283e3ad45c2881fd609,,,,,,,,,,,,,,,,,,,,,,With Brainslug Difficult 2 With Money,12,images/assets/snowy_money.jpg,learning,20,images/assets/success_money.jpg,images/assets/gameover.jpg,,,,,,,,,,,,,0,10,10,2,1,,,,,,,,,,,,,,,,,,,,,,,,,,,,,,,,
,,,,,,,,,,,,615374d9fd9b41728babd974,001,3,2025-04-15_08h38.08.680,avatar_quest_3AFC_legacy,2022.1.3,MacIntel,60.24096386,615374d9fd9b41728babd974,67fe37cb3bd870bba73819bd,67fe5283e3ad45c2881fd609,,,,,,,,,,,,,,,,,,,,,,,,,,,,,,,,,,,,,,,,,,,,,,,,,,,,,,,3,0,3,0,1,,,,,,,,,,,,,,,,,,
,,,,,,,,,,,,615374d9fd9b41728babd974,001,3,2025-04-15_08h38.08.680,avatar_quest_3AFC_legacy,2022.1.3,MacIntel,60.24096386,615374d9fd9b41728babd974,67fe37cb3bd870bba73819bd,67fe5283e3ad45c2881fd609,,,,,,,,,,,,,,,,,,,,,,With Brainslug Difficult 1 No Money,6,images/assets/snowy_original.jpg,learning,20,images/assets/success.jpg,images/assets/gameover.jpg,,,,,,,,With Brainslug Difficult 2 With Money,With Brainslug Difficult 1 No Money,right,1.3566,"[""With Brainslug Difficult 1 No Money"",""With Brainslug Difficult 2 No Money""]",0,0,0,1,1,,,,,,,,,,,,,,,,,,,,,,,,,,,,,,,,
,,,,,,,,,,,,615374d9fd9b41728babd974,001,3,2025-04-15_08h38.08.680,avatar_quest_3AFC_legacy,2022.1.3,MacIntel,60.24096386,615374d9fd9b41728babd974,67fe37cb3bd870bba73819bd,67fe5283e3ad45c2881fd609,,,,,,,,,,,,,,,,,,,,,,No Brainslug No Barriers No Money,0,images/assets/snowy_original.jpg,learning,10,images/assets/success.jpg,images/assets/gameover.jpg,,,,,,,,,,,,,0,1,1,10,1,,,,,,,,,,,,,,,,,,,,,,,,,,,,,,,,
,,,,,,,,,,,,615374d9fd9b41728babd974,001,3,2025-04-15_08h38.08.680,avatar_quest_3AFC_legacy,2022.1.3,MacIntel,60.24096386,615374d9fd9b41728babd974,67fe37cb3bd870bba73819bd,67fe5283e3ad45c2881fd609,,,,,,,,,,,,,,,,,,,,,,With Brainslug No Barriers No Money,0,images/assets/snowy_original.jpg,learning,10,images/assets/success.jpg,images/assets/gameover.jpg,,,,,,,,,,,,,0,2,2,5,1,,,,,,,,,,,,,,,,,,,,,,,,,,,,,,,,
,,,,,,,,,,,,615374d9fd9b41728babd974,001,3,2025-04-15_08h38.08.680,avatar_quest_3AFC_legacy,2022.1.3,MacIntel,60.24096386,615374d9fd9b41728babd974,67fe37cb3bd870bba73819bd,67fe5283e3ad45c2881fd609,,,,,,,,,,,,,,,,,,,,,,No Brainslug Difficult 2 With Money,12,images/assets/snowy_money.jpg,learning,20,images/assets/success_money.jpg,images/assets/gameover.jpg,,,,,,,,,,,,,0,3,3,7,1,,,,,,,,,,,,,,,,,,,,,,,,,,,,,,,,
,,,,,,,,,,,,615374d9fd9b41728babd974,001,3,2025-04-15_08h38.08.680,avatar_quest_3AFC_legacy,2022.1.3,MacIntel,60.24096386,615374d9fd9b41728babd974,67fe37cb3bd870bba73819bd,67fe5283e3ad45c2881fd609,,,,,,,,,,,,,,,,,,,,,,With Brainslug Difficult 1 With Money,6,images/assets/snowy_money.jpg,learning,20,images/assets/success_money.jpg,images/assets/gameover.jpg,,,,,,,,,,,,,0,4,4,0,1,,,,,,,,,,,,,,,,,,,,,,,,,,,,,,,,
,,,,,,,,,,,,615374d9fd9b41728babd974,001,3,2025-04-15_08h38.08.680,avatar_quest_3AFC_legacy,2022.1.3,MacIntel,60.24096386,615374d9fd9b41728babd974,67fe37cb3bd870bba73819bd,67fe5283e3ad45c2881fd609,,,,,,,,,,,,,,,,,,,,,,No Brainslug Difficult 2 No Money,12,images/assets/snowy_original.jpg,learning,20,images/assets/success.jpg,images/assets/gameover.jpg,,,,,,,,,,,,,0,5,5,8,1,,,,,,,,,,,,,,,,,,,,,,,,,,,,,,,,
,,,,,,,,,,,,615374d9fd9b41728babd974,001,3,2025-04-15_08h38.08.680,avatar_quest_3AFC_legacy,2022.1.3,MacIntel,60.24096386,615374d9fd9b41728babd974,67fe37cb3bd870bba73819bd,67fe5283e3ad45c2881fd609,,,,,,,,,,,,,,,,,,,,,,No Brainslug Difficult 1 No Money,6,images/assets/snowy_original.jpg,learning,20,images/assets/success.jpg,images/assets/gameover.jpg,,,,,,,,,,,,,0,6,6,6,1,,,,,,,,,,,,,,,,,,,,,,,,,,,,,,,,
,,,,,,,,,,,,615374d9fd9b41728babd974,001,3,2025-04-15_08h38.08.680,avatar_quest_3AFC_legacy,2022.1.3,MacIntel,60.24096386,615374d9fd9b41728babd974,67fe37cb3bd870bba73819bd,67fe5283e3ad45c2881fd609,,,,,,,,,,,,,,,,,,,,,,No Brainslug No Barriers With Money,0,images/assets/snowy_money.jpg,learning,10,images/assets/success_money.jpg,images/assets/gameover.jpg,,,,,,,,,,,,,0,7,7,9,1,,,,,,,,,,,,,,,,,,,,,,,,,,,,,,,,
,,,,,,,,,,,,615374d9fd9b41728babd974,001,3,2025-04-15_08h38.08.680,avatar_quest_3AFC_legacy,2022.1.3,MacIntel,60.24096386,615374d9fd9b41728babd974,67fe37cb3bd870bba73819bd,67fe5283e3ad45c2881fd609,,,,,,,,,,,,,,,,,,,,,,With Brainslug Difficult 2 No Money,12,images/assets/snowy_original.jpg,learning,20,images/assets/success.jpg,images/assets/gameover.jpg,,,,,,,,,,,,,0,8,8,3,1,,,,,,,,,,,,,,,,,,,,,,,,,,,,,,,,
,,,,,,,,,,,,615374d9fd9b41728babd974,001,3,2025-04-15_08h38.08.680,avatar_quest_3AFC_legacy,2022.1.3,MacIntel,60.24096386,615374d9fd9b41728babd974,67fe37cb3bd870bba73819bd,67fe5283e3ad45c2881fd609,"[""left"",""left"",""right"",""right"",""right"",""left"",""left"",""right"",""right"",""right"",""right"",""up"",""right"",""right"",""right"",""left"",""left"",""left"",""left"",""left"",""left"",""left"",""down"",""up"",""right"",""right"",""right"",""up"",""up"",""up"",""left"",""left"",""up"",""up"",""up"",""up"",""up"",""left"",""left"",""left"",""up""]","[1.4451000000238423,1.661500000000018,2.3115000000000236,2.5111999999284933,2.71160000002385,3.4020000000000152,3.6351999999284885,3.9780000000000086,4.194299999952335,4.39500000000001,4.627799999952316,5.285600000023862,5.677899999976177,5.879399999976158,6.068699999928498,6.396199999928484,6.718399999976185,6.911199999928499,7.1021999999285015,7.418600000023844,7.664299999952334,7.828699999928489,8.228000000000009,8.228100000023858,8.411199999928499,8.611699999928476,8.811600000023844,9.994399999976167,10.161399999976169,10.333799999952333,10.561199999928476,10.794699999928497,11.135399999976158,11.318799999952319,11.511600000023861,11.678000000000026,11.878299999952333,12.095199999928496,12.261199999928493,12.461699999928499,12.852299999952322]",,calibration,With Brainslug Difficult 2 With Money,8,12.9814,12.9836,13,8,0,FALSE,na,na,na,na,,,,,,,,,,,,,,,,,,,,,,,,,,,,,,,,,,0,0,0,0,1,,,,,,,,,,,,,,,,,,,,,,,
,,,,,,,,,,,,615374d9fd9b41728babd974,001,3,2025-04-15_08h38.08.680,avatar_quest_3AFC_legacy,2022.1.3,MacIntel,60.24096386,615374d9fd9b41728babd974,67fe37cb3bd870bba73819bd,67fe5283e3ad45c2881fd609,,,,,,,,,,,,,,,,,,,,,,With Brainslug Difficult 2 With Money,12,images/assets/snowy_money.jpg,learning,20,images/assets/success_money.jpg,images/assets/gameover.jpg,,,,,,,,,,,,,0,9,9,2,1,,,,,,,,,,,,,,,,,,,,,,,,,,,,,,,,
,,,,,,,,,,,,615374d9fd9b41728babd974,001,3,2025-04-15_08h38.08.680,avatar_quest_3AFC_legacy,2022.1.3,MacIntel,60.24096386,615374d9fd9b41728babd974,67fe37cb3bd870bba73819bd,67fe5283e3ad45c2881fd609,,,,,,,,,,,,,,,,,,,,,,With Brainslug No Barriers With Money,0,images/assets/snowy_money.jpg,learning,10,images/assets/success_money.jpg,images/assets/gameover.jpg,,,,,,,,,,,,,0,10,10,4,1,,,,,,,,,,,,,,,,,,,,,,,,,,,,,,,,
,,,,,,,,,,,,615374d9fd9b41728babd974,001,3,2025-04-15_08h38.08.680,avatar_quest_3AFC_legacy,2022.1.3,MacIntel,60.24096386,615374d9fd9b41728babd974,67fe37cb3bd870bba73819bd,67fe5283e3ad45c2881fd609,,,,,,,,,,,,,,,,,,,,,,,,,,,,,,,,,,,,,,,,,,,,,,,,,,,,,,,4,0,4,0,1,,,,,,,,,,,,,,,,,,
,,,,,,,,,,,,615374d9fd9b41728babd974,001,3,2025-04-15_08h38.08.680,avatar_quest_3AFC_legacy,2022.1.3,MacIntel,60.24096386,615374d9fd9b41728babd974,67fe37cb3bd870bba73819bd,67fe5283e3ad45c2881fd609,,,,,,,,,,,,,,,,,,,,,,No Brainslug Difficult 1 No Money,6,images/assets/snowy_original.jpg,learning,20,images/assets/success.jpg,images/assets/gameover.jpg,,,,,,,,With Brainslug Difficult 2 With Money,With Brainslug Difficult 1 No Money,right,1.9744,"[""With Brainslug Difficult 1 No Money"",""With Brainslug Difficult 2 No Money""]",0,0,0,6,1,,,,,,,,,,,,,,,,,,,,,,,,,,,,,,,,
,,,,,,,,,,,,615374d9fd9b41728babd974,001,3,2025-04-15_08h38.08.680,avatar_quest_3AFC_legacy,2022.1.3,MacIntel,60.24096386,615374d9fd9b41728babd974,67fe37cb3bd870bba73819bd,67fe5283e3ad45c2881fd609,,,,,,,,,,,,,,,,,,,,,,With Brainslug No Barriers With Money,0,images/assets/snowy_money.jpg,learning,10,images/assets/success_money.jpg,images/assets/gameover.jpg,,,,,,,,,,,,,0,1,1,4,1,,,,,,,,,,,,,,,,,,,,,,,,,,,,,,,,
,,,,,,,,,,,,615374d9fd9b41728babd974,001,3,2025-04-15_08h38.08.680,avatar_quest_3AFC_legacy,2022.1.3,MacIntel,60.24096386,615374d9fd9b41728babd974,67fe37cb3bd870bba73819bd,67fe5283e3ad45c2881fd609,"[""down"",""left"",""left"",""left"",""right"",""right"",""right"",""right"",""right"",""right"",""right"",""down"",""left"",""left"",""left"",""left"",""right"",""right"",""right"",""right"",""down"",""up"",""left"",""left"",""left"",""left"",""left"",""left"",""left"",""left"",""left"",""left"",""left"",""left"",""left"",""left"",""left"",""left"",""left"",""left""]","[0.7639000000953615,0.9803000000715372,1.1974000000953708,1.3798000000715263,2.0304999999999893,2.2469000000953656,2.4468000000715335,2.646800000071522,2.8464000000953718,3.0461000000238414,3.2464999999999975,3.579900000095364,3.805300000071526,3.963300000071513,4.1471000000238405,4.347499999999997,4.845800000071534,5.0645000000000095,5.263700000047692,5.463999999999999,6.047200000047695,6.0803000000715315,6.263200000047675,6.447000000000003,6.629600000023828,6.837200000047687,7.047300000071516,7.21370000004768,7.447300000071522,7.646999999999991,8.063900000095373,8.46350000000001,8.646800000071522,8.863400000095368,9.180400000095375,9.563700000047675,9.763700000047692,9.946400000095366,10.148100000023845,10.480500000000006]",,calibration,With Brainslug Difficult 2 With Money,9,12.9814,10.6666,15,8,0,TRUE,na,na,na,na,,,,,,,,,,,,,,,,,,,,,,,,,,,,,,,,,,0,0,0,0,1,,,,,,,,,,,,,,,,,,,,,,,
,,,,,,,,,,,,615374d9fd9b41728babd974,001,3,2025-04-15_08h38.08.680,avatar_quest_3AFC_legacy,2022.1.3,MacIntel,60.24096386,615374d9fd9b41728babd974,67fe37cb3bd870bba73819bd,67fe5283e3ad45c2881fd609,,,,,,,,,,,,,,,,,,,,,,With Brainslug Difficult 2 With Money,12,images/assets/snowy_money.jpg,learning,20,images/assets/success_money.jpg,images/assets/gameover.jpg,,,,,,,,,,,,,0,2,2,2,1,,,,,,,,,,,,,,,,,,,,,,,,,,,,,,,,
,,,,,,,,,,,,615374d9fd9b41728babd974,001,3,2025-04-15_08h38.08.680,avatar_quest_3AFC_legacy,2022.1.3,MacIntel,60.24096386,615374d9fd9b41728babd974,67fe37cb3bd870bba73819bd,67fe5283e3ad45c2881fd609,,,,,,,,,,,,,,,,,,,,,,No Brainslug Difficult 2 No Money,12,images/assets/snowy_original.jpg,learning,20,images/assets/success.jpg,images/assets/gameover.jpg,,,,,,,,,,,,,0,3,3,8,1,,,,,,,,,,,,,,,,,,,,,,,,,,,,,,,,
,,,,,,,,,,,,615374d9fd9b41728babd974,001,3,2025-04-15_08h38.08.680,avatar_quest_3AFC_legacy,2022.1.3,MacIntel,60.24096386,615374d9fd9b41728babd974,67fe37cb3bd870bba73819bd,67fe5283e3ad45c2881fd609,,,,,,,,,,,,,,,,,,,,,,No Brainslug Difficult 2 With Money,12,images/assets/snowy_money.jpg,learning,20,images/assets/success_money.jpg,images/assets/gameover.jpg,,,,,,,,,,,,,0,4,4,7,1,,,,,,,,,,,,,,,,,,,,,,,,,,,,,,,,
,,,,,,,,,,,,615374d9fd9b41728babd974,001,3,2025-04-15_08h38.08.680,avatar_quest_3AFC_legacy,2022.1.3,MacIntel,60.24096386,615374d9fd9b41728babd974,67fe37cb3bd870bba73819bd,67fe5283e3ad45c2881fd609,,,,,,,,,,,,,,,,,,,,,,With Brainslug Difficult 2 No Money,12,images/assets/snowy_original.jpg,learning,20,images/assets/success.jpg,images/assets/gameover.jpg,,,,,,,,,,,,,0,5,5,3,1,,,,,,,,,,,,,,,,,,,,,,,,,,,,,,,,
,,,,,,,,,,,,615374d9fd9b41728babd974,001,3,2025-04-15_08h38.08.680,avatar_quest_3AFC_legacy,2022.1.3,MacIntel,60.24096386,615374d9fd9b41728babd974,67fe37cb3bd870bba73819bd,67fe5283e3ad45c2881fd609,,,,,,,,,,,,,,,,,,,,,,With Brainslug Difficult 1 No Money,6,images/assets/snowy_original.jpg,learning,20,images/assets/success.jpg,images/assets/gameover.jpg,,,,,,,,,,,,,0,6,6,1,1,,,,,,,,,,,,,,,,,,,,,,,,,,,,,,,,
,,,,,,,,,,,,615374d9fd9b41728babd974,001,3,2025-04-15_08h38.08.680,avatar_quest_3AFC_legacy,2022.1.3,MacIntel,60.24096386,615374d9fd9b41728babd974,67fe37cb3bd870bba73819bd,67fe5283e3ad45c2881fd609,,,,,,,,,,,,,,,,,,,,,,With Brainslug Difficult 1 With Money,6,images/assets/snowy_money.jpg,learning,20,images/assets/success_money.jpg,images/assets/gameover.jpg,,,,,,,,,,,,,0,7,7,0,1,,,,,,,,,,,,,,,,,,,,,,,,,,,,,,,,
,,,,,,,,,,,,615374d9fd9b41728babd974,001,3,2025-04-15_08h38.08.680,avatar_quest_3AFC_legacy,2022.1.3,MacIntel,60.24096386,615374d9fd9b41728babd974,67fe37cb3bd870bba73819bd,67fe5283e3ad45c2881fd609,,,,,,,,,,,,,,,,,,,,,,With Brainslug No Barriers No Money,0,images/assets/snowy_original.jpg,learning,10,images/assets/success.jpg,images/assets/gameover.jpg,,,,,,,,,,,,,0,8,8,5,1,,,,,,,,,,,,,,,,,,,,,,,,,,,,,,,,
,,,,,,,,,,,,615374d9fd9b41728babd974,001,3,2025-04-15_08h38.08.680,avatar_quest_3AFC_legacy,2022.1.3,MacIntel,60.24096386,615374d9fd9b41728babd974,67fe37cb3bd870bba73819bd,67fe5283e3ad45c2881fd609,,,,,,,,,,,,,,,,,,,,,,No Brainslug No Barriers With Money,0,images/assets/snowy_money.jpg,learning,10,images/assets/success_money.jpg,images/assets/gameover.jpg,,,,,,,,,,,,,0,9,9,9,1,,,,,,,,,,,,,,,,,,,,,,,,,,,,,,,,
,,,,,,,,,,,,615374d9fd9b41728babd974,001,3,2025-04-15_08h38.08.680,avatar_quest_3AFC_legacy,2022.1.3,MacIntel,60.24096386,615374d9fd9b41728babd974,67fe37cb3bd870bba73819bd,67fe5283e3ad45c2881fd609,,,,,,,,,,,,,,,,,,,,,,No Brainslug No Barriers No Money,0,images/assets/snowy_original.jpg,learning,10,images/assets/success.jpg,images/assets/gameover.jpg,,,,,,,,,,,,,0,10,10,10,1,,,,,,,,,,,,,,,,,,,,,,,,,,,,,,,,
,,,,,,,,,,,,615374d9fd9b41728babd974,001,3,2025-04-15_08h38.08.680,avatar_quest_3AFC_legacy,2022.1.3,MacIntel,60.24096386,615374d9fd9b41728babd974,67fe37cb3bd870bba73819bd,67fe5283e3ad45c2881fd609,,,,,,,,,,,,,,,,,,,,,,,,,,,,,,,,,,,,,,,,,,,,,,,,,,,,,,,5,0,5,0,1,,,,,,,,,,,,,,,,,,
,,,,,,,,,,,,615374d9fd9b41728babd974,001,3,2025-04-15_08h38.08.680,avatar_quest_3AFC_legacy,2022.1.3,MacIntel,60.24096386,615374d9fd9b41728babd974,67fe37cb3bd870bba73819bd,67fe5283e3ad45c2881fd609,,,,,,,,,,,,,,,,,,,,,,No Brainslug No Barriers With Money,0,images/assets/snowy_money.jpg,learning,10,images/assets/success_money.jpg,images/assets/gameover.jpg,,,,,,,,With Brainslug Difficult 2 With Money,With Brainslug Difficult 1 No Money,right,1.5861,"[""With Brainslug Difficult 1 No Money"",""With Brainslug Difficult 2 No Money""]",0,0,0,9,1,,,,,,,,,,,,,,,,,,,,,,,,,,,,,,,,
,,,,,,,,,,,,615374d9fd9b41728babd974,001,3,2025-04-15_08h38.08.680,avatar_quest_3AFC_legacy,2022.1.3,MacIntel,60.24096386,615374d9fd9b41728babd974,67fe37cb3bd870bba73819bd,67fe5283e3ad45c2881fd609,"[""down"",""left"",""left"",""left"",""left"",""left"",""left"",""left"",""left"",""left"",""left"",""left"",""left"",""up"",""up"",""up"",""up"",""up"",""right"",""right"",""right"",""right"",""right"",""up"",""up"",""up"",""up"",""left"",""left"",""left"",""left"",""left"",""right"",""right"",""right"",""right"",""right"",""up"",""up"",""up"",""down"",""up"",""up"",""down"",""left"",""right"",""right"",""right"",""right"",""right""]","[0.5847999999523097,0.607899999976155,0.7661999999284603,0.9333999999761602,1.1065999999046312,1.2995999999046148,1.4998999999761509,1.6667999999523033,1.8670999999046103,2.083799999952305,2.316799999952309,2.5500999999046314,2.766599999904628,3.383699999928467,3.566999999999979,3.750399999976139,3.9505999999046253,4.1668999999761525,4.7339999999999804,5.133799999952316,5.335299999952298,5.733099999904624,5.940399999976137,6.200199999928458,6.4095999999046285,6.607399999976138,6.807599999904625,7.057699999928474,7.267699999928453,7.466799999952315,7.6665999999046335,8.05059999990462,8.533699999928473,8.77459999990461,8.967399999976152,9.16719999992847,9.366599999904622,10.633899999976137,10.807299999952306,11.000499999999988,11.000599999904637,11.183699999928479,11.399999999999977,11.399999999999977,11.708899999976154,11.941199999928472,12.17369999992846,12.356399999976162,12.533699999928473,12.724499999999978]",,calibration,With Brainslug Difficult 2 With Money,10,12.9814,12.9833,12,6,0,FALSE,na,na,na,na,,,,,,,,,,,,,,,,,,,,,,,,,,,,,,,,,,0,0,0,0,1,,,,,,,,,,,,,,,,,,,,,,,
,,,,,,,,,,,,615374d9fd9b41728babd974,001,3,2025-04-15_08h38.08.680,avatar_quest_3AFC_legacy,2022.1.3,MacIntel,60.24096386,615374d9fd9b41728babd974,67fe37cb3bd870bba73819bd,67fe5283e3ad45c2881fd609,,,,,,,,,,,,,,,,,,,,,,With Brainslug Difficult 2 With Money,12,images/assets/snowy_money.jpg,learning,20,images/assets/success_money.jpg,images/assets/gameover.jpg,,,,,,,,,,,,,0,1,1,2,1,,,,,,,,,,,,,,,,,,,,,,,,,,,,,,,,
,,,,,,,,,,,,615374d9fd9b41728babd974,001,3,2025-04-15_08h38.08.680,avatar_quest_3AFC_legacy,2022.1.3,MacIntel,60.24096386,615374d9fd9b41728babd974,67fe37cb3bd870bba73819bd,67fe5283e3ad45c2881fd609,,,,,,,,,,,,,,,,,,,,,,With Brainslug No Barriers No Money,0,images/assets/snowy_original.jpg,learning,10,images/assets/success.jpg,images/assets/gameover.jpg,,,,,,,,,,,,,0,2,2,5,1,,,,,,,,,,,,,,,,,,,,,,,,,,,,,,,,
,,,,,,,,,,,,615374d9fd9b41728babd974,001,3,2025-04-15_08h38.08.680,avatar_quest_3AFC_legacy,2022.1.3,MacIntel,60.24096386,615374d9fd9b41728babd974,67fe37cb3bd870bba73819bd,67fe5283e3ad45c2881fd609,,,,,,,,,,,,,,,,,,,,,,With Brainslug Difficult 1 With Money,6,images/assets/snowy_money.jpg,learning,20,images/assets/success_money.jpg,images/assets/gameover.jpg,,,,,,,,,,,,,0,3,3,0,1,,,,,,,,,,,,,,,,,,,,,,,,,,,,,,,,
,,,,,,,,,,,,615374d9fd9b41728babd974,001,3,2025-04-15_08h38.08.680,avatar_quest_3AFC_legacy,2022.1.3,MacIntel,60.24096386,615374d9fd9b41728babd974,67fe37cb3bd870bba73819bd,67fe5283e3ad45c2881fd609,,,,,,,,,,,,,,,,,,,,,,With Brainslug Difficult 1 No Money,6,images/assets/snowy_original.jpg,learning,20,images/assets/success.jpg,images/assets/gameover.jpg,,,,,,,,,,,,,0,4,4,1,1,,,,,,,,,,,,,,,,,,,,,,,,,,,,,,,,
,,,,,,,,,,,,615374d9fd9b41728babd974,001,3,2025-04-15_08h38.08.680,avatar_quest_3AFC_legacy,2022.1.3,MacIntel,60.24096386,615374d9fd9b41728babd974,67fe37cb3bd870bba73819bd,67fe5283e3ad45c2881fd609,,,,,,,,,,,,,,,,,,,,,,With Brainslug No Barriers With Money,0,images/assets/snowy_money.jpg,learning,10,images/assets/success_money.jpg,images/assets/gameover.jpg,,,,,,,,,,,,,0,5,5,4,1,,,,,,,,,,,,,,,,,,,,,,,,,,,,,,,,
,,,,,,,,,,,,615374d9fd9b41728babd974,001,3,2025-04-15_08h38.08.680,avatar_quest_3AFC_legacy,2022.1.3,MacIntel,60.24096386,615374d9fd9b41728babd974,67fe37cb3bd870bba73819bd,67fe5283e3ad45c2881fd609,,,,,,,,,,,,,,,,,,,,,,No Brainslug Difficult 2 With Money,12,images/assets/snowy_money.jpg,learning,20,images/assets/success_money.jpg,images/assets/gameover.jpg,,,,,,,,,,,,,0,6,6,7,1,,,,,,,,,,,,,,,,,,,,,,,,,,,,,,,,
,,,,,,,,,,,,615374d9fd9b41728babd974,001,3,2025-04-15_08h38.08.680,avatar_quest_3AFC_legacy,2022.1.3,MacIntel,60.24096386,615374d9fd9b41728babd974,67fe37cb3bd870bba73819bd,67fe5283e3ad45c2881fd609,,,,,,,,,,,,,,,,,,,,,,With Brainslug Difficult 2 No Money,12,images/assets/snowy_original.jpg,learning,20,images/assets/success.jpg,images/assets/gameover.jpg,,,,,,,,,,,,,0,7,7,3,1,,,,,,,,,,,,,,,,,,,,,,,,,,,,,,,,
,,,,,,,,,,,,615374d9fd9b41728babd974,001,3,2025-04-15_08h38.08.680,avatar_quest_3AFC_legacy,2022.1.3,MacIntel,60.24096386,615374d9fd9b41728babd974,67fe37cb3bd870bba73819bd,67fe5283e3ad45c2881fd609,,,,,,,,,,,,,,,,,,,,,,No Brainslug Difficult 1 No Money,6,images/assets/snowy_original.jpg,learning,20,images/assets/success.jpg,images/assets/gameover.jpg,,,,,,,,,,,,,0,8,8,6,1,,,,,,,,,,,,,,,,,,,,,,,,,,,,,,,,
,,,,,,,,,,,,615374d9fd9b41728babd974,001,3,2025-04-15_08h38.08.680,avatar_quest_3AFC_legacy,2022.1.3,MacIntel,60.24096386,615374d9fd9b41728babd974,67fe37cb3bd870bba73819bd,67fe5283e3ad45c2881fd609,,,,,,,,,,,,,,,,,,,,,,No Brainslug Difficult 2 No Money,12,images/assets/snowy_original.jpg,learning,20,images/assets/success.jpg,images/assets/gameover.jpg,,,,,,,,,,,,,0,9,9,8,1,,,,,,,,,,,,,,,,,,,,,,,,,,,,,,,,
,,,,,,,,,,,,615374d9fd9b41728babd974,001,3,2025-04-15_08h38.08.680,avatar_quest_3AFC_legacy,2022.1.3,MacIntel,60.24096386,615374d9fd9b41728babd974,67fe37cb3bd870bba73819bd,67fe5283e3ad45c2881fd609,,,,,,,,,,,,,,,,,,,,,,No Brainslug No Barriers No Money,0,images/assets/snowy_original.jpg,learning,10,images/assets/success.jpg,images/assets/gameover.jpg,,,,,,,,,,,,,0,10,10,10,1,,,,,,,,,,,,,,,,,,,,,,,,,,,,,,,,
,,,,,,,,,,,,615374d9fd9b41728babd974,001,3,2025-04-15_08h38.08.680,avatar_quest_3AFC_legacy,2022.1.3,MacIntel,60.24096386,615374d9fd9b41728babd974,67fe37cb3bd870bba73819bd,67fe5283e3ad45c2881fd609,,,,,,,,,,,,,,,,,,,,,,,,,,,,,,,,,,,,,,,,,,,,,,,,,,,,,,,6,0,6,0,1,,,,,,,,,,,,,,,,,,
,,,,,,,,,,,,615374d9fd9b41728babd974,001,3,2025-04-15_08h38.08.680,avatar_quest_3AFC_legacy,2022.1.3,MacIntel,60.24096386,615374d9fd9b41728babd974,67fe37cb3bd870bba73819bd,67fe5283e3ad45c2881fd609,,,,,,,,,,,,,,,,,,,,,,No Brainslug Difficult 2 With Money,12,images/assets/snowy_money.jpg,learning,20,images/assets/success_money.jpg,images/assets/gameover.jpg,,,,,,,,With Brainslug Difficult 2 With Money,With Brainslug Difficult 1 No Money,right,1.2572,"[""With Brainslug Difficult 1 No Money"",""With Brainslug Difficult 2 No Money""]",0,0,0,7,1,,,,,,,,,,,,,,,,,,,,,,,,,,,,,,,,
,,,,,,,,,,,,615374d9fd9b41728babd974,001,3,2025-04-15_08h38.08.680,avatar_quest_3AFC_legacy,2022.1.3,MacIntel,60.24096386,615374d9fd9b41728babd974,67fe37cb3bd870bba73819bd,67fe5283e3ad45c2881fd609,,,,,,,,,,,,,,,,,,,,,,No Brainslug No Barriers No Money,0,images/assets/snowy_original.jpg,learning,10,images/assets/success.jpg,images/assets/gameover.jpg,,,,,,,,,,,,,0,1,1,10,1,,,,,,,,,,,,,,,,,,,,,,,,,,,,,,,,
,,,,,,,,,,,,615374d9fd9b41728babd974,001,3,2025-04-15_08h38.08.680,avatar_quest_3AFC_legacy,2022.1.3,MacIntel,60.24096386,615374d9fd9b41728babd974,67fe37cb3bd870bba73819bd,67fe5283e3ad45c2881fd609,"[""left"",""left"",""right"",""right"",""right"",""right"",""left"",""left"",""left"",""right"",""right"",""right"",""right"",""right"",""right"",""right"",""right"",""left"",""left"",""left"",""left"",""left"",""left"",""left"",""left"",""left"",""left"",""left"",""left"",""left"",""left"",""left""]","[1.0626000000238207,1.2384999999999877,1.6131000000238203,1.795800000071523,1.9883000000715185,2.2553000000715144,2.538800000071518,2.722300000071499,2.90539999997614,3.696100000023847,3.879300000071538,4.0724999999999625,4.253700000047701,5.213100000023843,5.404100000023817,5.5873999999761566,5.7708999999761375,6.087899999976145,6.288800000071518,6.471499999999963,6.661500000000018,6.855399999976129,7.072100000023823,7.47220000004765,7.696100000023847,7.911500000000018,8.104800000071492,8.305300000071526,8.505200000047665,8.695700000047651,8.890600000023852,9.088899999976121]",,calibration,With Brainslug Difficult 2 With Money,11,12.9814,9.1499,13,7,0,TRUE,na,na,na,na,,,,,,,,,,,,,,,,,,,,,,,,,,,,,,,,,,0,0,0,0,1,,,,,,,,,,,,,,,,,,,,,,,
,,,,,,,,,,,,615374d9fd9b41728babd974,001,3,2025-04-15_08h38.08.680,avatar_quest_3AFC_legacy,2022.1.3,MacIntel,60.24096386,615374d9fd9b41728babd974,67fe37cb3bd870bba73819bd,67fe5283e3ad45c2881fd609,,,,,,,,,,,,,,,,,,,,,,With Brainslug Difficult 2 With Money,12,images/assets/snowy_money.jpg,learning,20,images/assets/success_money.jpg,images/assets/gameover.jpg,,,,,,,,,,,,,0,2,2,2,1,,,,,,,,,,,,,,,,,,,,,,,,,,,,,,,,
,,,,,,,,,,,,615374d9fd9b41728babd974,001,3,2025-04-15_08h38.08.680,avatar_quest_3AFC_legacy,2022.1.3,MacIntel,60.24096386,615374d9fd9b41728babd974,67fe37cb3bd870bba73819bd,67fe5283e3ad45c2881fd609,,,,,,,,,,,,,,,,,,,,,,No Brainslug No Barriers With Money,0,images/assets/snowy_money.jpg,learning,10,images/assets/success_money.jpg,images/assets/gameover.jpg,,,,,,,,,,,,,0,3,3,9,1,,,,,,,,,,,,,,,,,,,,,,,,,,,,,,,,
,,,,,,,,,,,,615374d9fd9b41728babd974,001,3,2025-04-15_08h38.08.680,avatar_quest_3AFC_legacy,2022.1.3,MacIntel,60.24096386,615374d9fd9b41728babd974,67fe37cb3bd870bba73819bd,67fe5283e3ad45c2881fd609,,,,,,,,,,,,,,,,,,,,,,With Brainslug No Barriers With Money,0,images/assets/snowy_money.jpg,learning,10,images/assets/success_money.jpg,images/assets/gameover.jpg,,,,,,,,,,,,,0,4,4,4,1,,,,,,,,,,,,,,,,,,,,,,,,,,,,,,,,
,,,,,,,,,,,,615374d9fd9b41728babd974,001,3,2025-04-15_08h38.08.680,avatar_quest_3AFC_legacy,2022.1.3,MacIntel,60.24096386,615374d9fd9b41728babd974,67fe37cb3bd870bba73819bd,67fe5283e3ad45c2881fd609,,,,,,,,,,,,,,,,,,,,,,With Brainslug No Barriers No Money,0,images/assets/snowy_original.jpg,learning,10,images/assets/success.jpg,images/assets/gameover.jpg,,,,,,,,,,,,,0,5,5,5,1,,,,,,,,,,,,,,,,,,,,,,,,,,,,,,,,
,,,,,,,,,,,,615374d9fd9b41728babd974,001,3,2025-04-15_08h38.08.680,avatar_quest_3AFC_legacy,2022.1.3,MacIntel,60.24096386,615374d9fd9b41728babd974,67fe37cb3bd870bba73819bd,67fe5283e3ad45c2881fd609,,,,,,,,,,,,,,,,,,,,,,No Brainslug Difficult 2 No Money,12,images/assets/snowy_original.jpg,learning,20,images/assets/success.jpg,images/assets/gameover.jpg,,,,,,,,,,,,,0,6,6,8,1,,,,,,,,,,,,,,,,,,,,,,,,,,,,,,,,
,,,,,,,,,,,,615374d9fd9b41728babd974,001,3,2025-04-15_08h38.08.680,avatar_quest_3AFC_legacy,2022.1.3,MacIntel,60.24096386,615374d9fd9b41728babd974,67fe37cb3bd870bba73819bd,67fe5283e3ad45c2881fd609,,,,,,,,,,,,,,,,,,,,,,No Brainslug Difficult 1 No Money,6,images/assets/snowy_original.jpg,learning,20,images/assets/success.jpg,images/assets/gameover.jpg,,,,,,,,,,,,,0,7,7,6,1,,,,,,,,,,,,,,,,,,,,,,,,,,,,,,,,
,,,,,,,,,,,,615374d9fd9b41728babd974,001,3,2025-04-15_08h38.08.680,avatar_quest_3AFC_legacy,2022.1.3,MacIntel,60.24096386,615374d9fd9b41728babd974,67fe37cb3bd870bba73819bd,67fe5283e3ad45c2881fd609,,,,,,,,,,,,,,,,,,,,,,With Brainslug Difficult 2 No Money,12,images/assets/snowy_original.jpg,learning,20,images/assets/success.jpg,images/assets/gameover.jpg,,,,,,,,,,,,,0,8,8,3,1,,,,,,,,,,,,,,,,,,,,,,,,,,,,,,,,
,,,,,,,,,,,,615374d9fd9b41728babd974,001,3,2025-04-15_08h38.08.680,avatar_quest_3AFC_legacy,2022.1.3,MacIntel,60.24096386,615374d9fd9b41728babd974,67fe37cb3bd870bba73819bd,67fe5283e3ad45c2881fd609,,,,,,,,,,,,,,,,,,,,,,With Brainslug Difficult 1 No Money,6,images/assets/snowy_original.jpg,learning,20,images/assets/success.jpg,images/assets/gameover.jpg,,,,,,,,,,,,,0,9,9,1,1,,,,,,,,,,,,,,,,,,,,,,,,,,,,,,,,
,,,,,,,,,,,,615374d9fd9b41728babd974,001,3,2025-04-15_08h38.08.680,avatar_quest_3AFC_legacy,2022.1.3,MacIntel,60.24096386,615374d9fd9b41728babd974,67fe37cb3bd870bba73819bd,67fe5283e3ad45c2881fd609,,,,,,,,,,,,,,,,,,,,,,With Brainslug Difficult 1 With Money,6,images/assets/snowy_money.jpg,learning,20,images/assets/success_money.jpg,images/assets/gameover.jpg,,,,,,,,,,,,,0,10,10,0,1,,,,,,,,,,,,,,,,,,,,,,,,,,,,,,,,
,,,,,,,,,,,,615374d9fd9b41728babd974,001,3,2025-04-15_08h38.08.680,avatar_quest_3AFC_legacy,2022.1.3,MacIntel,60.24096386,615374d9fd9b41728babd974,67fe37cb3bd870bba73819bd,67fe5283e3ad45c2881fd609,,,,,,,,,,,,,,,,,,,,,,,,,,,,,,,,,,,,,,,,,,,,,,,,,,,,,,,7,0,7,0,1,,,,,,,,,,,,,,,,,,
,,,,,,,,,,,,615374d9fd9b41728babd974,001,3,2025-04-15_08h38.08.680,avatar_quest_3AFC_legacy,2022.1.3,MacIntel,60.24096386,615374d9fd9b41728babd974,67fe37cb3bd870bba73819bd,67fe5283e3ad45c2881fd609,,,,,,,,,,,,,,,,,,,,,,No Brainslug Difficult 2 With Money,12,images/assets/snowy_money.jpg,learning,20,images/assets/success_money.jpg,images/assets/gameover.jpg,,,,,,,,With Brainslug Difficult 2 With Money,With Brainslug Difficult 1 No Money,right,1.4762,"[""With Brainslug Difficult 1 No Money"",""With Brainslug Difficult 2 No Money""]",0,0,0,7,1,,,,,,,,,,,,,,,,,,,,,,,,,,,,,,,,
,,,,,,,,,,,,615374d9fd9b41728babd974,001,3,2025-04-15_08h38.08.680,avatar_quest_3AFC_legacy,2022.1.3,MacIntel,60.24096386,615374d9fd9b41728babd974,67fe37cb3bd870bba73819bd,67fe5283e3ad45c2881fd609,,,,,,,,,,,,,,,,,,,,,,With Brainslug No Barriers With Money,0,images/assets/snowy_money.jpg,learning,10,images/assets/success_money.jpg,images/assets/gameover.jpg,,,,,,,,,,,,,0,1,1,4,1,,,,,,,,,,,,,,,,,,,,,,,,,,,,,,,,
,,,,,,,,,,,,615374d9fd9b41728babd974,001,3,2025-04-15_08h38.08.680,avatar_quest_3AFC_legacy,2022.1.3,MacIntel,60.24096386,615374d9fd9b41728babd974,67fe37cb3bd870bba73819bd,67fe5283e3ad45c2881fd609,,,,,,,,,,,,,,,,,,,,,,No Brainslug No Barriers No Money,0,images/assets/snowy_original.jpg,learning,10,images/assets/success.jpg,images/assets/gameover.jpg,,,,,,,,,,,,,0,2,2,10,1,,,,,,,,,,,,,,,,,,,,,,,,,,,,,,,,
,,,,,,,,,,,,615374d9fd9b41728babd974,001,3,2025-04-15_08h38.08.680,avatar_quest_3AFC_legacy,2022.1.3,MacIntel,60.24096386,615374d9fd9b41728babd974,67fe37cb3bd870bba73819bd,67fe5283e3ad45c2881fd609,,,,,,,,,,,,,,,,,,,,,,With Brainslug No Barriers No Money,0,images/assets/snowy_original.jpg,learning,10,images/assets/success.jpg,images/assets/gameover.jpg,,,,,,,,,,,,,0,3,3,5,1,,,,,,,,,,,,,,,,,,,,,,,,,,,,,,,,
,,,,,,,,,,,,615374d9fd9b41728babd974,001,3,2025-04-15_08h38.08.680,avatar_quest_3AFC_legacy,2022.1.3,MacIntel,60.24096386,615374d9fd9b41728babd974,67fe37cb3bd870bba73819bd,67fe5283e3ad45c2881fd609,,,,,,,,,,,,,,,,,,,,,,No Brainslug Difficult 2 No Money,12,images/assets/snowy_original.jpg,learning,20,images/assets/success.jpg,images/assets/gameover.jpg,,,,,,,,,,,,,0,4,4,8,1,,,,,,,,,,,,,,,,,,,,,,,,,,,,,,,,
,,,,,,,,,,,,615374d9fd9b41728babd974,001,3,2025-04-15_08h38.08.680,avatar_quest_3AFC_legacy,2022.1.3,MacIntel,60.24096386,615374d9fd9b41728babd974,67fe37cb3bd870bba73819bd,67fe5283e3ad45c2881fd609,,,,,,,,,,,,,,,,,,,,,,No Brainslug Difficult 1 No Money,6,images/assets/snowy_original.jpg,learning,20,images/assets/success.jpg,images/assets/gameover.jpg,,,,,,,,,,,,,0,5,5,6,1,,,,,,,,,,,,,,,,,,,,,,,,,,,,,,,,
,,,,,,,,,,,,615374d9fd9b41728babd974,001,3,2025-04-15_08h38.08.680,avatar_quest_3AFC_legacy,2022.1.3,MacIntel,60.24096386,615374d9fd9b41728babd974,67fe37cb3bd870bba73819bd,67fe5283e3ad45c2881fd609,,,,,,,,,,,,,,,,,,,,,,No Brainslug No Barriers With Money,0,images/assets/snowy_money.jpg,learning,10,images/assets/success_money.jpg,images/assets/gameover.jpg,,,,,,,,,,,,,0,6,6,9,1,,,,,,,,,,,,,,,,,,,,,,,,,,,,,,,,
,,,,,,,,,,,,615374d9fd9b41728babd974,001,3,2025-04-15_08h38.08.680,avatar_quest_3AFC_legacy,2022.1.3,MacIntel,60.24096386,615374d9fd9b41728babd974,67fe37cb3bd870bba73819bd,67fe5283e3ad45c2881fd609,,,,,,,,,,,,,,,,,,,,,,With Brainslug Difficult 1 No Money,6,images/assets/snowy_original.jpg,learning,20,images/assets/success.jpg,images/assets/gameover.jpg,,,,,,,,,,,,,0,7,7,1,1,,,,,,,,,,,,,,,,,,,,,,,,,,,,,,,,
,,,,,,,,,,,,615374d9fd9b41728babd974,001,3,2025-04-15_08h38.08.680,avatar_quest_3AFC_legacy,2022.1.3,MacIntel,60.24096386,615374d9fd9b41728babd974,67fe37cb3bd870bba73819bd,67fe5283e3ad45c2881fd609,,,,,,,,,,,,,,,,,,,,,,With Brainslug Difficult 2 No Money,12,images/assets/snowy_original.jpg,learning,20,images/assets/success.jpg,images/assets/gameover.jpg,,,,,,,,,,,,,0,8,8,3,1,,,,,,,,,,,,,,,,,,,,,,,,,,,,,,,,
,,,,,,,,,,,,615374d9fd9b41728babd974,001,3,2025-04-15_08h38.08.680,avatar_quest_3AFC_legacy,2022.1.3,MacIntel,60.24096386,615374d9fd9b41728babd974,67fe37cb3bd870bba73819bd,67fe5283e3ad45c2881fd609,,,,,,,,,,,,,,,,,,,,,,With Brainslug Difficult 1 With Money,6,images/assets/snowy_money.jpg,learning,20,images/assets/success_money.jpg,images/assets/gameover.jpg,,,,,,,,,,,,,0,9,9,0,1,,,,,,,,,,,,,,,,,,,,,,,,,,,,,,,,
,,,,,,,,,,,,615374d9fd9b41728babd974,001,3,2025-04-15_08h38.08.680,avatar_quest_3AFC_legacy,2022.1.3,MacIntel,60.24096386,615374d9fd9b41728babd974,67fe37cb3bd870bba73819bd,67fe5283e3ad45c2881fd609,"[""left"",""left"",""left"",""left"",""left"",""left"",""left"",""up"",""up"",""up"",""up"",""up"",""right"",""right"",""right"",""right"",""right"",""right"",""right"",""up"",""up"",""up"",""up"",""left"",""left"",""up"",""up"",""up"",""up"",""up"",""right"",""right"",""right"",""right"",""right"",""right"",""right"",""up"",""up"",""up"",""up"",""up"",""left"",""left"",""left"",""left"",""left"",""up"",""up""]","[1.057599999904653,1.2478999999761982,1.4145000000000323,1.597899999976164,1.8025999999046576,1.9836999999284899,2.1823999999761554,2.5825999999046303,2.7825000000000273,2.966000000000008,3.1496999999284867,3.3070000000000164,3.657599999904619,3.8326999999284794,4.0162999999523095,4.206599999904654,4.406799999952341,4.599699999928475,5.034299999952339,5.499000000000024,5.699099999904661,5.932699999928502,6.132299999952352,7.015599999904623,7.165999999999997,7.600000000000023,7.783299999952305,7.983099999904653,8.149599999904638,8.349599999904626,8.716099999904657,8.916099999904645,9.223799999952348,9.432999999999993,9.650899999976161,9.883299999952328,10.116399999976181,10.416499999999985,10.633299999952328,10.833099999904618,11.033299999952305,11.250099999904648,11.500199999928498,11.706899999976144,11.915899999976148,12.122500000000002,12.339099999904647,12.633000000000038,12.883299999952328]",,calibration,With Brainslug Difficult 2 With Money,12,12.9814,12.9834,9,6,0,FALSE,na,na,na,na,,,,,,,,,,,,,,,,,,,,,,,,,,,,,,,,,,0,0,0,0,1,,,,,,,,,,,,,,,,,,,,,,,
,,,,,,,,,,,,615374d9fd9b41728babd974,001,3,2025-04-15_08h38.08.680,avatar_quest_3AFC_legacy,2022.1.3,MacIntel,60.24096386,615374d9fd9b41728babd974,67fe37cb3bd870bba73819bd,67fe5283e3ad45c2881fd609,,,,,,,,,,,,,,,,,,,,,,With Brainslug Difficult 2 With Money,12,images/assets/snowy_money.jpg,learning,20,images/assets/success_money.jpg,images/assets/gameover.jpg,,,,,,,,,,,,,0,10,10,2,1,,,,,,,,,,,,,,,,,,,,,,,,,,,,,,,,
,,,,,,,,,,,,615374d9fd9b41728babd974,001,3,2025-04-15_08h38.08.680,avatar_quest_3AFC_legacy,2022.1.3,MacIntel,60.24096386,615374d9fd9b41728babd974,67fe37cb3bd870bba73819bd,67fe5283e3ad45c2881fd609,,,,,,,,,,,,,,,,,,,,,,,,,,,,,,,,,,,,,,,,,,,,,,,,,,,,,,,8,0,8,0,1,,,,,,,,,,,,,,,,,,
,,,,,,,,,,,,615374d9fd9b41728babd974,001,3,2025-04-15_08h38.08.680,avatar_quest_3AFC_legacy,2022.1.3,MacIntel,60.24096386,615374d9fd9b41728babd974,67fe37cb3bd870bba73819bd,67fe5283e3ad45c2881fd609,,,,,,,,,,,,,,,,,,,,,,With Brainslug Difficult 1 With Money,6,images/assets/snowy_money.jpg,learning,20,images/assets/success_money.jpg,images/assets/gameover.jpg,,,,,,,,With Brainslug Difficult 2 With Money,With Brainslug Difficult 1 No Money,right,1.4891,"[""With Brainslug Difficult 1 No Money"",""With Brainslug Difficult 2 No Money""]",0,0,0,0,1,,,,,,,,,,,,,,,,,,,,,,,,,,,,,,,,
,,,,,,,,,,,,615374d9fd9b41728babd974,001,3,2025-04-15_08h38.08.680,avatar_quest_3AFC_legacy,2022.1.3,MacIntel,60.24096386,615374d9fd9b41728babd974,67fe37cb3bd870bba73819bd,67fe5283e3ad45c2881fd609,,,,,,,,,,,,,,,,,,,,,,With Brainslug Difficult 2 No Money,12,images/assets/snowy_original.jpg,learning,20,images/assets/success.jpg,images/assets/gameover.jpg,,,,,,,,,,,,,0,1,1,3,1,,,,,,,,,,,,,,,,,,,,,,,,,,,,,,,,
,,,,,,,,,,,,615374d9fd9b41728babd974,001,3,2025-04-15_08h38.08.680,avatar_quest_3AFC_legacy,2022.1.3,MacIntel,60.24096386,615374d9fd9b41728babd974,67fe37cb3bd870bba73819bd,67fe5283e3ad45c2881fd609,,,,,,,,,,,,,,,,,,,,,,With Brainslug No Barriers With Money,0,images/assets/snowy_money.jpg,learning,10,images/assets/success_money.jpg,images/assets/gameover.jpg,,,,,,,,,,,,,0,2,2,4,1,,,,,,,,,,,,,,,,,,,,,,,,,,,,,,,,
,,,,,,,,,,,,615374d9fd9b41728babd974,001,3,2025-04-15_08h38.08.680,avatar_quest_3AFC_legacy,2022.1.3,MacIntel,60.24096386,615374d9fd9b41728babd974,67fe37cb3bd870bba73819bd,67fe5283e3ad45c2881fd609,,,,,,,,,,,,,,,,,,,,,,With Brainslug No Barriers No Money,0,images/assets/snowy_original.jpg,learning,10,images/assets/success.jpg,images/assets/gameover.jpg,,,,,,,,,,,,,0,3,3,5,1,,,,,,,,,,,,,,,,,,,,,,,,,,,,,,,,
,,,,,,,,,,,,615374d9fd9b41728babd974,001,3,2025-04-15_08h38.08.680,avatar_quest_3AFC_legacy,2022.1.3,MacIntel,60.24096386,615374d9fd9b41728babd974,67fe37cb3bd870bba73819bd,67fe5283e3ad45c2881fd609,,,,,,,,,,,,,,,,,,,,,,No Brainslug Difficult 2 With Money,12,images/assets/snowy_money.jpg,learning,20,images/assets/success_money.jpg,images/assets/gameover.jpg,,,,,,,,,,,,,0,4,4,7,1,,,,,,,,,,,,,,,,,,,,,,,,,,,,,,,,
,,,,,,,,,,,,615374d9fd9b41728babd974,001,3,2025-04-15_08h38.08.680,avatar_quest_3AFC_legacy,2022.1.3,MacIntel,60.24096386,615374d9fd9b41728babd974,67fe37cb3bd870bba73819bd,67fe5283e3ad45c2881fd609,,,,,,,,,,,,,,,,,,,,,,No Brainslug No Barriers No Money,0,images/assets/snowy_original.jpg,learning,10,images/assets/success.jpg,images/assets/gameover.jpg,,,,,,,,,,,,,0,5,5,10,1,,,,,,,,,,,,,,,,,,,,,,,,,,,,,,,,
,,,,,,,,,,,,615374d9fd9b41728babd974,001,3,2025-04-15_08h38.08.680,avatar_quest_3AFC_legacy,2022.1.3,MacIntel,60.24096386,615374d9fd9b41728babd974,67fe37cb3bd870bba73819bd,67fe5283e3ad45c2881fd609,,,,,,,,,,,,,,,,,,,,,,No Brainslug No Barriers With Money,0,images/assets/snowy_money.jpg,learning,10,images/assets/success_money.jpg,images/assets/gameover.jpg,,,,,,,,,,,,,0,6,6,9,1,,,,,,,,,,,,,,,,,,,,,,,,,,,,,,,,
,,,,,,,,,,,,615374d9fd9b41728babd974,001,3,2025-04-15_08h38.08.680,avatar_quest_3AFC_legacy,2022.1.3,MacIntel,60.24096386,615374d9fd9b41728babd974,67fe37cb3bd870bba73819bd,67fe5283e3ad45c2881fd609,,,,,,,,,,,,,,,,,,,,,,With Brainslug Difficult 1 No Money,6,images/assets/snowy_original.jpg,learning,20,images/assets/success.jpg,images/assets/gameover.jpg,,,,,,,,,,,,,0,7,7,1,1,,,,,,,,,,,,,,,,,,,,,,,,,,,,,,,,
,,,,,,,,,,,,615374d9fd9b41728babd974,001,3,2025-04-15_08h38.08.680,avatar_quest_3AFC_legacy,2022.1.3,MacIntel,60.24096386,615374d9fd9b41728babd974,67fe37cb3bd870bba73819bd,67fe5283e3ad45c2881fd609,,,,,,,,,,,,,,,,,,,,,,No Brainslug Difficult 1 No Money,6,images/assets/snowy_original.jpg,learning,20,images/assets/success.jpg,images/assets/gameover.jpg,,,,,,,,,,,,,0,8,8,6,1,,,,,,,,,,,,,,,,,,,,,,,,,,,,,,,,
,,,,,,,,,,,,615374d9fd9b41728babd974,001,3,2025-04-15_08h38.08.680,avatar_quest_3AFC_legacy,2022.1.3,MacIntel,60.24096386,615374d9fd9b41728babd974,67fe37cb3bd870bba73819bd,67fe5283e3ad45c2881fd609,"[""up"",""up"",""up"",""up"",""up"",""up"",""up"",""left"",""left"",""left"",""left"",""left"",""left"",""up"",""up"",""up"",""up"",""right"",""right"",""right"",""right"",""right"",""right"",""right"",""up"",""up"",""up"",""up"",""left"",""left"",""left"",""left"",""left"",""left"",""left"",""left"",""left"",""left"",""up"",""up"",""up"",""right"",""right"",""right"",""right"",""right"",""right"",""right"",""right"",""right""]","[0.5405999999046003,0.7307999999522963,0.9079999999999586,1.1065999999046312,1.306299999952273,1.490299999952299,1.6975999999046394,2.4476999999284317,2.625,2.814099999904613,3.024000000000001,3.69789999997613,3.8734999999999786,4.074000000000012,4.2553999999761345,4.440999999999974,4.624099999904615,5.197499999999991,5.373899999976118,5.574199999928453,5.758299999952328,5.939899999976149,6.156999999999982,6.331199999928458,6.674299999952325,6.8904999999999745,7.075199999928486,7.274299999952291,7.531000000000006,7.732799999952306,7.940499999999986,8.315199999928439,8.5405999999046,8.757299999952295,9.31450000000001,9.607299999952318,9.857599999904608,10.048299999952292,10.357499999999959,10.56439999997616,10.757699999928434,11.124199999928464,11.314899999976149,11.507399999976144,11.706999999999994,11.907299999952272,12.115000000000009,12.397999999999968,12.623599999904627,12.857199999928469]",,calibration,With Brainslug Difficult 2 With Money,13,12.9814,12.9834,10,4,0,FALSE,na,na,na,na,,,,,,,,,,,,,,,,,,,,,,,,,,,,,,,,,,0,0,0,0,1,,,,,,,,,,,,,,,,,,,,,,,
,,,,,,,,,,,,615374d9fd9b41728babd974,001,3,2025-04-15_08h38.08.680,avatar_quest_3AFC_legacy,2022.1.3,MacIntel,60.24096386,615374d9fd9b41728babd974,67fe37cb3bd870bba73819bd,67fe5283e3ad45c2881fd609,,,,,,,,,,,,,,,,,,,,,,With Brainslug Difficult 2 With Money,12,images/assets/snowy_money.jpg,learning,20,images/assets/success_money.jpg,images/assets/gameover.jpg,,,,,,,,,,,,,0,9,9,2,1,,,,,,,,,,,,,,,,,,,,,,,,,,,,,,,,
,,,,,,,,,,,,615374d9fd9b41728babd974,001,3,2025-04-15_08h38.08.680,avatar_quest_3AFC_legacy,2022.1.3,MacIntel,60.24096386,615374d9fd9b41728babd974,67fe37cb3bd870bba73819bd,67fe5283e3ad45c2881fd609,,,,,,,,,,,,,,,,,,,,,,No Brainslug Difficult 2 No Money,12,images/assets/snowy_original.jpg,learning,20,images/assets/success.jpg,images/assets/gameover.jpg,,,,,,,,,,,,,0,10,10,8,1,,,,,,,,,,,,,,,,,,,,,,,,,,,,,,,,
,,,,,,,,,,,,615374d9fd9b41728babd974,001,3,2025-04-15_08h38.08.680,avatar_quest_3AFC_legacy,2022.1.3,MacIntel,60.24096386,615374d9fd9b41728babd974,67fe37cb3bd870bba73819bd,67fe5283e3ad45c2881fd609,,,,,,,,,,,,,,,,,,,,,,,,,,,,,,,,,,,,,,,,,,,,,,,,,,,,,,,9,0,9,0,1,,,,,,,,,,,,,,,,,,
,,,,,,,,,,,,615374d9fd9b41728babd974,001,3,2025-04-15_08h38.08.680,avatar_quest_3AFC_legacy,2022.1.3,MacIntel,60.24096386,615374d9fd9b41728babd974,67fe37cb3bd870bba73819bd,67fe5283e3ad45c2881fd609,,,,,,,,,,,,,,,,,,,,,,No Brainslug Difficult 2 No Money,12,images/assets/snowy_original.jpg,learning,20,images/assets/success.jpg,images/assets/gameover.jpg,,,,,,,,With Brainslug Difficult 2 With Money,With Brainslug Difficult 1 No Money,right,1.4286,"[""With Brainslug Difficult 1 No Money"",""With Brainslug Difficult 2 No Money""]",0,0,0,8,1,,,,,,,,,,,,,,,,,,,,,,,,,,,,,,,,
,,,,,,,,,,,,615374d9fd9b41728babd974,001,3,2025-04-15_08h38.08.680,avatar_quest_3AFC_legacy,2022.1.3,MacIntel,60.24096386,615374d9fd9b41728babd974,67fe37cb3bd870bba73819bd,67fe5283e3ad45c2881fd609,,,,,,,,,,,,,,,,,,,,,,With Brainslug No Barriers No Money,0,images/assets/snowy_original.jpg,learning,10,images/assets/success.jpg,images/assets/gameover.jpg,,,,,,,,,,,,,0,1,1,5,1,,,,,,,,,,,,,,,,,,,,,,,,,,,,,,,,
,,,,,,,,,,,,615374d9fd9b41728babd974,001,3,2025-04-15_08h38.08.680,avatar_quest_3AFC_legacy,2022.1.3,MacIntel,60.24096386,615374d9fd9b41728babd974,67fe37cb3bd870bba73819bd,67fe5283e3ad45c2881fd609,,,,,,,,,,,,,,,,,,,,,,No Brainslug Difficult 1 No Money,6,images/assets/snowy_original.jpg,learning,20,images/assets/success.jpg,images/assets/gameover.jpg,,,,,,,,,,,,,0,2,2,6,1,,,,,,,,,,,,,,,,,,,,,,,,,,,,,,,,
,,,,,,,,,,,,615374d9fd9b41728babd974,001,3,2025-04-15_08h38.08.680,avatar_quest_3AFC_legacy,2022.1.3,MacIntel,60.24096386,615374d9fd9b41728babd974,67fe37cb3bd870bba73819bd,67fe5283e3ad45c2881fd609,,,,,,,,,,,,,,,,,,,,,,With Brainslug Difficult 1 No Money,6,images/assets/snowy_original.jpg,learning,20,images/assets/success.jpg,images/assets/gameover.jpg,,,,,,,,,,,,,0,3,3,1,1,,,,,,,,,,,,,,,,,,,,,,,,,,,,,,,,
,,,,,,,,,,,,615374d9fd9b41728babd974,001,3,2025-04-15_08h38.08.680,avatar_quest_3AFC_legacy,2022.1.3,MacIntel,60.24096386,615374d9fd9b41728babd974,67fe37cb3bd870bba73819bd,67fe5283e3ad45c2881fd609,,,,,,,,,,,,,,,,,,,,,,No Brainslug No Barriers No Money,0,images/assets/snowy_original.jpg,learning,10,images/assets/success.jpg,images/assets/gameover.jpg,,,,,,,,,,,,,0,4,4,10,1,,,,,,,,,,,,,,,,,,,,,,,,,,,,,,,,
,,,,,,,,,,,,615374d9fd9b41728babd974,001,3,2025-04-15_08h38.08.680,avatar_quest_3AFC_legacy,2022.1.3,MacIntel,60.24096386,615374d9fd9b41728babd974,67fe37cb3bd870bba73819bd,67fe5283e3ad45c2881fd609,,,,,,,,,,,,,,,,,,,,,,With Brainslug No Barriers With Money,0,images/assets/snowy_money.jpg,learning,10,images/assets/success_money.jpg,images/assets/gameover.jpg,,,,,,,,,,,,,0,5,5,4,1,,,,,,,,,,,,,,,,,,,,,,,,,,,,,,,,
,,,,,,,,,,,,615374d9fd9b41728babd974,001,3,2025-04-15_08h38.08.680,avatar_quest_3AFC_legacy,2022.1.3,MacIntel,60.24096386,615374d9fd9b41728babd974,67fe37cb3bd870bba73819bd,67fe5283e3ad45c2881fd609,,,,,,,,,,,,,,,,,,,,,,No Brainslug Difficult 2 With Money,12,images/assets/snowy_money.jpg,learning,20,images/assets/success_money.jpg,images/assets/gameover.jpg,,,,,,,,,,,,,0,6,6,7,1,,,,,,,,,,,,,,,,,,,,,,,,,,,,,,,,
,,,,,,,,,,,,615374d9fd9b41728babd974,001,3,2025-04-15_08h38.08.680,avatar_quest_3AFC_legacy,2022.1.3,MacIntel,60.24096386,615374d9fd9b41728babd974,67fe37cb3bd870bba73819bd,67fe5283e3ad45c2881fd609,,,,,,,,,,,,,,,,,,,,,,With Brainslug Difficult 1 With Money,6,images/assets/snowy_money.jpg,learning,20,images/assets/success_money.jpg,images/assets/gameover.jpg,,,,,,,,,,,,,0,7,7,0,1,,,,,,,,,,,,,,,,,,,,,,,,,,,,,,,,
,,,,,,,,,,,,615374d9fd9b41728babd974,001,3,2025-04-15_08h38.08.680,avatar_quest_3AFC_legacy,2022.1.3,MacIntel,60.24096386,615374d9fd9b41728babd974,67fe37cb3bd870bba73819bd,67fe5283e3ad45c2881fd609,"[""up"",""up"",""up"",""up"",""up"",""left"",""left"",""left"",""left"",""left"",""right"",""right"",""right"",""right"",""right"",""right"",""right"",""right"",""right"",""right"",""up"",""up"",""left"",""left"",""left"",""left"",""left"",""left"",""left"",""left"",""up"",""up"",""up"",""up"",""up"",""up"",""up"",""up"",""up"",""up"",""up"",""up"",""up"",""up"",""up"",""up"",""up"",""up"",""up"",""up"",""up"",""up"",""left"",""left""]","[0.5384999999999991,0.7483000000715379,0.9551000000238332,1.155200000047671,1.3648000000715115,2.0482000000477,2.2477000000477005,2.4487000000476655,2.6656000000238578,2.888600000023814,3.281100000023855,3.481600000023832,3.663499999999999,3.864200000047674,4.047700000047712,4.2479999999999905,4.447499999999991,4.631300000071519,4.82230000007155,5.031100000023855,5.34699999999998,5.564300000071512,6.065100000023847,6.248300000071538,6.430999999999983,6.631600000023866,6.831600000023855,7.030500000000018,7.231499999999983,7.465200000047673,7.898500000000013,8.115000000000009,8.314999999999998,8.515100000023835,8.713999999999999,8.921399999976131,9.115100000023858,9.331700000047704,9.538800000071546,9.755600000023833,9.957200000047692,10.164899999976171,10.365399999976148,10.556899999976167,10.748600000023828,10.940600000023835,11.131899999976156,11.36489999997616,11.581600000023855,11.771999999999991,11.981499999999983,12.165300000071511,12.565399999976137,12.781499999999994]",,calibration,With Brainslug Difficult 2 With Money,14,12.9814,12.9836,11,6,0,FALSE,na,na,na,na,,,,,,,,,,,,,,,,,,,,,,,,,,,,,,,,,,0,0,0,0,1,,,,,,,,,,,,,,,,,,,,,,,
,,,,,,,,,,,,615374d9fd9b41728babd974,001,3,2025-04-15_08h38.08.680,avatar_quest_3AFC_legacy,2022.1.3,MacIntel,60.24096386,615374d9fd9b41728babd974,67fe37cb3bd870bba73819bd,67fe5283e3ad45c2881fd609,,,,,,,,,,,,,,,,,,,,,,With Brainslug Difficult 2 With Money,12,images/assets/snowy_money.jpg,learning,20,images/assets/success_money.jpg,images/assets/gameover.jpg,,,,,,,,,,,,,0,8,8,2,1,,,,,,,,,,,,,,,,,,,,,,,,,,,,,,,,
,,,,,,,,,,,,615374d9fd9b41728babd974,001,3,2025-04-15_08h38.08.680,avatar_quest_3AFC_legacy,2022.1.3,MacIntel,60.24096386,615374d9fd9b41728babd974,67fe37cb3bd870bba73819bd,67fe5283e3ad45c2881fd609,,,,,,,,,,,,,,,,,,,,,,No Brainslug No Barriers With Money,0,images/assets/snowy_money.jpg,learning,10,images/assets/success_money.jpg,images/assets/gameover.jpg,,,,,,,,,,,,,0,9,9,9,1,,,,,,,,,,,,,,,,,,,,,,,,,,,,,,,,
,,,,,,,,,,,,615374d9fd9b41728babd974,001,3,2025-04-15_08h38.08.680,avatar_quest_3AFC_legacy,2022.1.3,MacIntel,60.24096386,615374d9fd9b41728babd974,67fe37cb3bd870bba73819bd,67fe5283e3ad45c2881fd609,,,,,,,,,,,,,,,,,,,,,,With Brainslug Difficult 2 No Money,12,images/assets/snowy_original.jpg,learning,20,images/assets/success.jpg,images/assets/gameover.jpg,,,,,,,,,,,,,0,10,10,3,1,,,,,,,,,,,,,,,,,,,,,,,,,,,,,,,,
,,,,,,,,,,,,615374d9fd9b41728babd974,001,3,2025-04-15_08h38.08.680,avatar_quest_3AFC_legacy,2022.1.3,MacIntel,60.24096386,615374d9fd9b41728babd974,67fe37cb3bd870bba73819bd,67fe5283e3ad45c2881fd609,,,,,,,,,,,,,,,,,,,,,,,,,,,,,,,,,,,,,,,,,,,,,,,,,,,,,,,10,0,10,0,1,,,,,,,,,,,,,,,,,,
,,,,,,,,,,,,615374d9fd9b41728babd974,001,3,2025-04-15_08h38.08.680,avatar_quest_3AFC_legacy,2022.1.3,MacIntel,60.24096386,615374d9fd9b41728babd974,67fe37cb3bd870bba73819bd,67fe5283e3ad45c2881fd609,,,,,,,,,,,,,,,,,,,,,,With Brainslug Difficult 1 With Money,6,images/assets/snowy_money.jpg,learning,20,images/assets/success_money.jpg,images/assets/gameover.jpg,,,,,,,,With Brainslug Difficult 2 With Money,With Brainslug Difficult 1 No Money,right,1.697,"[""With Brainslug Difficult 1 No Money"",""With Brainslug Difficult 2 No Money""]",0,0,0,0,1,,,,,,,,,,,,,,,,,,,,,,,,,,,,,,,,
,,,,,,,,,,,,615374d9fd9b41728babd974,001,3,2025-04-15_08h38.08.680,avatar_quest_3AFC_legacy,2022.1.3,MacIntel,60.24096386,615374d9fd9b41728babd974,67fe37cb3bd870bba73819bd,67fe5283e3ad45c2881fd609,,,,,,,,,,,,,,,,,,,,,,With Brainslug Difficult 1 No Money,6,images/assets/snowy_original.jpg,learning,20,images/assets/success.jpg,images/assets/gameover.jpg,,,,,,,,,,,,,0,1,1,1,1,,,,,,,,,,,,,,,,,,,,,,,,,,,,,,,,
,,,,,,,,,,,,615374d9fd9b41728babd974,001,3,2025-04-15_08h38.08.680,avatar_quest_3AFC_legacy,2022.1.3,MacIntel,60.24096386,615374d9fd9b41728babd974,67fe37cb3bd870bba73819bd,67fe5283e3ad45c2881fd609,,,,,,,,,,,,,,,,,,,,,,With Brainslug Difficult 2 No Money,12,images/assets/snowy_original.jpg,learning,20,images/assets/success.jpg,images/assets/gameover.jpg,,,,,,,,,,,,,0,2,2,3,1,,,,,,,,,,,,,,,,,,,,,,,,,,,,,,,,
,,,,,,,,,,,,615374d9fd9b41728babd974,001,3,2025-04-15_08h38.08.680,avatar_quest_3AFC_legacy,2022.1.3,MacIntel,60.24096386,615374d9fd9b41728babd974,67fe37cb3bd870bba73819bd,67fe5283e3ad45c2881fd609,,,,,,,,,,,,,,,,,,,,,,No Brainslug No Barriers With Money,0,images/assets/snowy_money.jpg,learning,10,images/assets/success_money.jpg,images/assets/gameover.jpg,,,,,,,,,,,,,0,3,3,9,1,,,,,,,,,,,,,,,,,,,,,,,,,,,,,,,,
,,,,,,,,,,,,615374d9fd9b41728babd974,001,3,2025-04-15_08h38.08.680,avatar_quest_3AFC_legacy,2022.1.3,MacIntel,60.24096386,615374d9fd9b41728babd974,67fe37cb3bd870bba73819bd,67fe5283e3ad45c2881fd609,,,,,,,,,,,,,,,,,,,,,,No Brainslug Difficult 2 No Money,12,images/assets/snowy_original.jpg,learning,20,images/assets/success.jpg,images/assets/gameover.jpg,,,,,,,,,,,,,0,4,4,8,1,,,,,,,,,,,,,,,,,,,,,,,,,,,,,,,,
,,,,,,,,,,,,615374d9fd9b41728babd974,001,3,2025-04-15_08h38.08.680,avatar_quest_3AFC_legacy,2022.1.3,MacIntel,60.24096386,615374d9fd9b41728babd974,67fe37cb3bd870bba73819bd,67fe5283e3ad45c2881fd609,,,,,,,,,,,,,,,,,,,,,,With Brainslug No Barriers No Money,0,images/assets/snowy_original.jpg,learning,10,images/assets/success.jpg,images/assets/gameover.jpg,,,,,,,,,,,,,0,5,5,5,1,,,,,,,,,,,,,,,,,,,,,,,,,,,,,,,,
,,,,,,,,,,,,615374d9fd9b41728babd974,001,3,2025-04-15_08h38.08.680,avatar_quest_3AFC_legacy,2022.1.3,MacIntel,60.24096386,615374d9fd9b41728babd974,67fe37cb3bd870bba73819bd,67fe5283e3ad45c2881fd609,,,,,,,,,,,,,,,,,,,,,,No Brainslug Difficult 1 No Money,6,images/assets/snowy_original.jpg,learning,20,images/assets/success.jpg,images/assets/gameover.jpg,,,,,,,,,,,,,0,6,6,6,1,,,,,,,,,,,,,,,,,,,,,,,,,,,,,,,,
,,,,,,,,,,,,615374d9fd9b41728babd974,001,3,2025-04-15_08h38.08.680,avatar_quest_3AFC_legacy,2022.1.3,MacIntel,60.24096386,615374d9fd9b41728babd974,67fe37cb3bd870bba73819bd,67fe5283e3ad45c2881fd609,,,,,,,,,,,,,,,,,,,,,,No Brainslug No Barriers No Money,0,images/assets/snowy_original.jpg,learning,10,images/assets/success.jpg,images/assets/gameover.jpg,,,,,,,,,,,,,0,7,7,10,1,,,,,,,,,,,,,,,,,,,,,,,,,,,,,,,,
,,,,,,,,,,,,615374d9fd9b41728babd974,001,3,2025-04-15_08h38.08.680,avatar_quest_3AFC_legacy,2022.1.3,MacIntel,60.24096386,615374d9fd9b41728babd974,67fe37cb3bd870bba73819bd,67fe5283e3ad45c2881fd609,,,,,,,,,,,,,,,,,,,,,,With Brainslug No Barriers With Money,0,images/assets/snowy_money.jpg,learning,10,images/assets/success_money.jpg,images/assets/gameover.jpg,,,,,,,,,,,,,0,8,8,4,1,,,,,,,,,,,,,,,,,,,,,,,,,,,,,,,,
,,,,,,,,,,,,615374d9fd9b41728babd974,001,3,2025-04-15_08h38.08.680,avatar_quest_3AFC_legacy,2022.1.3,MacIntel,60.24096386,615374d9fd9b41728babd974,67fe37cb3bd870bba73819bd,67fe5283e3ad45c2881fd609,"[""up"",""up"",""up"",""up"",""up"",""up"",""up"",""up"",""up"",""up"",""up"",""up"",""up"",""left"",""left"",""left"",""left"",""left"",""left"",""up"",""right"",""right"",""right"",""right"",""right"",""right"",""right"",""right"",""right"",""right"",""right"",""right"",""right"",""right"",""right"",""left"",""left"",""left"",""left"",""left"",""left"",""left"",""left"",""left"",""left"",""left""]","[1.2576000000238423,1.583500000000015,1.782000000000039,1.9761000000238482,2.201899999976206,2.4323999999761554,2.650799999952369,3.167799999952365,3.7175000000000296,3.917399999976169,4.1340000000000146,4.375500000000045,4.6227000000477005,5.075299999952335,5.309500000000014,5.500600000023894,5.9080000000000155,6.100500000000011,6.301100000023894,6.7171000000238905,7.175000000000011,7.3836000000238755,7.591100000023857,7.784100000023841,7.973399999976209,8.184000000000026,8.383100000023887,8.565600000023892,8.750700000047686,8.956299999952364,9.150899999976161,9.374399999976163,9.567000000000007,9.774700000047687,9.984000000000037,10.324100000023861,10.517500000000041,10.733899999976188,10.91700000000003,11.116700000047729,11.317000000000007,11.500299999952347,12.217200000047683,12.41689999997618,12.607700000047714,12.800000000000011]",,calibration,With Brainslug Difficult 2 With Money,15,12.9814,12.9834,13,5,0,FALSE,na,na,na,na,,,,,,,,,,,,,,,,,,,,,,,,,,,,,,,,,,0,0,0,0,1,,,,,,,,,,,,,,,,,,,,,,,
,,,,,,,,,,,,615374d9fd9b41728babd974,001,3,2025-04-15_08h38.08.680,avatar_quest_3AFC_legacy,2022.1.3,MacIntel,60.24096386,615374d9fd9b41728babd974,67fe37cb3bd870bba73819bd,67fe5283e3ad45c2881fd609,,,,,,,,,,,,,,,,,,,,,,With Brainslug Difficult 2 With Money,12,images/assets/snowy_money.jpg,learning,20,images/assets/success_money.jpg,images/assets/gameover.jpg,,,,,,,,,,,,,0,9,9,2,1,,,,,,,,,,,,,,,,,,,,,,,,,,,,,,,,
,,,,,,,,,,,,615374d9fd9b41728babd974,001,3,2025-04-15_08h38.08.680,avatar_quest_3AFC_legacy,2022.1.3,MacIntel,60.24096386,615374d9fd9b41728babd974,67fe37cb3bd870bba73819bd,67fe5283e3ad45c2881fd609,,,,,,,,,,,,,,,,,,,,,,No Brainslug Difficult 2 With Money,12,images/assets/snowy_money.jpg,learning,20,images/assets/success_money.jpg,images/assets/gameover.jpg,,,,,,,,,,,,,0,10,10,7,1,,,,,,,,,,,,,,,,,,,,,,,,,,,,,,,,
,,,,,,,,,,,,615374d9fd9b41728babd974,001,3,2025-04-15_08h38.08.680,avatar_quest_3AFC_legacy,2022.1.3,MacIntel,60.24096386,615374d9fd9b41728babd974,67fe37cb3bd870bba73819bd,67fe5283e3ad45c2881fd609,,,,,,,,,,,,,,,,,,,,,,,,,,,,,,,,,,,,,,,,,,,,,,,,,,,,,,,11,0,11,0,1,,,,,,,,,,,,,,,,,,
,,,,,,,,,,,,615374d9fd9b41728babd974,001,3,2025-04-15_08h38.08.680,avatar_quest_3AFC_legacy,2022.1.3,MacIntel,60.24096386,615374d9fd9b41728babd974,67fe37cb3bd870bba73819bd,67fe5283e3ad45c2881fd609,,,,,,,,,,,,,,,,,,,,,,,,,,,,,,,,,,,,,,,,,,,,,,,,,,,,,,,,,,,,0,0,0,0,1,1,With Brainslug Difficult 1 No Money,images/assets/With Brainslug Difficult 1 No Money.png,With Brainslug Difficult 2 No Money,images/assets/With Brainslug Difficult 2 No Money.png,With Brainslug Difficult 2 With Money,images/assets/With Brainslug Difficult 2 With Money.png,Achievement vs. money,,,,,
,,,,,,,,,,,,615374d9fd9b41728babd974,001,3,2025-04-15_08h38.08.680,avatar_quest_3AFC_legacy,2022.1.3,MacIntel,60.24096386,615374d9fd9b41728babd974,67fe37cb3bd870bba73819bd,67fe5283e3ad45c2881fd609,,,,,,,,,,,,,,,,,,,,,,With Brainslug No Barriers No Money,0,images/assets/snowy_original.jpg,learning,10,images/assets/success.jpg,images/assets/gameover.jpg,,,,,,,,No Brainslug No Barriers With Money,No Brainslug No Barriers No Money,right,1.2568,"[""No Brainslug No Barriers No Money"",""No Brainslug Difficult 1 No Money""]",0,0,0,5,1,,,,,,,,,,,,,,,,,,,,,,,,,,,,,,,,
,,,,,,,,,,,,615374d9fd9b41728babd974,001,3,2025-04-15_08h38.08.680,avatar_quest_3AFC_legacy,2022.1.3,MacIntel,60.24096386,615374d9fd9b41728babd974,67fe37cb3bd870bba73819bd,67fe5283e3ad45c2881fd609,,,,,,,,,,,,,,,,,,,,,,No Brainslug Difficult 2 No Money,12,images/assets/snowy_original.jpg,learning,20,images/assets/success.jpg,images/assets/gameover.jpg,,,,,,,,,,,,,0,1,1,8,1,,,,,,,,,,,,,,,,,,,,,,,,,,,,,,,,
,,,,,,,,,,,,615374d9fd9b41728babd974,001,3,2025-04-15_08h38.08.680,avatar_quest_3AFC_legacy,2022.1.3,MacIntel,60.24096386,615374d9fd9b41728babd974,67fe37cb3bd870bba73819bd,67fe5283e3ad45c2881fd609,,,,,,,,,,,,,,,,,,,,,,With Brainslug Difficult 2 No Money,12,images/assets/snowy_original.jpg,learning,20,images/assets/success.jpg,images/assets/gameover.jpg,,,,,,,,,,,,,0,2,2,3,1,,,,,,,,,,,,,,,,,,,,,,,,,,,,,,,,
,,,,,,,,,,,,615374d9fd9b41728babd974,001,3,2025-04-15_08h38.08.680,avatar_quest_3AFC_legacy,2022.1.3,MacIntel,60.24096386,615374d9fd9b41728babd974,67fe37cb3bd870bba73819bd,67fe5283e3ad45c2881fd609,,,,,,,,,,,,,,,,,,,,,,With Brainslug Difficult 1 No Money,6,images/assets/snowy_original.jpg,learning,20,images/assets/success.jpg,images/assets/gameover.jpg,,,,,,,,,,,,,0,3,3,1,1,,,,,,,,,,,,,,,,,,,,,,,,,,,,,,,,
,,,,,,,,,,,,615374d9fd9b41728babd974,001,3,2025-04-15_08h38.08.680,avatar_quest_3AFC_legacy,2022.1.3,MacIntel,60.24096386,615374d9fd9b41728babd974,67fe37cb3bd870bba73819bd,67fe5283e3ad45c2881fd609,,,,,,,,,,,,,,,,,,,,,,No Brainslug Difficult 2 With Money,12,images/assets/snowy_money.jpg,learning,20,images/assets/success_money.jpg,images/assets/gameover.jpg,,,,,,,,,,,,,0,4,4,7,1,,,,,,,,,,,,,,,,,,,,,,,,,,,,,,,,
,,,,,,,,,,,,615374d9fd9b41728babd974,001,3,2025-04-15_08h38.08.680,avatar_quest_3AFC_legacy,2022.1.3,MacIntel,60.24096386,615374d9fd9b41728babd974,67fe37cb3bd870bba73819bd,67fe5283e3ad45c2881fd609,"[""up"",""up"",""up"",""up"",""up"",""up"",""up"",""up"",""up"",""up"",""up"",""up"",""up"",""left"",""left"",""left"",""right"",""right"",""right"",""right"",""up"",""up""]","[1.425800000071547,1.642500000000041,1.8433999999761568,2.030200000047728,2.2266000000238364,2.4088999999761995,2.59280000007152,2.77800000000002,2.9610000000000127,3.159500000000037,3.3416000000238455,3.5256000000238714,3.7091000000238523,4.007399999976201,4.192600000023845,4.391999999999996,4.827399999976194,5.02989999997618,5.225500000000011,5.409800000071527,5.712800000071525,5.913899999976195]",,calibration,No Brainslug No Barriers With Money,16,10.38512,6.4831,7,0,70,TRUE,na,na,na,na,,,,,,,,,,,,,,,,,,,,,,,,,,,,,,,,,,0,0,0,0,1,,,,,,,,,,,,,,,,,,,,,,,
,,,,,,,,,,,,615374d9fd9b41728babd974,001,3,2025-04-15_08h38.08.680,avatar_quest_3AFC_legacy,2022.1.3,MacIntel,60.24096386,615374d9fd9b41728babd974,67fe37cb3bd870bba73819bd,67fe5283e3ad45c2881fd609,,,,,,,,,,,,,,,,,,,,,,No Brainslug No Barriers With Money,0,images/assets/snowy_money.jpg,learning,10,images/assets/success_money.jpg,images/assets/gameover.jpg,,,,,,,,,,,,,0,5,5,9,1,,,,,,,,,,,,,,,,,,,,,,,,,,,,,,,,
,,,,,,,,,,,,615374d9fd9b41728babd974,001,3,2025-04-15_08h38.08.680,avatar_quest_3AFC_legacy,2022.1.3,MacIntel,60.24096386,615374d9fd9b41728babd974,67fe37cb3bd870bba73819bd,67fe5283e3ad45c2881fd609,,,,,,,,,,,,,,,,,,,,,,No Brainslug Difficult 1 No Money,6,images/assets/snowy_original.jpg,learning,20,images/assets/success.jpg,images/assets/gameover.jpg,,,,,,,,,,,,,0,6,6,6,1,,,,,,,,,,,,,,,,,,,,,,,,,,,,,,,,
,,,,,,,,,,,,615374d9fd9b41728babd974,001,3,2025-04-15_08h38.08.680,avatar_quest_3AFC_legacy,2022.1.3,MacIntel,60.24096386,615374d9fd9b41728babd974,67fe37cb3bd870bba73819bd,67fe5283e3ad45c2881fd609,,,,,,,,,,,,,,,,,,,,,,With Brainslug No Barriers With Money,0,images/assets/snowy_money.jpg,learning,10,images/assets/success_money.jpg,images/assets/gameover.jpg,,,,,,,,,,,,,0,7,7,4,1,,,,,,,,,,,,,,,,,,,,,,,,,,,,,,,,
,,,,,,,,,,,,615374d9fd9b41728babd974,001,3,2025-04-15_08h38.08.680,avatar_quest_3AFC_legacy,2022.1.3,MacIntel,60.24096386,615374d9fd9b41728babd974,67fe37cb3bd870bba73819bd,67fe5283e3ad45c2881fd609,,,,,,,,,,,,,,,,,,,,,,With Brainslug Difficult 1 With Money,6,images/assets/snowy_money.jpg,learning,20,images/assets/success_money.jpg,images/assets/gameover.jpg,,,,,,,,,,,,,0,8,8,0,1,,,,,,,,,,,,,,,,,,,,,,,,,,,,,,,,
,,,,,,,,,,,,615374d9fd9b41728babd974,001,3,2025-04-15_08h38.08.680,avatar_quest_3AFC_legacy,2022.1.3,MacIntel,60.24096386,615374d9fd9b41728babd974,67fe37cb3bd870bba73819bd,67fe5283e3ad45c2881fd609,,,,,,,,,,,,,,,,,,,,,,With Brainslug Difficult 2 With Money,12,images/assets/snowy_money.jpg,learning,20,images/assets/success_money.jpg,images/assets/gameover.jpg,,,,,,,,,,,,,0,9,9,2,1,,,,,,,,,,,,,,,,,,,,,,,,,,,,,,,,
,,,,,,,,,,,,615374d9fd9b41728babd974,001,3,2025-04-15_08h38.08.680,avatar_quest_3AFC_legacy,2022.1.3,MacIntel,60.24096386,615374d9fd9b41728babd974,67fe37cb3bd870bba73819bd,67fe5283e3ad45c2881fd609,,,,,,,,,,,,,,,,,,,,,,No Brainslug No Barriers No Money,0,images/assets/snowy_original.jpg,learning,10,images/assets/success.jpg,images/assets/gameover.jpg,,,,,,,,,,,,,0,10,10,10,1,,,,,,,,,,,,,,,,,,,,,,,,,,,,,,,,
,,,,,,,,,,,,615374d9fd9b41728babd974,001,3,2025-04-15_08h38.08.680,avatar_quest_3AFC_legacy,2022.1.3,MacIntel,60.24096386,615374d9fd9b41728babd974,67fe37cb3bd870bba73819bd,67fe5283e3ad45c2881fd609,,,,,,,,,,,,,,,,,,,,,,,,,,,,,,,,,,,,,,,,,,,,,,,,,,,,,,,0,0,0,0,1,,,,,,,,,,,,,,,,,,
,,,,,,,,,,,,615374d9fd9b41728babd974,001,3,2025-04-15_08h38.08.680,avatar_quest_3AFC_legacy,2022.1.3,MacIntel,60.24096386,615374d9fd9b41728babd974,67fe37cb3bd870bba73819bd,67fe5283e3ad45c2881fd609,"[""up"",""up"",""up"",""up"",""up"",""up"",""up"",""up"",""left"",""up"",""up"",""up"",""up"",""up"",""up"",""up"",""up"",""up"",""up"",""up"",""up"",""up""]","[0.5353000000715156,0.7302000000477165,0.9143000000715347,1.1258000000715356,1.3141000000238705,1.5146000000238473,1.714700000047685,1.901800000071546,2.6468000000715506,3.0640000000000214,3.2476000000238514,3.448000000000036,3.6138999999761836,3.7978999999761527,3.9808999999761454,4.164500000000032,4.36460000002387,4.533700000047702,4.748399999976186,4.947700000047689,5.13510000002384,5.330600000023878]",,calibration,No Brainslug No Barriers With Money,17,10.38512,5.4335,1,0,0,TRUE,na,na,na,na,,,,,,,,,,,,,,,,,,,,No Brainslug No Barriers With Money,No Brainslug No Barriers No Money,right,1.6229,"[""No Brainslug No Barriers No Money"",""No Brainslug Difficult 1 No Money""]",,,,,,,,,,0,0,0,0,1,,,,,,,,,,,,,,,,,,,,,,,
,,,,,,,,,,,,615374d9fd9b41728babd974,001,3,2025-04-15_08h38.08.680,avatar_quest_3AFC_legacy,2022.1.3,MacIntel,60.24096386,615374d9fd9b41728babd974,67fe37cb3bd870bba73819bd,67fe5283e3ad45c2881fd609,,,,,,,,,,,,,,,,,,,,,,No Brainslug No Barriers With Money,0,images/assets/snowy_money.jpg,learning,10,images/assets/success_money.jpg,images/assets/gameover.jpg,,,,,,,,,,,,,0,0,0,9,1,,,,,,,,,,,,,,,,,,,,,,,,,,,,,,,,
,,,,,,,,,,,,615374d9fd9b41728babd974,001,3,2025-04-15_08h38.08.680,avatar_quest_3AFC_legacy,2022.1.3,MacIntel,60.24096386,615374d9fd9b41728babd974,67fe37cb3bd870bba73819bd,67fe5283e3ad45c2881fd609,,,,,,,,,,,,,,,,,,,,,,No Brainslug Difficult 2 With Money,12,images/assets/snowy_money.jpg,learning,20,images/assets/success_money.jpg,images/assets/gameover.jpg,,,,,,,,,,,,,0,1,1,7,1,,,,,,,,,,,,,,,,,,,,,,,,,,,,,,,,
,,,,,,,,,,,,615374d9fd9b41728babd974,001,3,2025-04-15_08h38.08.680,avatar_quest_3AFC_legacy,2022.1.3,MacIntel,60.24096386,615374d9fd9b41728babd974,67fe37cb3bd870bba73819bd,67fe5283e3ad45c2881fd609,,,,,,,,,,,,,,,,,,,,,,With Brainslug Difficult 1 No Money,6,images/assets/snowy_original.jpg,learning,20,images/assets/success.jpg,images/assets/gameover.jpg,,,,,,,,,,,,,0,2,2,1,1,,,,,,,,,,,,,,,,,,,,,,,,,,,,,,,,
,,,,,,,,,,,,615374d9fd9b41728babd974,001,3,2025-04-15_08h38.08.680,avatar_quest_3AFC_legacy,2022.1.3,MacIntel,60.24096386,615374d9fd9b41728babd974,67fe37cb3bd870bba73819bd,67fe5283e3ad45c2881fd609,,,,,,,,,,,,,,,,,,,,,,With Brainslug Difficult 1 With Money,6,images/assets/snowy_money.jpg,learning,20,images/assets/success_money.jpg,images/assets/gameover.jpg,,,,,,,,,,,,,0,3,3,0,1,,,,,,,,,,,,,,,,,,,,,,,,,,,,,,,,
,,,,,,,,,,,,615374d9fd9b41728babd974,001,3,2025-04-15_08h38.08.680,avatar_quest_3AFC_legacy,2022.1.3,MacIntel,60.24096386,615374d9fd9b41728babd974,67fe37cb3bd870bba73819bd,67fe5283e3ad45c2881fd609,,,,,,,,,,,,,,,,,,,,,,With Brainslug No Barriers No Money,0,images/assets/snowy_original.jpg,learning,10,images/assets/success.jpg,images/assets/gameover.jpg,,,,,,,,,,,,,0,4,4,5,1,,,,,,,,,,,,,,,,,,,,,,,,,,,,,,,,
,,,,,,,,,,,,615374d9fd9b41728babd974,001,3,2025-04-15_08h38.08.680,avatar_quest_3AFC_legacy,2022.1.3,MacIntel,60.24096386,615374d9fd9b41728babd974,67fe37cb3bd870bba73819bd,67fe5283e3ad45c2881fd609,,,,,,,,,,,,,,,,,,,,,,With Brainslug Difficult 2 With Money,12,images/assets/snowy_money.jpg,learning,20,images/assets/success_money.jpg,images/assets/gameover.jpg,,,,,,,,,,,,,0,5,5,2,1,,,,,,,,,,,,,,,,,,,,,,,,,,,,,,,,
,,,,,,,,,,,,615374d9fd9b41728babd974,001,3,2025-04-15_08h38.08.680,avatar_quest_3AFC_legacy,2022.1.3,MacIntel,60.24096386,615374d9fd9b41728babd974,67fe37cb3bd870bba73819bd,67fe5283e3ad45c2881fd609,,,,,,,,,,,,,,,,,,,,,,No Brainslug Difficult 2 No Money,12,images/assets/snowy_original.jpg,learning,20,images/assets/success.jpg,images/assets/gameover.jpg,,,,,,,,,,,,,0,6,6,8,1,,,,,,,,,,,,,,,,,,,,,,,,,,,,,,,,
,,,,,,,,,,,,615374d9fd9b41728babd974,001,3,2025-04-15_08h38.08.680,avatar_quest_3AFC_legacy,2022.1.3,MacIntel,60.24096386,615374d9fd9b41728babd974,67fe37cb3bd870bba73819bd,67fe5283e3ad45c2881fd609,,,,,,,,,,,,,,,,,,,,,,No Brainslug No Barriers No Money,0,images/assets/snowy_original.jpg,learning,10,images/assets/success.jpg,images/assets/gameover.jpg,,,,,,,,,,,,,0,7,7,10,1,,,,,,,,,,,,,,,,,,,,,,,,,,,,,,,,
,,,,,,,,,,,,615374d9fd9b41728babd974,001,3,2025-04-15_08h38.08.680,avatar_quest_3AFC_legacy,2022.1.3,MacIntel,60.24096386,615374d9fd9b41728babd974,67fe37cb3bd870bba73819bd,67fe5283e3ad45c2881fd609,,,,,,,,,,,,,,,,,,,,,,With Brainslug No Barriers With Money,0,images/assets/snowy_money.jpg,learning,10,images/assets/success_money.jpg,images/assets/gameover.jpg,,,,,,,,,,,,,0,8,8,4,1,,,,,,,,,,,,,,,,,,,,,,,,,,,,,,,,
,,,,,,,,,,,,615374d9fd9b41728babd974,001,3,2025-04-15_08h38.08.680,avatar_quest_3AFC_legacy,2022.1.3,MacIntel,60.24096386,615374d9fd9b41728babd974,67fe37cb3bd870bba73819bd,67fe5283e3ad45c2881fd609,,,,,,,,,,,,,,,,,,,,,,No Brainslug Difficult 1 No Money,6,images/assets/snowy_original.jpg,learning,20,images/assets/success.jpg,images/assets/gameover.jpg,,,,,,,,,,,,,0,9,9,6,1,,,,,,,,,,,,,,,,,,,,,,,,,,,,,,,,
,,,,,,,,,,,,615374d9fd9b41728babd974,001,3,2025-04-15_08h38.08.680,avatar_quest_3AFC_legacy,2022.1.3,MacIntel,60.24096386,615374d9fd9b41728babd974,67fe37cb3bd870bba73819bd,67fe5283e3ad45c2881fd609,,,,,,,,,,,,,,,,,,,,,,With Brainslug Difficult 2 No Money,12,images/assets/snowy_original.jpg,learning,20,images/assets/success.jpg,images/assets/gameover.jpg,,,,,,,,,,,,,0,10,10,3,1,,,,,,,,,,,,,,,,,,,,,,,,,,,,,,,,
,,,,,,,,,,,,615374d9fd9b41728babd974,001,3,2025-04-15_08h38.08.680,avatar_quest_3AFC_legacy,2022.1.3,MacIntel,60.24096386,615374d9fd9b41728babd974,67fe37cb3bd870bba73819bd,67fe5283e3ad45c2881fd609,,,,,,,,,,,,,,,,,,,,,,,,,,,,,,,,,,,,,,,,,,,,,,,,,,,,,,,1,0,1,0,1,,,,,,,,,,,,,,,,,,
,,,,,,,,,,,,615374d9fd9b41728babd974,001,3,2025-04-15_08h38.08.680,avatar_quest_3AFC_legacy,2022.1.3,MacIntel,60.24096386,615374d9fd9b41728babd974,67fe37cb3bd870bba73819bd,67fe5283e3ad45c2881fd609,,,,,,,,,,,,,,,,,,,,,,With Brainslug Difficult 1 With Money,6,images/assets/snowy_money.jpg,learning,20,images/assets/success_money.jpg,images/assets/gameover.jpg,,,,,,,,No Brainslug No Barriers With Money,No Brainslug No Barriers No Money,right,1.685,"[""No Brainslug No Barriers No Money"",""No Brainslug Difficult 1 No Money""]",0,0,0,0,1,,,,,,,,,,,,,,,,,,,,,,,,,,,,,,,,
,,,,,,,,,,,,615374d9fd9b41728babd974,001,3,2025-04-15_08h38.08.680,avatar_quest_3AFC_legacy,2022.1.3,MacIntel,60.24096386,615374d9fd9b41728babd974,67fe37cb3bd870bba73819bd,67fe5283e3ad45c2881fd609,,,,,,,,,,,,,,,,,,,,,,No Brainslug No Barriers No Money,0,images/assets/snowy_original.jpg,learning,10,images/assets/success.jpg,images/assets/gameover.jpg,,,,,,,,,,,,,0,1,1,10,1,,,,,,,,,,,,,,,,,,,,,,,,,,,,,,,,
,,,,,,,,,,,,615374d9fd9b41728babd974,001,3,2025-04-15_08h38.08.680,avatar_quest_3AFC_legacy,2022.1.3,MacIntel,60.24096386,615374d9fd9b41728babd974,67fe37cb3bd870bba73819bd,67fe5283e3ad45c2881fd609,"[""down"",""up"",""up"",""up"",""up"",""up"",""up"",""left"",""left"",""up"",""up"",""up"",""right"",""right"",""right"",""up"",""up"",""up"",""up"",""up"",""left"",""left"",""up"",""up"",""up"",""up"",""up"",""up""]","[0.7280000000000086,0.7441000000238773,0.9458000000715288,1.1278000000715451,1.3286000000238687,1.5284000000953597,1.6973000000715501,2.2232000000477115,2.4129000000953624,2.880700000047682,3.0629000000953965,3.2621000000238496,3.512400000095397,3.7061000000238664,3.8894000000953497,4.196000000000026,4.83080000007152,4.996600000023875,5.179500000000019,5.348400000095353,5.882000000000005,6.0624000000953515,6.461100000023862,6.628300000071533,6.811800000071514,7.246000000000038,7.446300000071517,7.656300000071553]",,calibration,No Brainslug No Barriers With Money,18,10.38512,7.717,7,0,142,TRUE,na,na,na,na,,,,,,,,,,,,,,,,,,,,,,,,,,,,,,,,,,0,0,0,0,1,,,,,,,,,,,,,,,,,,,,,,,
,,,,,,,,,,,,615374d9fd9b41728babd974,001,3,2025-04-15_08h38.08.680,avatar_quest_3AFC_legacy,2022.1.3,MacIntel,60.24096386,615374d9fd9b41728babd974,67fe37cb3bd870bba73819bd,67fe5283e3ad45c2881fd609,,,,,,,,,,,,,,,,,,,,,,No Brainslug No Barriers With Money,0,images/assets/snowy_money.jpg,learning,10,images/assets/success_money.jpg,images/assets/gameover.jpg,,,,,,,,,,,,,0,2,2,9,1,,,,,,,,,,,,,,,,,,,,,,,,,,,,,,,,
,,,,,,,,,,,,615374d9fd9b41728babd974,001,3,2025-04-15_08h38.08.680,avatar_quest_3AFC_legacy,2022.1.3,MacIntel,60.24096386,615374d9fd9b41728babd974,67fe37cb3bd870bba73819bd,67fe5283e3ad45c2881fd609,,,,,,,,,,,,,,,,,,,,,,With Brainslug No Barriers With Money,0,images/assets/snowy_money.jpg,learning,10,images/assets/success_money.jpg,images/assets/gameover.jpg,,,,,,,,,,,,,0,3,3,4,1,,,,,,,,,,,,,,,,,,,,,,,,,,,,,,,,
,,,,,,,,,,,,615374d9fd9b41728babd974,001,3,2025-04-15_08h38.08.680,avatar_quest_3AFC_legacy,2022.1.3,MacIntel,60.24096386,615374d9fd9b41728babd974,67fe37cb3bd870bba73819bd,67fe5283e3ad45c2881fd609,,,,,,,,,,,,,,,,,,,,,,With Brainslug Difficult 2 No Money,12,images/assets/snowy_original.jpg,learning,20,images/assets/success.jpg,images/assets/gameover.jpg,,,,,,,,,,,,,0,4,4,3,1,,,,,,,,,,,,,,,,,,,,,,,,,,,,,,,,
