instruction_mouse.x,instruction_mouse.y,instruction_mouse.leftButton,instruction_mouse.midButton,instruction_mouse.rightButton,instruction_mouse.clicked_name,introduce_general.thisRepN,introduce_general.thisTrialN,introduce_general.thisN,introduce_general.thisIndex,introduce_general.ran,thisInstruction,participant,session,game version,date,expName,psychopyVersion,OS,frameRate,PROLIFIC PID,STUDY ID,SESSION ID,move_resp.keys,move_resp.rt,end_resp.keys,phase,condition,trial_num,time_limit,completion_time,left_right_steps,number_of_obsticle_blocks,number_of_tree_blocks,quest_complete,responsivity_summary,av_inter_brainslug_intervals,proportion_jitter,jitter_direction_proportion_right,calibration_phase.thisRepN,calibration_phase.thisTrialN,calibration_phase.thisN,calibration_phase.thisIndex,calibration_phase.ran,BlockLabel,nObsticles,backgroundImage,phaseLabel,n_side_steps,success_im,gameover_im,success_condition,introduce_learning_or_choice.thisRepN,introduce_learning_or_choice.thisTrialN,introduce_learning_or_choice.thisN,introduce_learning_or_choice.thisIndex,introduce_learning_or_choice.ran,choice_resp.keys,chosen_quest,unchosen_quest,choice_resp_3afc.keys,choice_resp_3afc.rt,unchosen_quests,forced_choice_trial.thisRepN,forced_choice_trial.thisTrialN,forced_choice_trial.thisN,forced_choice_trial.thisIndex,forced_choice_trial.ran,enjoyment_slider.response,enjoyment_slider.rt,effort_slider.response,effort_slider.rt,show_loop2.thisRepN,show_loop2.thisTrialN,show_loop2.thisN,show_loop2.thisIndex,show_loop2.ran,trials_per_block.thisRepN,trials_per_block.thisTrialN,trials_per_block.thisN,trials_per_block.thisIndex,trials_per_block.ran,decision_phase_AFC.thisRepN,decision_phase_AFC.thisTrialN,decision_phase_AFC.thisN,decision_phase_AFC.thisIndex,decision_phase_AFC.ran,blockN,BlockLabel1,questIm1,BlockLabel2,questIm2,BlockLabel3,questIm3,quest_condition,showForcedChoice.thisRepN,showForcedChoice.thisTrialN,showForcedChoice.thisN,showForcedChoice.thisIndex,showForcedChoice.ran
0.359259288,-0.388888889,1,0,0,instruction_button,0,0,0,0,1,images/instructions_part1_LSM_taskversion1/Slide1.JPG,63d570d979c31656fece7c7d,001,3,2025-03-27_15h43.04.431,avatar_quest_3AFC_legacy,2022.1.3,Win32,59.17159763,63d570d979c31656fece7c7d,67e5c8c9bc10e40b86efc6fc,67e5d2dbd0530efe1b558c70,,,,,,,,,,,,,,,,,,,,,,,,,,,,,,,,,,,,,,,,,,,,,,,,,,,,,,,,,,,,,,,,,,,,,,,,,,,,,
0.40925969,-0.397685263,1,0,0,instruction_button,0,1,1,1,1,images/instructions_part1_LSM_taskversion1/Slide2.JPG,63d570d979c31656fece7c7d,001,3,2025-03-27_15h43.04.431,avatar_quest_3AFC_legacy,2022.1.3,Win32,59.17159763,63d570d979c31656fece7c7d,67e5c8c9bc10e40b86efc6fc,67e5d2dbd0530efe1b558c70,,,,,,,,,,,,,,,,,,,,,,,,,,,,,,,,,,,,,,,,,,,,,,,,,,,,,,,,,,,,,,,,,,,,,,,,,,,,,
0.407407443,-0.395370377,1,0,0,instruction_button,0,2,2,2,1,images/instructions_part1_LSM_taskversion1/Slide3.JPG,63d570d979c31656fece7c7d,001,3,2025-03-27_15h43.04.431,avatar_quest_3AFC_legacy,2022.1.3,Win32,59.17159763,63d570d979c31656fece7c7d,67e5c8c9bc10e40b86efc6fc,67e5d2dbd0530efe1b558c70,,,,,,,,,,,,,,,,,,,,,,,,,,,,,,,,,,,,,,,,,,,,,,,,,,,,,,,,,,,,,,,,,,,,,,,,,,,,,
0.407407443,-0.395370377,1,0,0,instruction_button,0,3,3,3,1,images/instructions_part1_LSM_taskversion1/Slide3.5.JPG,63d570d979c31656fece7c7d,001,3,2025-03-27_15h43.04.431,avatar_quest_3AFC_legacy,2022.1.3,Win32,59.17159763,63d570d979c31656fece7c7d,67e5c8c9bc10e40b86efc6fc,67e5d2dbd0530efe1b558c70,,,,,,,,,,,,,,,,,,,,,,,,,,,,,,,,,,,,,,,,,,,,,,,,,,,,,,,,,,,,,,,,,,,,,,,,,,,,,
0.407407443,-0.395370377,1,0,0,instruction_button,0,4,4,4,1,images/instructions_part1_LSM_taskversion1/Slide4.JPG,63d570d979c31656fece7c7d,001,3,2025-03-27_15h43.04.431,avatar_quest_3AFC_legacy,2022.1.3,Win32,59.17159763,63d570d979c31656fece7c7d,67e5c8c9bc10e40b86efc6fc,67e5d2dbd0530efe1b558c70,,,,,,,,,,,,,,,,,,,,,,,,,,,,,,,,,,,,,,,,,,,,,,,,,,,,,,,,,,,,,,,,,,,,,,,,,,,,,
0.407407443,-0.395370377,1,0,0,instruction_button,0,5,5,5,1,images/instructions_part1_LSM_taskversion1/Slide6.5.JPG,63d570d979c31656fece7c7d,001,3,2025-03-27_15h43.04.431,avatar_quest_3AFC_legacy,2022.1.3,Win32,59.17159763,63d570d979c31656fece7c7d,67e5c8c9bc10e40b86efc6fc,67e5d2dbd0530efe1b558c70,,,,,,,,,,,,,,,,,,,,,,,,,,,,,,,,,,,,,,,,,,,,,,,,,,,,,,,,,,,,,,,,,,,,,,,,,,,,,
,,,,,,,,,,,,63d570d979c31656fece7c7d,001,3,2025-03-27_15h43.04.431,avatar_quest_3AFC_legacy,2022.1.3,Win32,59.17159763,63d570d979c31656fece7c7d,67e5c8c9bc10e40b86efc6fc,67e5d2dbd0530efe1b558c70,"[""left"",""left"",""left""]","[2.6648000000007244,3.281899999998501,3.798999999999978]",,calibration,No Brainslug No Barriers No Money,1,100,5.3136,3,0,0,TRUE,na,na,na,na,0,0,0,0,1,No Brainslug No Barriers No Money,0,images/assets/snowy_original.jpg,calibration,10,images/assets/success.jpg,images/assets/gameover.jpg,never,,,,,,,,,,,,,,,,,,,,,,,,,,,,,,,,,,,,,,,,,,,,,,,,
,,,,,,,,,,,,63d570d979c31656fece7c7d,001,3,2025-03-27_15h43.04.431,avatar_quest_3AFC_legacy,2022.1.3,Win32,59.17159763,63d570d979c31656fece7c7d,67e5c8c9bc10e40b86efc6fc,67e5d2dbd0530efe1b558c70,"[""left"",""left"",""left"",""left"",""left"",""right""]","[2.388300000000754,2.672399999998504,3.006300000000749,3.3063999999985185,3.607199999999267,4.0745000000000005]",,calibration,No Brainslug No Barriers No Money,2,100,5.3065,4,0,0,TRUE,na,na,na,na,0,1,1,2,1,No Brainslug No Barriers No Money,0,images/assets/snowy_original.jpg,calibration,10,images/assets/success.jpg,images/assets/gameover.jpg,never,,,,,,,,,,,,,,,,,,,,,,,,,,,,,,,,,,,,,,,,,,,,,,,,
,,,,,,,,,,,,63d570d979c31656fece7c7d,001,3,2025-03-27_15h43.04.431,avatar_quest_3AFC_legacy,2022.1.3,Win32,59.17159763,63d570d979c31656fece7c7d,67e5c8c9bc10e40b86efc6fc,67e5d2dbd0530efe1b558c70,"[""left""]",[2.2541999999992584],,calibration,No Brainslug No Barriers No Money,3,100,5.357,1,0,0,TRUE,na,na,na,na,0,2,2,1,1,No Brainslug No Barriers No Money,0,images/assets/snowy_original.jpg,calibration,10,images/assets/success.jpg,images/assets/gameover.jpg,never,,,,,,,,,,,,,,,,,,,,,,,,,,,,,,,,,,,,,,,,,,,,,,,,
0.402778096,-0.40138891,1,0,0,instruction_button,,,,,,images/instructions_part2_LSM_taskversion3.jpg,63d570d979c31656fece7c7d,001,3,2025-03-27_15h43.04.431,avatar_quest_3AFC_legacy,2022.1.3,Win32,59.17159763,63d570d979c31656fece7c7d,67e5c8c9bc10e40b86efc6fc,67e5d2dbd0530efe1b558c70,,,,,,,,,,,,,,,,,,,,,,,,,,,,,,0,0,0,0,1,,,,,,,,,,,,,,,,,,,,,,,,,,,,,,,,,,,,,,,,,,,
,,,,,,,,,,,,63d570d979c31656fece7c7d,001,3,2025-03-27_15h43.04.431,avatar_quest_3AFC_legacy,2022.1.3,Win32,59.17159763,63d570d979c31656fece7c7d,67e5c8c9bc10e40b86efc6fc,67e5d2dbd0530efe1b558c70,,,,,,,,,,,,,,,,,,,,,,No Brainslug Difficult 1 No Money,6,images/assets/snowy_original.jpg,learning,20,images/assets/success.jpg,images/assets/gameover.jpg,,,,,,,,With Brainslug Difficult 2 With Money,With Brainslug Difficult 1 No Money,right,5.6391,"[""With Brainslug Difficult 1 No Money"",""With Brainslug Difficult 2 No Money""]",0,0,0,6,1,,,,,,,,,,,,,,,,,,,,,,,,,,,,,,,,
,,,,,,,,,,,,63d570d979c31656fece7c7d,001,3,2025-03-27_15h43.04.431,avatar_quest_3AFC_legacy,2022.1.3,Win32,59.17159763,63d570d979c31656fece7c7d,67e5c8c9bc10e40b86efc6fc,67e5d2dbd0530efe1b558c70,,,,,,,,,,,,,,,,,,,,,,With Brainslug No Barriers No Money,0,images/assets/snowy_original.jpg,learning,10,images/assets/success.jpg,images/assets/gameover.jpg,,,,,,,,,,,,,0,1,1,5,1,,,,,,,,,,,,,,,,,,,,,,,,,,,,,,,,
,,,,,,,,,,,,63d570d979c31656fece7c7d,001,3,2025-03-27_15h43.04.431,avatar_quest_3AFC_legacy,2022.1.3,Win32,59.17159763,63d570d979c31656fece7c7d,67e5c8c9bc10e40b86efc6fc,67e5d2dbd0530efe1b558c70,,,,,,,,,,,,,,,,,,,,,,No Brainslug Difficult 2 No Money,12,images/assets/snowy_original.jpg,learning,20,images/assets/success.jpg,images/assets/gameover.jpg,,,,,,,,,,,,,0,2,2,8,1,,,,,,,,,,,,,,,,,,,,,,,,,,,,,,,,
,,,,,,,,,,,,63d570d979c31656fece7c7d,001,3,2025-03-27_15h43.04.431,avatar_quest_3AFC_legacy,2022.1.3,Win32,59.17159763,63d570d979c31656fece7c7d,67e5c8c9bc10e40b86efc6fc,67e5d2dbd0530efe1b558c70,,,,,,,,,,,,,,,,,,,,,,No Brainslug Difficult 2 With Money,12,images/assets/snowy_money.jpg,learning,20,images/assets/success_money.jpg,images/assets/gameover.jpg,,,,,,,,,,,,,0,3,3,7,1,,,,,,,,,,,,,,,,,,,,,,,,,,,,,,,,
,,,,,,,,,,,,63d570d979c31656fece7c7d,001,3,2025-03-27_15h43.04.431,avatar_quest_3AFC_legacy,2022.1.3,Win32,59.17159763,63d570d979c31656fece7c7d,67e5c8c9bc10e40b86efc6fc,67e5d2dbd0530efe1b558c70,,,,,,,,,,,,,,,,,,,,,,No Brainslug No Barriers With Money,0,images/assets/snowy_money.jpg,learning,10,images/assets/success_money.jpg,images/assets/gameover.jpg,,,,,,,,,,,,,0,4,4,9,1,,,,,,,,,,,,,,,,,,,,,,,,,,,,,,,,
,,,,,,,,,,,,63d570d979c31656fece7c7d,001,3,2025-03-27_15h43.04.431,avatar_quest_3AFC_legacy,2022.1.3,Win32,59.17159763,63d570d979c31656fece7c7d,67e5c8c9bc10e40b86efc6fc,67e5d2dbd0530efe1b558c70,,,,,,,,,,,,,,,,,,,,,,With Brainslug No Barriers With Money,0,images/assets/snowy_money.jpg,learning,10,images/assets/success_money.jpg,images/assets/gameover.jpg,,,,,,,,,,,,,0,5,5,4,1,,,,,,,,,,,,,,,,,,,,,,,,,,,,,,,,
,,,,,,,,,,,,63d570d979c31656fece7c7d,001,3,2025-03-27_15h43.04.431,avatar_quest_3AFC_legacy,2022.1.3,Win32,59.17159763,63d570d979c31656fece7c7d,67e5c8c9bc10e40b86efc6fc,67e5d2dbd0530efe1b558c70,,,,,,,,,,,,,,,,,,,,,,No Brainslug No Barriers No Money,0,images/assets/snowy_original.jpg,learning,10,images/assets/success.jpg,images/assets/gameover.jpg,,,,,,,,,,,,,0,6,6,10,1,,,,,,,,,,,,,,,,,,,,,,,,,,,,,,,,
,,,,,,,,,,,,63d570d979c31656fece7c7d,001,3,2025-03-27_15h43.04.431,avatar_quest_3AFC_legacy,2022.1.3,Win32,59.17159763,63d570d979c31656fece7c7d,67e5c8c9bc10e40b86efc6fc,67e5d2dbd0530efe1b558c70,"[""right"",""up"",""left"",""left"",""left"",""right""]","[4.2701999999992495,5.021799999997029,6.221899999998499,6.767499999999984,7.469999999999999,7.806000000000012]",,calibration,With Brainslug Difficult 2 With Money,4,7.98855,7.9908,2,1,0,FALSE,na,na,na,na,,,,,,,,,,,,,,,,,,,,,,,,,,,,,,,,,,0,0,0,0,1,,,,,,,,,,,,,,,,,,,,,,,
,,,,,,,,,,,,63d570d979c31656fece7c7d,001,3,2025-03-27_15h43.04.431,avatar_quest_3AFC_legacy,2022.1.3,Win32,59.17159763,63d570d979c31656fece7c7d,67e5c8c9bc10e40b86efc6fc,67e5d2dbd0530efe1b558c70,,,,,,,,,,,,,,,,,,,,,,With Brainslug Difficult 2 With Money,12,images/assets/snowy_money.jpg,learning,20,images/assets/success_money.jpg,images/assets/gameover.jpg,,,,,,,,,,,,,0,7,7,2,1,,,,,,,,,,,,,,,,,,,,,,,,,,,,,,,,
,,,,,,,,,,,,63d570d979c31656fece7c7d,001,3,2025-03-27_15h43.04.431,avatar_quest_3AFC_legacy,2022.1.3,Win32,59.17159763,63d570d979c31656fece7c7d,67e5c8c9bc10e40b86efc6fc,67e5d2dbd0530efe1b558c70,,,,,,,,,,,,,,,,,,,,,,With Brainslug Difficult 1 With Money,6,images/assets/snowy_money.jpg,learning,20,images/assets/success_money.jpg,images/assets/gameover.jpg,,,,,,,,,,,,,0,8,8,0,1,,,,,,,,,,,,,,,,,,,,,,,,,,,,,,,,
,,,,,,,,,,,,63d570d979c31656fece7c7d,001,3,2025-03-27_15h43.04.431,avatar_quest_3AFC_legacy,2022.1.3,Win32,59.17159763,63d570d979c31656fece7c7d,67e5c8c9bc10e40b86efc6fc,67e5d2dbd0530efe1b558c70,,,,,,,,,,,,,,,,,,,,,,With Brainslug Difficult 1 No Money,6,images/assets/snowy_original.jpg,learning,20,images/assets/success.jpg,images/assets/gameover.jpg,,,,,,,,,,,,,0,9,9,1,1,,,,,,,,,,,,,,,,,,,,,,,,,,,,,,,,
,,,,,,,,,,,,63d570d979c31656fece7c7d,001,3,2025-03-27_15h43.04.431,avatar_quest_3AFC_legacy,2022.1.3,Win32,59.17159763,63d570d979c31656fece7c7d,67e5c8c9bc10e40b86efc6fc,67e5d2dbd0530efe1b558c70,,,,,,,,,,,,,,,,,,,,,,With Brainslug Difficult 2 No Money,12,images/assets/snowy_original.jpg,learning,20,images/assets/success.jpg,images/assets/gameover.jpg,,,,,,,,,,,,,0,10,10,3,1,,,,,,,,,,,,,,,,,,,,,,,,,,,,,,,,
,,,,,,,,,,,,63d570d979c31656fece7c7d,001,3,2025-03-27_15h43.04.431,avatar_quest_3AFC_legacy,2022.1.3,Win32,59.17159763,63d570d979c31656fece7c7d,67e5c8c9bc10e40b86efc6fc,67e5d2dbd0530efe1b558c70,,,,,,,,,,,,,,,,,,,,,,,,,,,,,,,,,,,,,,,,,,,,,,,,,,,,,,,0,0,0,0,1,,,,,,,,,,,,,,,,,,
,,,,,,,,,,,,63d570d979c31656fece7c7d,001,3,2025-03-27_15h43.04.431,avatar_quest_3AFC_legacy,2022.1.3,Win32,59.17159763,63d570d979c31656fece7c7d,67e5c8c9bc10e40b86efc6fc,67e5d2dbd0530efe1b558c70,,,,,,,,,,,,,,,,,,,,,,With Brainslug Difficult 2 No Money,12,images/assets/snowy_original.jpg,learning,20,images/assets/success.jpg,images/assets/gameover.jpg,,,,,,,,With Brainslug Difficult 2 With Money,With Brainslug Difficult 1 No Money,right,6.9259,"[""With Brainslug Difficult 1 No Money"",""With Brainslug Difficult 2 No Money""]",0,0,0,3,1,,,,,,,,,,,,,,,,,,,,,,,,,,,,,,,,
,,,,,,,,,,,,63d570d979c31656fece7c7d,001,3,2025-03-27_15h43.04.431,avatar_quest_3AFC_legacy,2022.1.3,Win32,59.17159763,63d570d979c31656fece7c7d,67e5c8c9bc10e40b86efc6fc,67e5d2dbd0530efe1b558c70,,,,,,,,,,,,,,,,,,,,,,No Brainslug Difficult 1 No Money,6,images/assets/snowy_original.jpg,learning,20,images/assets/success.jpg,images/assets/gameover.jpg,,,,,,,,,,,,,0,1,1,6,1,,,,,,,,,,,,,,,,,,,,,,,,,,,,,,,,
,,,,,,,,,,,,63d570d979c31656fece7c7d,001,3,2025-03-27_15h43.04.431,avatar_quest_3AFC_legacy,2022.1.3,Win32,59.17159763,63d570d979c31656fece7c7d,67e5c8c9bc10e40b86efc6fc,67e5d2dbd0530efe1b558c70,,,,,,,,,,,,,,,,,,,,,,No Brainslug Difficult 2 No Money,12,images/assets/snowy_original.jpg,learning,20,images/assets/success.jpg,images/assets/gameover.jpg,,,,,,,,,,,,,0,2,2,8,1,,,,,,,,,,,,,,,,,,,,,,,,,,,,,,,,
,,,,,,,,,,,,63d570d979c31656fece7c7d,001,3,2025-03-27_15h43.04.431,avatar_quest_3AFC_legacy,2022.1.3,Win32,59.17159763,63d570d979c31656fece7c7d,67e5c8c9bc10e40b86efc6fc,67e5d2dbd0530efe1b558c70,,,,,,,,,,,,,,,,,,,,,,No Brainslug Difficult 2 With Money,12,images/assets/snowy_money.jpg,learning,20,images/assets/success_money.jpg,images/assets/gameover.jpg,,,,,,,,,,,,,0,3,3,7,1,,,,,,,,,,,,,,,,,,,,,,,,,,,,,,,,
,,,,,,,,,,,,63d570d979c31656fece7c7d,001,3,2025-03-27_15h43.04.431,avatar_quest_3AFC_legacy,2022.1.3,Win32,59.17159763,63d570d979c31656fece7c7d,67e5c8c9bc10e40b86efc6fc,67e5d2dbd0530efe1b558c70,,,,,,,,,,,,,,,,,,,,,,No Brainslug No Barriers With Money,0,images/assets/snowy_money.jpg,learning,10,images/assets/success_money.jpg,images/assets/gameover.jpg,,,,,,,,,,,,,0,4,4,9,1,,,,,,,,,,,,,,,,,,,,,,,,,,,,,,,,
,,,,,,,,,,,,63d570d979c31656fece7c7d,001,3,2025-03-27_15h43.04.431,avatar_quest_3AFC_legacy,2022.1.3,Win32,59.17159763,63d570d979c31656fece7c7d,67e5c8c9bc10e40b86efc6fc,67e5d2dbd0530efe1b558c70,,,,,,,,,,,,,,,,,,,,,,No Brainslug No Barriers No Money,0,images/assets/snowy_original.jpg,learning,10,images/assets/success.jpg,images/assets/gameover.jpg,,,,,,,,,,,,,0,5,5,10,1,,,,,,,,,,,,,,,,,,,,,,,,,,,,,,,,
,,,,,,,,,,,,63d570d979c31656fece7c7d,001,3,2025-03-27_15h43.04.431,avatar_quest_3AFC_legacy,2022.1.3,Win32,59.17159763,63d570d979c31656fece7c7d,67e5c8c9bc10e40b86efc6fc,67e5d2dbd0530efe1b558c70,,,,,,,,,,,,,,,,,,,,,,With Brainslug No Barriers With Money,0,images/assets/snowy_money.jpg,learning,10,images/assets/success_money.jpg,images/assets/gameover.jpg,,,,,,,,,,,,,0,6,6,4,1,,,,,,,,,,,,,,,,,,,,,,,,,,,,,,,,
,,,,,,,,,,,,63d570d979c31656fece7c7d,001,3,2025-03-27_15h43.04.431,avatar_quest_3AFC_legacy,2022.1.3,Win32,59.17159763,63d570d979c31656fece7c7d,67e5c8c9bc10e40b86efc6fc,67e5d2dbd0530efe1b558c70,"[""left"",""up"",""up"",""left"",""left"",""right"",""right""]","[3.032999999999987,3.7109999999999843,4.136899999998519,4.481800000000732,4.914399999998494,6.013499999999993,7.216399999998515]",,calibration,With Brainslug Difficult 2 With Money,5,7.98855,7.991,3,3,0,FALSE,na,na,na,na,,,,,,,,,,,,,,,,,,,,,,,,,,,,,,,,,,0,0,0,0,1,,,,,,,,,,,,,,,,,,,,,,,
,,,,,,,,,,,,63d570d979c31656fece7c7d,001,3,2025-03-27_15h43.04.431,avatar_quest_3AFC_legacy,2022.1.3,Win32,59.17159763,63d570d979c31656fece7c7d,67e5c8c9bc10e40b86efc6fc,67e5d2dbd0530efe1b558c70,,,,,,,,,,,,,,,,,,,,,,With Brainslug Difficult 2 With Money,12,images/assets/snowy_money.jpg,learning,20,images/assets/success_money.jpg,images/assets/gameover.jpg,,,,,,,,,,,,,0,7,7,2,1,,,,,,,,,,,,,,,,,,,,,,,,,,,,,,,,
,,,,,,,,,,,,63d570d979c31656fece7c7d,001,3,2025-03-27_15h43.04.431,avatar_quest_3AFC_legacy,2022.1.3,Win32,59.17159763,63d570d979c31656fece7c7d,67e5c8c9bc10e40b86efc6fc,67e5d2dbd0530efe1b558c70,,,,,,,,,,,,,,,,,,,,,,With Brainslug No Barriers No Money,0,images/assets/snowy_original.jpg,learning,10,images/assets/success.jpg,images/assets/gameover.jpg,,,,,,,,,,,,,0,8,8,5,1,,,,,,,,,,,,,,,,,,,,,,,,,,,,,,,,
,,,,,,,,,,,,63d570d979c31656fece7c7d,001,3,2025-03-27_15h43.04.431,avatar_quest_3AFC_legacy,2022.1.3,Win32,59.17159763,63d570d979c31656fece7c7d,67e5c8c9bc10e40b86efc6fc,67e5d2dbd0530efe1b558c70,,,,,,,,,,,,,,,,,,,,,,With Brainslug Difficult 1 No Money,6,images/assets/snowy_original.jpg,learning,20,images/assets/success.jpg,images/assets/gameover.jpg,,,,,,,,,,,,,0,9,9,1,1,,,,,,,,,,,,,,,,,,,,,,,,,,,,,,,,
,,,,,,,,,,,,63d570d979c31656fece7c7d,001,3,2025-03-27_15h43.04.431,avatar_quest_3AFC_legacy,2022.1.3,Win32,59.17159763,63d570d979c31656fece7c7d,67e5c8c9bc10e40b86efc6fc,67e5d2dbd0530efe1b558c70,,,,,,,,,,,,,,,,,,,,,,With Brainslug Difficult 1 With Money,6,images/assets/snowy_money.jpg,learning,20,images/assets/success_money.jpg,images/assets/gameover.jpg,,,,,,,,,,,,,0,10,10,0,1,,,,,,,,,,,,,,,,,,,,,,,,,,,,,,,,
,,,,,,,,,,,,63d570d979c31656fece7c7d,001,3,2025-03-27_15h43.04.431,avatar_quest_3AFC_legacy,2022.1.3,Win32,59.17159763,63d570d979c31656fece7c7d,67e5c8c9bc10e40b86efc6fc,67e5d2dbd0530efe1b558c70,,,,,,,,,,,,,,,,,,,,,,,,,,,,,,,,,,,,,,,,,,,,,,,,,,,,,,,1,0,1,0,1,,,,,,,,,,,,,,,,,,
,,,,,,,,,,,,63d570d979c31656fece7c7d,001,3,2025-03-27_15h43.04.431,avatar_quest_3AFC_legacy,2022.1.3,Win32,59.17159763,63d570d979c31656fece7c7d,67e5c8c9bc10e40b86efc6fc,67e5d2dbd0530efe1b558c70,,,,,,,,,,,,,,,,,,,,,,No Brainslug No Barriers With Money,0,images/assets/snowy_money.jpg,learning,10,images/assets/success_money.jpg,images/assets/gameover.jpg,,,,,,,,With Brainslug Difficult 2 With Money,With Brainslug Difficult 1 No Money,right,2.7517,"[""With Brainslug Difficult 1 No Money"",""With Brainslug Difficult 2 No Money""]",0,0,0,9,1,,,,,,,,,,,,,,,,,,,,,,,,,,,,,,,,
,,,,,,,,,,,,63d570d979c31656fece7c7d,001,3,2025-03-27_15h43.04.431,avatar_quest_3AFC_legacy,2022.1.3,Win32,59.17159763,63d570d979c31656fece7c7d,67e5c8c9bc10e40b86efc6fc,67e5d2dbd0530efe1b558c70,,,,,,,,,,,,,,,,,,,,,,With Brainslug Difficult 1 With Money,6,images/assets/snowy_money.jpg,learning,20,images/assets/success_money.jpg,images/assets/gameover.jpg,,,,,,,,,,,,,0,1,1,0,1,,,,,,,,,,,,,,,,,,,,,,,,,,,,,,,,
,,,,,,,,,,,,63d570d979c31656fece7c7d,001,3,2025-03-27_15h43.04.431,avatar_quest_3AFC_legacy,2022.1.3,Win32,59.17159763,63d570d979c31656fece7c7d,67e5c8c9bc10e40b86efc6fc,67e5d2dbd0530efe1b558c70,,,,,,,,,,,,,,,,,,,,,,With Brainslug No Barriers With Money,0,images/assets/snowy_money.jpg,learning,10,images/assets/success_money.jpg,images/assets/gameover.jpg,,,,,,,,,,,,,0,2,2,4,1,,,,,,,,,,,,,,,,,,,,,,,,,,,,,,,,
,,,,,,,,,,,,63d570d979c31656fece7c7d,001,3,2025-03-27_15h43.04.431,avatar_quest_3AFC_legacy,2022.1.3,Win32,59.17159763,63d570d979c31656fece7c7d,67e5c8c9bc10e40b86efc6fc,67e5d2dbd0530efe1b558c70,"[""left"",""left"",""left"",""left"",""right""]","[3.1893999999985,4.171599999997767,4.805599999997753,5.337199999999257,6.574699999999268]",,calibration,With Brainslug Difficult 2 With Money,6,7.98855,7.9908,3,3,0,FALSE,na,na,na,na,,,,,,,,,,,,,,,,,,,,,,,,,,,,,,,,,,0,0,0,0,1,,,,,,,,,,,,,,,,,,,,,,,
,,,,,,,,,,,,63d570d979c31656fece7c7d,001,3,2025-03-27_15h43.04.431,avatar_quest_3AFC_legacy,2022.1.3,Win32,59.17159763,63d570d979c31656fece7c7d,67e5c8c9bc10e40b86efc6fc,67e5d2dbd0530efe1b558c70,,,,,,,,,,,,,,,,,,,,,,With Brainslug Difficult 2 With Money,12,images/assets/snowy_money.jpg,learning,20,images/assets/success_money.jpg,images/assets/gameover.jpg,,,,,,,,,,,,,0,3,3,2,1,,,,,,,,,,,,,,,,,,,,,,,,,,,,,,,,
,,,,,,,,,,,,63d570d979c31656fece7c7d,001,3,2025-03-27_15h43.04.431,avatar_quest_3AFC_legacy,2022.1.3,Win32,59.17159763,63d570d979c31656fece7c7d,67e5c8c9bc10e40b86efc6fc,67e5d2dbd0530efe1b558c70,,,,,,,,,,,,,,,,,,,,,,With Brainslug Difficult 1 No Money,6,images/assets/snowy_original.jpg,learning,20,images/assets/success.jpg,images/assets/gameover.jpg,,,,,,,,,,,,,0,4,4,1,1,,,,,,,,,,,,,,,,,,,,,,,,,,,,,,,,
,,,,,,,,,,,,63d570d979c31656fece7c7d,001,3,2025-03-27_15h43.04.431,avatar_quest_3AFC_legacy,2022.1.3,Win32,59.17159763,63d570d979c31656fece7c7d,67e5c8c9bc10e40b86efc6fc,67e5d2dbd0530efe1b558c70,,,,,,,,,,,,,,,,,,,,,,No Brainslug Difficult 2 With Money,12,images/assets/snowy_money.jpg,learning,20,images/assets/success_money.jpg,images/assets/gameover.jpg,,,,,,,,,,,,,0,5,5,7,1,,,,,,,,,,,,,,,,,,,,,,,,,,,,,,,,
,,,,,,,,,,,,63d570d979c31656fece7c7d,001,3,2025-03-27_15h43.04.431,avatar_quest_3AFC_legacy,2022.1.3,Win32,59.17159763,63d570d979c31656fece7c7d,67e5c8c9bc10e40b86efc6fc,67e5d2dbd0530efe1b558c70,,,,,,,,,,,,,,,,,,,,,,With Brainslug Difficult 2 No Money,12,images/assets/snowy_original.jpg,learning,20,images/assets/success.jpg,images/assets/gameover.jpg,,,,,,,,,,,,,0,6,6,3,1,,,,,,,,,,,,,,,,,,,,,,,,,,,,,,,,
,,,,,,,,,,,,63d570d979c31656fece7c7d,001,3,2025-03-27_15h43.04.431,avatar_quest_3AFC_legacy,2022.1.3,Win32,59.17159763,63d570d979c31656fece7c7d,67e5c8c9bc10e40b86efc6fc,67e5d2dbd0530efe1b558c70,,,,,,,,,,,,,,,,,,,,,,No Brainslug Difficult 2 No Money,12,images/assets/snowy_original.jpg,learning,20,images/assets/success.jpg,images/assets/gameover.jpg,,,,,,,,,,,,,0,7,7,8,1,,,,,,,,,,,,,,,,,,,,,,,,,,,,,,,,
,,,,,,,,,,,,63d570d979c31656fece7c7d,001,3,2025-03-27_15h43.04.431,avatar_quest_3AFC_legacy,2022.1.3,Win32,59.17159763,63d570d979c31656fece7c7d,67e5c8c9bc10e40b86efc6fc,67e5d2dbd0530efe1b558c70,,,,,,,,,,,,,,,,,,,,,,No Brainslug Difficult 1 No Money,6,images/assets/snowy_original.jpg,learning,20,images/assets/success.jpg,images/assets/gameover.jpg,,,,,,,,,,,,,0,8,8,6,1,,,,,,,,,,,,,,,,,,,,,,,,,,,,,,,,
,,,,,,,,,,,,63d570d979c31656fece7c7d,001,3,2025-03-27_15h43.04.431,avatar_quest_3AFC_legacy,2022.1.3,Win32,59.17159763,63d570d979c31656fece7c7d,67e5c8c9bc10e40b86efc6fc,67e5d2dbd0530efe1b558c70,,,,,,,,,,,,,,,,,,,,,,No Brainslug No Barriers No Money,0,images/assets/snowy_original.jpg,learning,10,images/assets/success.jpg,images/assets/gameover.jpg,,,,,,,,,,,,,0,9,9,10,1,,,,,,,,,,,,,,,,,,,,,,,,,,,,,,,,
,,,,,,,,,,,,63d570d979c31656fece7c7d,001,3,2025-03-27_15h43.04.431,avatar_quest_3AFC_legacy,2022.1.3,Win32,59.17159763,63d570d979c31656fece7c7d,67e5c8c9bc10e40b86efc6fc,67e5d2dbd0530efe1b558c70,,,,,,,,,,,,,,,,,,,,,,With Brainslug No Barriers No Money,0,images/assets/snowy_original.jpg,learning,10,images/assets/success.jpg,images/assets/gameover.jpg,,,,,,,,,,,,,0,10,10,5,1,,,,,,,,,,,,,,,,,,,,,,,,,,,,,,,,
,,,,,,,,,,,,63d570d979c31656fece7c7d,001,3,2025-03-27_15h43.04.431,avatar_quest_3AFC_legacy,2022.1.3,Win32,59.17159763,63d570d979c31656fece7c7d,67e5c8c9bc10e40b86efc6fc,67e5d2dbd0530efe1b558c70,,,,,,,,,,,,,,,,,,,,,,,,,,,,,,,,,,,,,,,,,,,,,,,,,,,,,,,2,0,2,0,1,,,,,,,,,,,,,,,,,,
,,,,,,,,,,,,63d570d979c31656fece7c7d,001,3,2025-03-27_15h43.04.431,avatar_quest_3AFC_legacy,2022.1.3,Win32,59.17159763,63d570d979c31656fece7c7d,67e5c8c9bc10e40b86efc6fc,67e5d2dbd0530efe1b558c70,,,,,,,,,,,,,,,,,,,,,,With Brainslug Difficult 2 With Money,12,images/assets/snowy_money.jpg,learning,20,images/assets/success_money.jpg,images/assets/gameover.jpg,,,,,,,,With Brainslug Difficult 2 No Money,With Brainslug Difficult 1 No Money,down,5.9892,"[""With Brainslug Difficult 1 No Money"",""With Brainslug Difficult 2 With Money""]",0,0,0,2,1,,,,,,,,,,,,,,,,,,,,,,,,,,,,,,,,
,,,,,,,,,,,,63d570d979c31656fece7c7d,001,3,2025-03-27_15h43.04.431,avatar_quest_3AFC_legacy,2022.1.3,Win32,59.17159763,63d570d979c31656fece7c7d,67e5c8c9bc10e40b86efc6fc,67e5d2dbd0530efe1b558c70,,,,,,,,,,,,,,,,,,,,,,No Brainslug Difficult 2 With Money,12,images/assets/snowy_money.jpg,learning,20,images/assets/success_money.jpg,images/assets/gameover.jpg,,,,,,,,,,,,,0,1,1,7,1,,,,,,,,,,,,,,,,,,,,,,,,,,,,,,,,
,,,,,,,,,,,,63d570d979c31656fece7c7d,001,3,2025-03-27_15h43.04.431,avatar_quest_3AFC_legacy,2022.1.3,Win32,59.17159763,63d570d979c31656fece7c7d,67e5c8c9bc10e40b86efc6fc,67e5d2dbd0530efe1b558c70,,,,,,,,,,,,,,,,,,,,,,No Brainslug Difficult 2 No Money,12,images/assets/snowy_original.jpg,learning,20,images/assets/success.jpg,images/assets/gameover.jpg,,,,,,,,,,,,,0,2,2,8,1,,,,,,,,,,,,,,,,,,,,,,,,,,,,,,,,
,,,,,,,,,,,,63d570d979c31656fece7c7d,001,3,2025-03-27_15h43.04.431,avatar_quest_3AFC_legacy,2022.1.3,Win32,59.17159763,63d570d979c31656fece7c7d,67e5c8c9bc10e40b86efc6fc,67e5d2dbd0530efe1b558c70,,,,,,,,,,,,,,,,,,,,,,With Brainslug Difficult 1 No Money,6,images/assets/snowy_original.jpg,learning,20,images/assets/success.jpg,images/assets/gameover.jpg,,,,,,,,,,,,,0,3,3,1,1,,,,,,,,,,,,,,,,,,,,,,,,,,,,,,,,
,,,,,,,,,,,,63d570d979c31656fece7c7d,001,3,2025-03-27_15h43.04.431,avatar_quest_3AFC_legacy,2022.1.3,Win32,59.17159763,63d570d979c31656fece7c7d,67e5c8c9bc10e40b86efc6fc,67e5d2dbd0530efe1b558c70,,,,,,,,,,,,,,,,,,,,,,With Brainslug Difficult 1 With Money,6,images/assets/snowy_money.jpg,learning,20,images/assets/success_money.jpg,images/assets/gameover.jpg,,,,,,,,,,,,,0,4,4,0,1,,,,,,,,,,,,,,,,,,,,,,,,,,,,,,,,
,,,,,,,,,,,,63d570d979c31656fece7c7d,001,3,2025-03-27_15h43.04.431,avatar_quest_3AFC_legacy,2022.1.3,Win32,59.17159763,63d570d979c31656fece7c7d,67e5c8c9bc10e40b86efc6fc,67e5d2dbd0530efe1b558c70,,,,,,,,,,,,,,,,,,,,,,With Brainslug No Barriers No Money,0,images/assets/snowy_original.jpg,learning,10,images/assets/success.jpg,images/assets/gameover.jpg,,,,,,,,,,,,,0,5,5,5,1,,,,,,,,,,,,,,,,,,,,,,,,,,,,,,,,
,,,,,,,,,,,,63d570d979c31656fece7c7d,001,3,2025-03-27_15h43.04.431,avatar_quest_3AFC_legacy,2022.1.3,Win32,59.17159763,63d570d979c31656fece7c7d,67e5c8c9bc10e40b86efc6fc,67e5d2dbd0530efe1b558c70,,,,,,,,,,,,,,,,,,,,,,No Brainslug No Barriers No Money,0,images/assets/snowy_original.jpg,learning,10,images/assets/success.jpg,images/assets/gameover.jpg,,,,,,,,,,,,,0,6,6,10,1,,,,,,,,,,,,,,,,,,,,,,,,,,,,,,,,
,,,,,,,,,,,,63d570d979c31656fece7c7d,001,3,2025-03-27_15h43.04.431,avatar_quest_3AFC_legacy,2022.1.3,Win32,59.17159763,63d570d979c31656fece7c7d,67e5c8c9bc10e40b86efc6fc,67e5d2dbd0530efe1b558c70,,,,,,,,,,,,,,,,,,,,,,With Brainslug No Barriers With Money,0,images/assets/snowy_money.jpg,learning,10,images/assets/success_money.jpg,images/assets/gameover.jpg,,,,,,,,,,,,,0,7,7,4,1,,,,,,,,,,,,,,,,,,,,,,,,,,,,,,,,
,,,,,,,,,,,,63d570d979c31656fece7c7d,001,3,2025-03-27_15h43.04.431,avatar_quest_3AFC_legacy,2022.1.3,Win32,59.17159763,63d570d979c31656fece7c7d,67e5c8c9bc10e40b86efc6fc,67e5d2dbd0530efe1b558c70,,,,,,,,,,,,,,,,,,,,,,No Brainslug Difficult 1 No Money,6,images/assets/snowy_original.jpg,learning,20,images/assets/success.jpg,images/assets/gameover.jpg,,,,,,,,,,,,,0,8,8,6,1,,,,,,,,,,,,,,,,,,,,,,,,,,,,,,,,
,,,,,,,,,,,,63d570d979c31656fece7c7d,001,3,2025-03-27_15h43.04.431,avatar_quest_3AFC_legacy,2022.1.3,Win32,59.17159763,63d570d979c31656fece7c7d,67e5c8c9bc10e40b86efc6fc,67e5d2dbd0530efe1b558c70,,,,,,,,,,,,,,,,,,,,,,No Brainslug No Barriers With Money,0,images/assets/snowy_money.jpg,learning,10,images/assets/success_money.jpg,images/assets/gameover.jpg,,,,,,,,,,,,,0,9,9,9,1,,,,,,,,,,,,,,,,,,,,,,,,,,,,,,,,
,,,,,,,,,,,,63d570d979c31656fece7c7d,001,3,2025-03-27_15h43.04.431,avatar_quest_3AFC_legacy,2022.1.3,Win32,59.17159763,63d570d979c31656fece7c7d,67e5c8c9bc10e40b86efc6fc,67e5d2dbd0530efe1b558c70,"[""right"",""right"",""left"",""right"",""right"",""up"",""left""]","[3.4429000000022256,4.199999999999989,5.027800000000752,5.561699999999291,6.045500000000004,6.731400000002225,7.549400000002265]",,calibration,With Brainslug Difficult 2 No Money,7,7.98855,7.9953,0,2,0,FALSE,na,na,na,na,,,,,,,,,,,,,,,,,,,,,,,,,,,,,,,,,,0,0,0,0,1,,,,,,,,,,,,,,,,,,,,,,,
,,,,,,,,,,,,63d570d979c31656fece7c7d,001,3,2025-03-27_15h43.04.431,avatar_quest_3AFC_legacy,2022.1.3,Win32,59.17159763,63d570d979c31656fece7c7d,67e5c8c9bc10e40b86efc6fc,67e5d2dbd0530efe1b558c70,,,,,,,,,,,,,,,,,,,,,,With Brainslug Difficult 2 No Money,12,images/assets/snowy_original.jpg,learning,20,images/assets/success.jpg,images/assets/gameover.jpg,,,,,,,,,,,,,0,10,10,3,1,,,,,,,,,,,,,,,,,,,,,,,,,,,,,,,,
,,,,,,,,,,,,63d570d979c31656fece7c7d,001,3,2025-03-27_15h43.04.431,avatar_quest_3AFC_legacy,2022.1.3,Win32,59.17159763,63d570d979c31656fece7c7d,67e5c8c9bc10e40b86efc6fc,67e5d2dbd0530efe1b558c70,,,,,,,,,,,,,,,,,,,,,,,,,,,,,,,,,,,,,,,,,,,,,,,,,,,,,,,3,0,3,0,1,,,,,,,,,,,,,,,,,,
,,,,,,,,,,,,63d570d979c31656fece7c7d,001,3,2025-03-27_15h43.04.431,avatar_quest_3AFC_legacy,2022.1.3,Win32,59.17159763,63d570d979c31656fece7c7d,67e5c8c9bc10e40b86efc6fc,67e5d2dbd0530efe1b558c70,,,,,,,,,,,,,,,,,,,,,,No Brainslug Difficult 2 With Money,12,images/assets/snowy_money.jpg,learning,20,images/assets/success_money.jpg,images/assets/gameover.jpg,,,,,,,,With Brainslug Difficult 1 No Money,With Brainslug Difficult 1 No Money,left,5.4915,"[""With Brainslug Difficult 2 No Money"",""With Brainslug Difficult 2 With Money""]",0,0,0,7,1,,,,,,,,,,,,,,,,,,,,,,,,,,,,,,,,
,,,,,,,,,,,,63d570d979c31656fece7c7d,001,3,2025-03-27_15h43.04.431,avatar_quest_3AFC_legacy,2022.1.3,Win32,59.17159763,63d570d979c31656fece7c7d,67e5c8c9bc10e40b86efc6fc,67e5d2dbd0530efe1b558c70,"[""left"",""left"",""right"",""left""]","[3.2128999999985126,3.907099999997797,6.542599999997776,7.763800000000799]",,calibration,With Brainslug Difficult 1 No Money,8,7.98855,8.001,1,2,0,FALSE,na,na,na,na,,,,,,,,,,,,,,,,,,,,,,,,,,,,,,,,,,0,0,0,0,1,,,,,,,,,,,,,,,,,,,,,,,
,,,,,,,,,,,,63d570d979c31656fece7c7d,001,3,2025-03-27_15h43.04.431,avatar_quest_3AFC_legacy,2022.1.3,Win32,59.17159763,63d570d979c31656fece7c7d,67e5c8c9bc10e40b86efc6fc,67e5d2dbd0530efe1b558c70,,,,,,,,,,,,,,,,,,,,,,With Brainslug Difficult 1 No Money,6,images/assets/snowy_original.jpg,learning,20,images/assets/success.jpg,images/assets/gameover.jpg,,,,,,,,,,,,,0,1,1,1,1,,,,,,,,,,,,,,,,,,,,,,,,,,,,,,,,
,,,,,,,,,,,,63d570d979c31656fece7c7d,001,3,2025-03-27_15h43.04.431,avatar_quest_3AFC_legacy,2022.1.3,Win32,59.17159763,63d570d979c31656fece7c7d,67e5c8c9bc10e40b86efc6fc,67e5d2dbd0530efe1b558c70,,,,,,,,,,,,,,,,,,,,,,No Brainslug No Barriers No Money,0,images/assets/snowy_original.jpg,learning,10,images/assets/success.jpg,images/assets/gameover.jpg,,,,,,,,,,,,,0,2,2,10,1,,,,,,,,,,,,,,,,,,,,,,,,,,,,,,,,
,,,,,,,,,,,,63d570d979c31656fece7c7d,001,3,2025-03-27_15h43.04.431,avatar_quest_3AFC_legacy,2022.1.3,Win32,59.17159763,63d570d979c31656fece7c7d,67e5c8c9bc10e40b86efc6fc,67e5d2dbd0530efe1b558c70,,,,,,,,,,,,,,,,,,,,,,No Brainslug Difficult 1 No Money,6,images/assets/snowy_original.jpg,learning,20,images/assets/success.jpg,images/assets/gameover.jpg,,,,,,,,,,,,,0,3,3,6,1,,,,,,,,,,,,,,,,,,,,,,,,,,,,,,,,
,,,,,,,,,,,,63d570d979c31656fece7c7d,001,3,2025-03-27_15h43.04.431,avatar_quest_3AFC_legacy,2022.1.3,Win32,59.17159763,63d570d979c31656fece7c7d,67e5c8c9bc10e40b86efc6fc,67e5d2dbd0530efe1b558c70,,,,,,,,,,,,,,,,,,,,,,No Brainslug Difficult 2 No Money,12,images/assets/snowy_original.jpg,learning,20,images/assets/success.jpg,images/assets/gameover.jpg,,,,,,,,,,,,,0,4,4,8,1,,,,,,,,,,,,,,,,,,,,,,,,,,,,,,,,
,,,,,,,,,,,,63d570d979c31656fece7c7d,001,3,2025-03-27_15h43.04.431,avatar_quest_3AFC_legacy,2022.1.3,Win32,59.17159763,63d570d979c31656fece7c7d,67e5c8c9bc10e40b86efc6fc,67e5d2dbd0530efe1b558c70,,,,,,,,,,,,,,,,,,,,,,With Brainslug No Barriers With Money,0,images/assets/snowy_money.jpg,learning,10,images/assets/success_money.jpg,images/assets/gameover.jpg,,,,,,,,,,,,,0,5,5,4,1,,,,,,,,,,,,,,,,,,,,,,,,,,,,,,,,
,,,,,,,,,,,,63d570d979c31656fece7c7d,001,3,2025-03-27_15h43.04.431,avatar_quest_3AFC_legacy,2022.1.3,Win32,59.17159763,63d570d979c31656fece7c7d,67e5c8c9bc10e40b86efc6fc,67e5d2dbd0530efe1b558c70,,,,,,,,,,,,,,,,,,,,,,With Brainslug Difficult 2 With Money,12,images/assets/snowy_money.jpg,learning,20,images/assets/success_money.jpg,images/assets/gameover.jpg,,,,,,,,,,,,,0,6,6,2,1,,,,,,,,,,,,,,,,,,,,,,,,,,,,,,,,
,,,,,,,,,,,,63d570d979c31656fece7c7d,001,3,2025-03-27_15h43.04.431,avatar_quest_3AFC_legacy,2022.1.3,Win32,59.17159763,63d570d979c31656fece7c7d,67e5c8c9bc10e40b86efc6fc,67e5d2dbd0530efe1b558c70,,,,,,,,,,,,,,,,,,,,,,With Brainslug Difficult 2 No Money,12,images/assets/snowy_original.jpg,learning,20,images/assets/success.jpg,images/assets/gameover.jpg,,,,,,,,,,,,,0,7,7,3,1,,,,,,,,,,,,,,,,,,,,,,,,,,,,,,,,
,,,,,,,,,,,,63d570d979c31656fece7c7d,001,3,2025-03-27_15h43.04.431,avatar_quest_3AFC_legacy,2022.1.3,Win32,59.17159763,63d570d979c31656fece7c7d,67e5c8c9bc10e40b86efc6fc,67e5d2dbd0530efe1b558c70,,,,,,,,,,,,,,,,,,,,,,With Brainslug No Barriers No Money,0,images/assets/snowy_original.jpg,learning,10,images/assets/success.jpg,images/assets/gameover.jpg,,,,,,,,,,,,,0,8,8,5,1,,,,,,,,,,,,,,,,,,,,,,,,,,,,,,,,
,,,,,,,,,,,,63d570d979c31656fece7c7d,001,3,2025-03-27_15h43.04.431,avatar_quest_3AFC_legacy,2022.1.3,Win32,59.17159763,63d570d979c31656fece7c7d,67e5c8c9bc10e40b86efc6fc,67e5d2dbd0530efe1b558c70,,,,,,,,,,,,,,,,,,,,,,With Brainslug Difficult 1 With Money,6,images/assets/snowy_money.jpg,learning,20,images/assets/success_money.jpg,images/assets/gameover.jpg,,,,,,,,,,,,,0,9,9,0,1,,,,,,,,,,,,,,,,,,,,,,,,,,,,,,,,
,,,,,,,,,,,,63d570d979c31656fece7c7d,001,3,2025-03-27_15h43.04.431,avatar_quest_3AFC_legacy,2022.1.3,Win32,59.17159763,63d570d979c31656fece7c7d,67e5c8c9bc10e40b86efc6fc,67e5d2dbd0530efe1b558c70,,,,,,,,,,,,,,,,,,,,,,No Brainslug No Barriers With Money,0,images/assets/snowy_money.jpg,learning,10,images/assets/success_money.jpg,images/assets/gameover.jpg,,,,,,,,,,,,,0,10,10,9,1,,,,,,,,,,,,,,,,,,,,,,,,,,,,,,,,
,,,,,,,,,,,,63d570d979c31656fece7c7d,001,3,2025-03-27_15h43.04.431,avatar_quest_3AFC_legacy,2022.1.3,Win32,59.17159763,63d570d979c31656fece7c7d,67e5c8c9bc10e40b86efc6fc,67e5d2dbd0530efe1b558c70,,,,,,,,,,,,,,,,,,,,,,,,,,,,,,,,,,,,,,,,,,,,,,,,,,,,,,,4,0,4,0,1,,,,,,,,,,,,,,,,,,
,,,,,,,,,,,,63d570d979c31656fece7c7d,001,3,2025-03-27_15h43.04.431,avatar_quest_3AFC_legacy,2022.1.3,Win32,59.17159763,63d570d979c31656fece7c7d,67e5c8c9bc10e40b86efc6fc,67e5d2dbd0530efe1b558c70,,,,,,,,,,,,,,,,,,,,,,No Brainslug No Barriers No Money,0,images/assets/snowy_original.jpg,learning,10,images/assets/success.jpg,images/assets/gameover.jpg,,,,,,,,With Brainslug Difficult 2 With Money,With Brainslug Difficult 1 No Money,right,2.4727,"[""With Brainslug Difficult 1 No Money"",""With Brainslug Difficult 2 No Money""]",0,0,0,10,1,,,,,,,,,,,,,,,,,,,,,,,,,,,,,,,,
,,,,,,,,,,,,63d570d979c31656fece7c7d,001,3,2025-03-27_15h43.04.431,avatar_quest_3AFC_legacy,2022.1.3,Win32,59.17159763,63d570d979c31656fece7c7d,67e5c8c9bc10e40b86efc6fc,67e5d2dbd0530efe1b558c70,,,,,,,,,,,,,,,,,,,,,,No Brainslug No Barriers With Money,0,images/assets/snowy_money.jpg,learning,10,images/assets/success_money.jpg,images/assets/gameover.jpg,,,,,,,,,,,,,0,1,1,9,1,,,,,,,,,,,,,,,,,,,,,,,,,,,,,,,,
,,,,,,,,,,,,63d570d979c31656fece7c7d,001,3,2025-03-27_15h43.04.431,avatar_quest_3AFC_legacy,2022.1.3,Win32,59.17159763,63d570d979c31656fece7c7d,67e5c8c9bc10e40b86efc6fc,67e5d2dbd0530efe1b558c70,,,,,,,,,,,,,,,,,,,,,,No Brainslug Difficult 1 No Money,6,images/assets/snowy_original.jpg,learning,20,images/assets/success.jpg,images/assets/gameover.jpg,,,,,,,,,,,,,0,2,2,6,1,,,,,,,,,,,,,,,,,,,,,,,,,,,,,,,,
,,,,,,,,,,,,63d570d979c31656fece7c7d,001,3,2025-03-27_15h43.04.431,avatar_quest_3AFC_legacy,2022.1.3,Win32,59.17159763,63d570d979c31656fece7c7d,67e5c8c9bc10e40b86efc6fc,67e5d2dbd0530efe1b558c70,,,,,,,,,,,,,,,,,,,,,,With Brainslug Difficult 1 No Money,6,images/assets/snowy_original.jpg,learning,20,images/assets/success.jpg,images/assets/gameover.jpg,,,,,,,,,,,,,0,3,3,1,1,,,,,,,,,,,,,,,,,,,,,,,,,,,,,,,,
,,,,,,,,,,,,63d570d979c31656fece7c7d,001,3,2025-03-27_15h43.04.431,avatar_quest_3AFC_legacy,2022.1.3,Win32,59.17159763,63d570d979c31656fece7c7d,67e5c8c9bc10e40b86efc6fc,67e5d2dbd0530efe1b558c70,,,,,,,,,,,,,,,,,,,,,,No Brainslug Difficult 2 With Money,12,images/assets/snowy_money.jpg,learning,20,images/assets/success_money.jpg,images/assets/gameover.jpg,,,,,,,,,,,,,0,4,4,7,1,,,,,,,,,,,,,,,,,,,,,,,,,,,,,,,,
,,,,,,,,,,,,63d570d979c31656fece7c7d,001,3,2025-03-27_15h43.04.431,avatar_quest_3AFC_legacy,2022.1.3,Win32,59.17159763,63d570d979c31656fece7c7d,67e5c8c9bc10e40b86efc6fc,67e5d2dbd0530efe1b558c70,,,,,,,,,,,,,,,,,,,,,,With Brainslug Difficult 2 No Money,12,images/assets/snowy_original.jpg,learning,20,images/assets/success.jpg,images/assets/gameover.jpg,,,,,,,,,,,,,0,5,5,3,1,,,,,,,,,,,,,,,,,,,,,,,,,,,,,,,,
,,,,,,,,,,,,63d570d979c31656fece7c7d,001,3,2025-03-27_15h43.04.431,avatar_quest_3AFC_legacy,2022.1.3,Win32,59.17159763,63d570d979c31656fece7c7d,67e5c8c9bc10e40b86efc6fc,67e5d2dbd0530efe1b558c70,,,,,,,,,,,,,,,,,,,,,,With Brainslug No Barriers With Money,0,images/assets/snowy_money.jpg,learning,10,images/assets/success_money.jpg,images/assets/gameover.jpg,,,,,,,,,,,,,0,6,6,4,1,,,,,,,,,,,,,,,,,,,,,,,,,,,,,,,,
,,,,,,,,,,,,63d570d979c31656fece7c7d,001,3,2025-03-27_15h43.04.431,avatar_quest_3AFC_legacy,2022.1.3,Win32,59.17159763,63d570d979c31656fece7c7d,67e5c8c9bc10e40b86efc6fc,67e5d2dbd0530efe1b558c70,,,,,,,,,,,,,,,,,,,,,,With Brainslug Difficult 1 With Money,6,images/assets/snowy_money.jpg,learning,20,images/assets/success_money.jpg,images/assets/gameover.jpg,,,,,,,,,,,,,0,7,7,0,1,,,,,,,,,,,,,,,,,,,,,,,,,,,,,,,,
,,,,,,,,,,,,63d570d979c31656fece7c7d,001,3,2025-03-27_15h43.04.431,avatar_quest_3AFC_legacy,2022.1.3,Win32,59.17159763,63d570d979c31656fece7c7d,67e5c8c9bc10e40b86efc6fc,67e5d2dbd0530efe1b558c70,,,,,,,,,,,,,,,,,,,,,,No Brainslug Difficult 2 No Money,12,images/assets/snowy_original.jpg,learning,20,images/assets/success.jpg,images/assets/gameover.jpg,,,,,,,,,,,,,0,8,8,8,1,,,,,,,,,,,,,,,,,,,,,,,,,,,,,,,,
,,,,,,,,,,,,63d570d979c31656fece7c7d,001,3,2025-03-27_15h43.04.431,avatar_quest_3AFC_legacy,2022.1.3,Win32,59.17159763,63d570d979c31656fece7c7d,67e5c8c9bc10e40b86efc6fc,67e5d2dbd0530efe1b558c70,"[""right"",""right"",""left"",""left"",""left""]","[2.7210000000000036,3.3250999999977466,3.9651999999992427,4.975899999998489,5.565199999999209]",,calibration,With Brainslug Difficult 2 With Money,9,7.98855,7.9913,1,2,0,FALSE,na,na,na,na,,,,,,,,,,,,,,,,,,,,,,,,,,,,,,,,,,0,0,0,0,1,,,,,,,,,,,,,,,,,,,,,,,
,,,,,,,,,,,,63d570d979c31656fece7c7d,001,3,2025-03-27_15h43.04.431,avatar_quest_3AFC_legacy,2022.1.3,Win32,59.17159763,63d570d979c31656fece7c7d,67e5c8c9bc10e40b86efc6fc,67e5d2dbd0530efe1b558c70,,,,,,,,,,,,,,,,,,,,,,With Brainslug Difficult 2 With Money,12,images/assets/snowy_money.jpg,learning,20,images/assets/success_money.jpg,images/assets/gameover.jpg,,,,,,,,,,,,,0,9,9,2,1,,,,,,,,,,,,,,,,,,,,,,,,,,,,,,,,
,,,,,,,,,,,,63d570d979c31656fece7c7d,001,3,2025-03-27_15h43.04.431,avatar_quest_3AFC_legacy,2022.1.3,Win32,59.17159763,63d570d979c31656fece7c7d,67e5c8c9bc10e40b86efc6fc,67e5d2dbd0530efe1b558c70,,,,,,,,,,,,,,,,,,,,,,With Brainslug No Barriers No Money,0,images/assets/snowy_original.jpg,learning,10,images/assets/success.jpg,images/assets/gameover.jpg,,,,,,,,,,,,,0,10,10,5,1,,,,,,,,,,,,,,,,,,,,,,,,,,,,,,,,
,,,,,,,,,,,,63d570d979c31656fece7c7d,001,3,2025-03-27_15h43.04.431,avatar_quest_3AFC_legacy,2022.1.3,Win32,59.17159763,63d570d979c31656fece7c7d,67e5c8c9bc10e40b86efc6fc,67e5d2dbd0530efe1b558c70,,,,,,,,,,,,,,,,,,,,,,,,,,,,,,,,,,,,,,,,,,,,,,,,,,,,,,,5,0,5,0,1,,,,,,,,,,,,,,,,,,
,,,,,,,,,,,,63d570d979c31656fece7c7d,001,3,2025-03-27_15h43.04.431,avatar_quest_3AFC_legacy,2022.1.3,Win32,59.17159763,63d570d979c31656fece7c7d,67e5c8c9bc10e40b86efc6fc,67e5d2dbd0530efe1b558c70,,,,,,,,,,,,,,,,,,,,,,No Brainslug Difficult 2 With Money,12,images/assets/snowy_money.jpg,learning,20,images/assets/success_money.jpg,images/assets/gameover.jpg,,,,,,,,With Brainslug Difficult 2 With Money,With Brainslug Difficult 1 No Money,right,3.3503,"[""With Brainslug Difficult 1 No Money"",""With Brainslug Difficult 2 No Money""]",0,0,0,7,1,,,,,,,,,,,,,,,,,,,,,,,,,,,,,,,,
,,,,,,,,,,,,63d570d979c31656fece7c7d,001,3,2025-03-27_15h43.04.431,avatar_quest_3AFC_legacy,2022.1.3,Win32,59.17159763,63d570d979c31656fece7c7d,67e5c8c9bc10e40b86efc6fc,67e5d2dbd0530efe1b558c70,,,,,,,,,,,,,,,,,,,,,,No Brainslug No Barriers No Money,0,images/assets/snowy_original.jpg,learning,10,images/assets/success.jpg,images/assets/gameover.jpg,,,,,,,,,,,,,0,1,1,10,1,,,,,,,,,,,,,,,,,,,,,,,,,,,,,,,,
,,,,,,,,,,,,63d570d979c31656fece7c7d,001,3,2025-03-27_15h43.04.431,avatar_quest_3AFC_legacy,2022.1.3,Win32,59.17159763,63d570d979c31656fece7c7d,67e5c8c9bc10e40b86efc6fc,67e5d2dbd0530efe1b558c70,,,,,,,,,,,,,,,,,,,,,,No Brainslug No Barriers With Money,0,images/assets/snowy_money.jpg,learning,10,images/assets/success_money.jpg,images/assets/gameover.jpg,,,,,,,,,,,,,0,2,2,9,1,,,,,,,,,,,,,,,,,,,,,,,,,,,,,,,,
,,,,,,,,,,,,63d570d979c31656fece7c7d,001,3,2025-03-27_15h43.04.431,avatar_quest_3AFC_legacy,2022.1.3,Win32,59.17159763,63d570d979c31656fece7c7d,67e5c8c9bc10e40b86efc6fc,67e5d2dbd0530efe1b558c70,,,,,,,,,,,,,,,,,,,,,,With Brainslug Difficult 2 No Money,12,images/assets/snowy_original.jpg,learning,20,images/assets/success.jpg,images/assets/gameover.jpg,,,,,,,,,,,,,0,3,3,3,1,,,,,,,,,,,,,,,,,,,,,,,,,,,,,,,,
,,,,,,,,,,,,63d570d979c31656fece7c7d,001,3,2025-03-27_15h43.04.431,avatar_quest_3AFC_legacy,2022.1.3,Win32,59.17159763,63d570d979c31656fece7c7d,67e5c8c9bc10e40b86efc6fc,67e5d2dbd0530efe1b558c70,,,,,,,,,,,,,,,,,,,,,,No Brainslug Difficult 1 No Money,6,images/assets/snowy_original.jpg,learning,20,images/assets/success.jpg,images/assets/gameover.jpg,,,,,,,,,,,,,0,4,4,6,1,,,,,,,,,,,,,,,,,,,,,,,,,,,,,,,,
,,,,,,,,,,,,63d570d979c31656fece7c7d,001,3,2025-03-27_15h43.04.431,avatar_quest_3AFC_legacy,2022.1.3,Win32,59.17159763,63d570d979c31656fece7c7d,67e5c8c9bc10e40b86efc6fc,67e5d2dbd0530efe1b558c70,"[""up"",""left"",""left"",""left"",""left"",""right""]","[2.5218000000007237,3.3863000000007446,4.3764000000022065,5.048300000000722,5.576300000000742,7.341199999999219]",,calibration,With Brainslug Difficult 2 With Money,10,7.98855,7.9906,3,2,0,FALSE,na,na,na,na,,,,,,,,,,,,,,,,,,,,,,,,,,,,,,,,,,0,0,0,0,1,,,,,,,,,,,,,,,,,,,,,,,
,,,,,,,,,,,,63d570d979c31656fece7c7d,001,3,2025-03-27_15h43.04.431,avatar_quest_3AFC_legacy,2022.1.3,Win32,59.17159763,63d570d979c31656fece7c7d,67e5c8c9bc10e40b86efc6fc,67e5d2dbd0530efe1b558c70,,,,,,,,,,,,,,,,,,,,,,With Brainslug Difficult 2 With Money,12,images/assets/snowy_money.jpg,learning,20,images/assets/success_money.jpg,images/assets/gameover.jpg,,,,,,,,,,,,,0,5,5,2,1,,,,,,,,,,,,,,,,,,,,,,,,,,,,,,,,
,,,,,,,,,,,,63d570d979c31656fece7c7d,001,3,2025-03-27_15h43.04.431,avatar_quest_3AFC_legacy,2022.1.3,Win32,59.17159763,63d570d979c31656fece7c7d,67e5c8c9bc10e40b86efc6fc,67e5d2dbd0530efe1b558c70,,,,,,,,,,,,,,,,,,,,,,With Brainslug No Barriers With Money,0,images/assets/snowy_money.jpg,learning,10,images/assets/success_money.jpg,images/assets/gameover.jpg,,,,,,,,,,,,,0,6,6,4,1,,,,,,,,,,,,,,,,,,,,,,,,,,,,,,,,
,,,,,,,,,,,,63d570d979c31656fece7c7d,001,3,2025-03-27_15h43.04.431,avatar_quest_3AFC_legacy,2022.1.3,Win32,59.17159763,63d570d979c31656fece7c7d,67e5c8c9bc10e40b86efc6fc,67e5d2dbd0530efe1b558c70,,,,,,,,,,,,,,,,,,,,,,No Brainslug Difficult 2 No Money,12,images/assets/snowy_original.jpg,learning,20,images/assets/success.jpg,images/assets/gameover.jpg,,,,,,,,,,,,,0,7,7,8,1,,,,,,,,,,,,,,,,,,,,,,,,,,,,,,,,
,,,,,,,,,,,,63d570d979c31656fece7c7d,001,3,2025-03-27_15h43.04.431,avatar_quest_3AFC_legacy,2022.1.3,Win32,59.17159763,63d570d979c31656fece7c7d,67e5c8c9bc10e40b86efc6fc,67e5d2dbd0530efe1b558c70,,,,,,,,,,,,,,,,,,,,,,With Brainslug No Barriers No Money,0,images/assets/snowy_original.jpg,learning,10,images/assets/success.jpg,images/assets/gameover.jpg,,,,,,,,,,,,,0,8,8,5,1,,,,,,,,,,,,,,,,,,,,,,,,,,,,,,,,
,,,,,,,,,,,,63d570d979c31656fece7c7d,001,3,2025-03-27_15h43.04.431,avatar_quest_3AFC_legacy,2022.1.3,Win32,59.17159763,63d570d979c31656fece7c7d,67e5c8c9bc10e40b86efc6fc,67e5d2dbd0530efe1b558c70,,,,,,,,,,,,,,,,,,,,,,With Brainslug Difficult 1 No Money,6,images/assets/snowy_original.jpg,learning,20,images/assets/success.jpg,images/assets/gameover.jpg,,,,,,,,,,,,,0,9,9,1,1,,,,,,,,,,,,,,,,,,,,,,,,,,,,,,,,
,,,,,,,,,,,,63d570d979c31656fece7c7d,001,3,2025-03-27_15h43.04.431,avatar_quest_3AFC_legacy,2022.1.3,Win32,59.17159763,63d570d979c31656fece7c7d,67e5c8c9bc10e40b86efc6fc,67e5d2dbd0530efe1b558c70,,,,,,,,,,,,,,,,,,,,,,With Brainslug Difficult 1 With Money,6,images/assets/snowy_money.jpg,learning,20,images/assets/success_money.jpg,images/assets/gameover.jpg,,,,,,,,,,,,,0,10,10,0,1,,,,,,,,,,,,,,,,,,,,,,,,,,,,,,,,
,,,,,,,,,,,,63d570d979c31656fece7c7d,001,3,2025-03-27_15h43.04.431,avatar_quest_3AFC_legacy,2022.1.3,Win32,59.17159763,63d570d979c31656fece7c7d,67e5c8c9bc10e40b86efc6fc,67e5d2dbd0530efe1b558c70,,,,,,,,,,,,,,,,,,,,,,,,,,,,,,,,,,,,,,,,,,,,,,,,,,,,,,,6,0,6,0,1,,,,,,,,,,,,,,,,,,
,,,,,,,,,,,,63d570d979c31656fece7c7d,001,3,2025-03-27_15h43.04.431,avatar_quest_3AFC_legacy,2022.1.3,Win32,59.17159763,63d570d979c31656fece7c7d,67e5c8c9bc10e40b86efc6fc,67e5d2dbd0530efe1b558c70,"[""right"",""left"",""left"",""left"",""right""]","[2.508800000000747,3.7281000000014615,4.84710000000149,5.56480000000073,6.199300000000733]",,calibration,With Brainslug Difficult 2 No Money,11,7.98855,7.9966,0,1,0,FALSE,na,na,na,na,,,,,,,,,,,,,,,,,,,,With Brainslug Difficult 2 No Money,With Brainslug Difficult 1 No Money,down,3.1545,"[""With Brainslug Difficult 1 No Money"",""With Brainslug Difficult 2 With Money""]",,,,,,,,,,0,0,0,0,1,,,,,,,,,,,,,,,,,,,,,,,
,,,,,,,,,,,,63d570d979c31656fece7c7d,001,3,2025-03-27_15h43.04.431,avatar_quest_3AFC_legacy,2022.1.3,Win32,59.17159763,63d570d979c31656fece7c7d,67e5c8c9bc10e40b86efc6fc,67e5d2dbd0530efe1b558c70,,,,,,,,,,,,,,,,,,,,,,With Brainslug Difficult 2 No Money,12,images/assets/snowy_original.jpg,learning,20,images/assets/success.jpg,images/assets/gameover.jpg,,,,,,,,,,,,,0,0,0,3,1,,,,,,,,,,,,,,,,,,,,,,,,,,,,,,,,
,,,,,,,,,,,,63d570d979c31656fece7c7d,001,3,2025-03-27_15h43.04.431,avatar_quest_3AFC_legacy,2022.1.3,Win32,59.17159763,63d570d979c31656fece7c7d,67e5c8c9bc10e40b86efc6fc,67e5d2dbd0530efe1b558c70,,,,,,,,,,,,,,,,,,,,,,No Brainslug Difficult 2 No Money,12,images/assets/snowy_original.jpg,learning,20,images/assets/success.jpg,images/assets/gameover.jpg,,,,,,,,,,,,,0,1,1,8,1,,,,,,,,,,,,,,,,,,,,,,,,,,,,,,,,
,,,,,,,,,,,,63d570d979c31656fece7c7d,001,3,2025-03-27_15h43.04.431,avatar_quest_3AFC_legacy,2022.1.3,Win32,59.17159763,63d570d979c31656fece7c7d,67e5c8c9bc10e40b86efc6fc,67e5d2dbd0530efe1b558c70,,,,,,,,,,,,,,,,,,,,,,No Brainslug Difficult 1 No Money,6,images/assets/snowy_original.jpg,learning,20,images/assets/success.jpg,images/assets/gameover.jpg,,,,,,,,,,,,,0,2,2,6,1,,,,,,,,,,,,,,,,,,,,,,,,,,,,,,,,
,,,,,,,,,,,,63d570d979c31656fece7c7d,001,3,2025-03-27_15h43.04.431,avatar_quest_3AFC_legacy,2022.1.3,Win32,59.17159763,63d570d979c31656fece7c7d,67e5c8c9bc10e40b86efc6fc,67e5d2dbd0530efe1b558c70,,,,,,,,,,,,,,,,,,,,,,With Brainslug Difficult 2 With Money,12,images/assets/snowy_money.jpg,learning,20,images/assets/success_money.jpg,images/assets/gameover.jpg,,,,,,,,,,,,,0,3,3,2,1,,,,,,,,,,,,,,,,,,,,,,,,,,,,,,,,
,,,,,,,,,,,,63d570d979c31656fece7c7d,001,3,2025-03-27_15h43.04.431,avatar_quest_3AFC_legacy,2022.1.3,Win32,59.17159763,63d570d979c31656fece7c7d,67e5c8c9bc10e40b86efc6fc,67e5d2dbd0530efe1b558c70,,,,,,,,,,,,,,,,,,,,,,With Brainslug Difficult 1 No Money,6,images/assets/snowy_original.jpg,learning,20,images/assets/success.jpg,images/assets/gameover.jpg,,,,,,,,,,,,,0,4,4,1,1,,,,,,,,,,,,,,,,,,,,,,,,,,,,,,,,
,,,,,,,,,,,,63d570d979c31656fece7c7d,001,3,2025-03-27_15h43.04.431,avatar_quest_3AFC_legacy,2022.1.3,Win32,59.17159763,63d570d979c31656fece7c7d,67e5c8c9bc10e40b86efc6fc,67e5d2dbd0530efe1b558c70,,,,,,,,,,,,,,,,,,,,,,With Brainslug No Barriers No Money,0,images/assets/snowy_original.jpg,learning,10,images/assets/success.jpg,images/assets/gameover.jpg,,,,,,,,,,,,,0,5,5,5,1,,,,,,,,,,,,,,,,,,,,,,,,,,,,,,,,
,,,,,,,,,,,,63d570d979c31656fece7c7d,001,3,2025-03-27_15h43.04.431,avatar_quest_3AFC_legacy,2022.1.3,Win32,59.17159763,63d570d979c31656fece7c7d,67e5c8c9bc10e40b86efc6fc,67e5d2dbd0530efe1b558c70,,,,,,,,,,,,,,,,,,,,,,With Brainslug No Barriers With Money,0,images/assets/snowy_money.jpg,learning,10,images/assets/success_money.jpg,images/assets/gameover.jpg,,,,,,,,,,,,,0,6,6,4,1,,,,,,,,,,,,,,,,,,,,,,,,,,,,,,,,
,,,,,,,,,,,,63d570d979c31656fece7c7d,001,3,2025-03-27_15h43.04.431,avatar_quest_3AFC_legacy,2022.1.3,Win32,59.17159763,63d570d979c31656fece7c7d,67e5c8c9bc10e40b86efc6fc,67e5d2dbd0530efe1b558c70,,,,,,,,,,,,,,,,,,,,,,No Brainslug No Barriers With Money,0,images/assets/snowy_money.jpg,learning,10,images/assets/success_money.jpg,images/assets/gameover.jpg,,,,,,,,,,,,,0,7,7,9,1,,,,,,,,,,,,,,,,,,,,,,,,,,,,,,,,
,,,,,,,,,,,,63d570d979c31656fece7c7d,001,3,2025-03-27_15h43.04.431,avatar_quest_3AFC_legacy,2022.1.3,Win32,59.17159763,63d570d979c31656fece7c7d,67e5c8c9bc10e40b86efc6fc,67e5d2dbd0530efe1b558c70,,,,,,,,,,,,,,,,,,,,,,No Brainslug No Barriers No Money,0,images/assets/snowy_original.jpg,learning,10,images/assets/success.jpg,images/assets/gameover.jpg,,,,,,,,,,,,,0,8,8,10,1,,,,,,,,,,,,,,,,,,,,,,,,,,,,,,,,
,,,,,,,,,,,,63d570d979c31656fece7c7d,001,3,2025-03-27_15h43.04.431,avatar_quest_3AFC_legacy,2022.1.3,Win32,59.17159763,63d570d979c31656fece7c7d,67e5c8c9bc10e40b86efc6fc,67e5d2dbd0530efe1b558c70,,,,,,,,,,,,,,,,,,,,,,No Brainslug Difficult 2 With Money,12,images/assets/snowy_money.jpg,learning,20,images/assets/success_money.jpg,images/assets/gameover.jpg,,,,,,,,,,,,,0,9,9,7,1,,,,,,,,,,,,,,,,,,,,,,,,,,,,,,,,
,,,,,,,,,,,,63d570d979c31656fece7c7d,001,3,2025-03-27_15h43.04.431,avatar_quest_3AFC_legacy,2022.1.3,Win32,59.17159763,63d570d979c31656fece7c7d,67e5c8c9bc10e40b86efc6fc,67e5d2dbd0530efe1b558c70,,,,,,,,,,,,,,,,,,,,,,With Brainslug Difficult 1 With Money,6,images/assets/snowy_money.jpg,learning,20,images/assets/success_money.jpg,images/assets/gameover.jpg,,,,,,,,,,,,,0,10,10,0,1,,,,,,,,,,,,,,,,,,,,,,,,,,,,,,,,
,,,,,,,,,,,,63d570d979c31656fece7c7d,001,3,2025-03-27_15h43.04.431,avatar_quest_3AFC_legacy,2022.1.3,Win32,59.17159763,63d570d979c31656fece7c7d,67e5c8c9bc10e40b86efc6fc,67e5d2dbd0530efe1b558c70,,,,,,,,,,,,,,,,,,,,,,,,,,,,,,,,,,,,,,,,,,,,,,,,,,,,,,,7,0,7,0,1,,,,,,,,,,,,,,,,,,
,,,,,,,,,,,,63d570d979c31656fece7c7d,001,3,2025-03-27_15h43.04.431,avatar_quest_3AFC_legacy,2022.1.3,Win32,59.17159763,63d570d979c31656fece7c7d,67e5c8c9bc10e40b86efc6fc,67e5d2dbd0530efe1b558c70,,,,,,,,,,,,,,,,,,,,,,With Brainslug Difficult 1 With Money,6,images/assets/snowy_money.jpg,learning,20,images/assets/success_money.jpg,images/assets/gameover.jpg,,,,,,,,With Brainslug Difficult 2 With Money,With Brainslug Difficult 1 No Money,right,1.6044,"[""With Brainslug Difficult 1 No Money"",""With Brainslug Difficult 2 No Money""]",0,0,0,0,1,,,,,,,,,,,,,,,,,,,,,,,,,,,,,,,,
,,,,,,,,,,,,63d570d979c31656fece7c7d,001,3,2025-03-27_15h43.04.431,avatar_quest_3AFC_legacy,2022.1.3,Win32,59.17159763,63d570d979c31656fece7c7d,67e5c8c9bc10e40b86efc6fc,67e5d2dbd0530efe1b558c70,"[""left"",""right"",""right"",""right"",""right"",""up"",""right""]","[1.8423999999985199,2.4430999999977416,3.1286999999992418,4.180300000000727,5.599199999999257,7.451699999999221,7.9355999999977485]",,calibration,With Brainslug Difficult 2 With Money,12,7.98855,7.9901,1,2,0,FALSE,na,na,na,na,,,,,,,,,,,,,,,,,,,,,,,,,,,,,,,,,,0,0,0,0,1,,,,,,,,,,,,,,,,,,,,,,,
,,,,,,,,,,,,63d570d979c31656fece7c7d,001,3,2025-03-27_15h43.04.431,avatar_quest_3AFC_legacy,2022.1.3,Win32,59.17159763,63d570d979c31656fece7c7d,67e5c8c9bc10e40b86efc6fc,67e5d2dbd0530efe1b558c70,,,,,,,,,,,,,,,,,,,,,,With Brainslug Difficult 2 With Money,12,images/assets/snowy_money.jpg,learning,20,images/assets/success_money.jpg,images/assets/gameover.jpg,,,,,,,,,,,,,0,1,1,2,1,,,,,,,,,,,,,,,,,,,,,,,,,,,,,,,,
,,,,,,,,,,,,63d570d979c31656fece7c7d,001,3,2025-03-27_15h43.04.431,avatar_quest_3AFC_legacy,2022.1.3,Win32,59.17159763,63d570d979c31656fece7c7d,67e5c8c9bc10e40b86efc6fc,67e5d2dbd0530efe1b558c70,,,,,,,,,,,,,,,,,,,,,,No Brainslug No Barriers No Money,0,images/assets/snowy_original.jpg,learning,10,images/assets/success.jpg,images/assets/gameover.jpg,,,,,,,,,,,,,0,2,2,10,1,,,,,,,,,,,,,,,,,,,,,,,,,,,,,,,,
,,,,,,,,,,,,63d570d979c31656fece7c7d,001,3,2025-03-27_15h43.04.431,avatar_quest_3AFC_legacy,2022.1.3,Win32,59.17159763,63d570d979c31656fece7c7d,67e5c8c9bc10e40b86efc6fc,67e5d2dbd0530efe1b558c70,,,,,,,,,,,,,,,,,,,,,,No Brainslug Difficult 2 No Money,12,images/assets/snowy_original.jpg,learning,20,images/assets/success.jpg,images/assets/gameover.jpg,,,,,,,,,,,,,0,3,3,8,1,,,,,,,,,,,,,,,,,,,,,,,,,,,,,,,,
,,,,,,,,,,,,63d570d979c31656fece7c7d,001,3,2025-03-27_15h43.04.431,avatar_quest_3AFC_legacy,2022.1.3,Win32,59.17159763,63d570d979c31656fece7c7d,67e5c8c9bc10e40b86efc6fc,67e5d2dbd0530efe1b558c70,,,,,,,,,,,,,,,,,,,,,,No Brainslug Difficult 2 With Money,12,images/assets/snowy_money.jpg,learning,20,images/assets/success_money.jpg,images/assets/gameover.jpg,,,,,,,,,,,,,0,4,4,7,1,,,,,,,,,,,,,,,,,,,,,,,,,,,,,,,,
,,,,,,,,,,,,63d570d979c31656fece7c7d,001,3,2025-03-27_15h43.04.431,avatar_quest_3AFC_legacy,2022.1.3,Win32,59.17159763,63d570d979c31656fece7c7d,67e5c8c9bc10e40b86efc6fc,67e5d2dbd0530efe1b558c70,,,,,,,,,,,,,,,,,,,,,,With Brainslug No Barriers No Money,0,images/assets/snowy_original.jpg,learning,10,images/assets/success.jpg,images/assets/gameover.jpg,,,,,,,,,,,,,0,5,5,5,1,,,,,,,,,,,,,,,,,,,,,,,,,,,,,,,,
,,,,,,,,,,,,63d570d979c31656fece7c7d,001,3,2025-03-27_15h43.04.431,avatar_quest_3AFC_legacy,2022.1.3,Win32,59.17159763,63d570d979c31656fece7c7d,67e5c8c9bc10e40b86efc6fc,67e5d2dbd0530efe1b558c70,,,,,,,,,,,,,,,,,,,,,,No Brainslug No Barriers With Money,0,images/assets/snowy_money.jpg,learning,10,images/assets/success_money.jpg,images/assets/gameover.jpg,,,,,,,,,,,,,0,6,6,9,1,,,,,,,,,,,,,,,,,,,,,,,,,,,,,,,,
,,,,,,,,,,,,63d570d979c31656fece7c7d,001,3,2025-03-27_15h43.04.431,avatar_quest_3AFC_legacy,2022.1.3,Win32,59.17159763,63d570d979c31656fece7c7d,67e5c8c9bc10e40b86efc6fc,67e5d2dbd0530efe1b558c70,,,,,,,,,,,,,,,,,,,,,,No Brainslug Difficult 1 No Money,6,images/assets/snowy_original.jpg,learning,20,images/assets/success.jpg,images/assets/gameover.jpg,,,,,,,,,,,,,0,7,7,6,1,,,,,,,,,,,,,,,,,,,,,,,,,,,,,,,,
,,,,,,,,,,,,63d570d979c31656fece7c7d,001,3,2025-03-27_15h43.04.431,avatar_quest_3AFC_legacy,2022.1.3,Win32,59.17159763,63d570d979c31656fece7c7d,67e5c8c9bc10e40b86efc6fc,67e5d2dbd0530efe1b558c70,,,,,,,,,,,,,,,,,,,,,,With Brainslug No Barriers With Money,0,images/assets/snowy_money.jpg,learning,10,images/assets/success_money.jpg,images/assets/gameover.jpg,,,,,,,,,,,,,0,8,8,4,1,,,,,,,,,,,,,,,,,,,,,,,,,,,,,,,,
,,,,,,,,,,,,63d570d979c31656fece7c7d,001,3,2025-03-27_15h43.04.431,avatar_quest_3AFC_legacy,2022.1.3,Win32,59.17159763,63d570d979c31656fece7c7d,67e5c8c9bc10e40b86efc6fc,67e5d2dbd0530efe1b558c70,,,,,,,,,,,,,,,,,,,,,,With Brainslug Difficult 1 No Money,6,images/assets/snowy_original.jpg,learning,20,images/assets/success.jpg,images/assets/gameover.jpg,,,,,,,,,,,,,0,9,9,1,1,,,,,,,,,,,,,,,,,,,,,,,,,,,,,,,,
,,,,,,,,,,,,63d570d979c31656fece7c7d,001,3,2025-03-27_15h43.04.431,avatar_quest_3AFC_legacy,2022.1.3,Win32,59.17159763,63d570d979c31656fece7c7d,67e5c8c9bc10e40b86efc6fc,67e5d2dbd0530efe1b558c70,,,,,,,,,,,,,,,,,,,,,,With Brainslug Difficult 2 No Money,12,images/assets/snowy_original.jpg,learning,20,images/assets/success.jpg,images/assets/gameover.jpg,,,,,,,,,,,,,0,10,10,3,1,,,,,,,,,,,,,,,,,,,,,,,,,,,,,,,,
,,,,,,,,,,,,63d570d979c31656fece7c7d,001,3,2025-03-27_15h43.04.431,avatar_quest_3AFC_legacy,2022.1.3,Win32,59.17159763,63d570d979c31656fece7c7d,67e5c8c9bc10e40b86efc6fc,67e5d2dbd0530efe1b558c70,,,,,,,,,,,,,,,,,,,,,,,,,,,,,,,,,,,,,,,,,,,,,,,,,,,,,,,8,0,8,0,1,,,,,,,,,,,,,,,,,,
,,,,,,,,,,,,63d570d979c31656fece7c7d,001,3,2025-03-27_15h43.04.431,avatar_quest_3AFC_legacy,2022.1.3,Win32,59.17159763,63d570d979c31656fece7c7d,67e5c8c9bc10e40b86efc6fc,67e5d2dbd0530efe1b558c70,,,,,,,,,,,,,,,,,,,,,,No Brainslug Difficult 2 No Money,12,images/assets/snowy_original.jpg,learning,20,images/assets/success.jpg,images/assets/gameover.jpg,,,,,,,,With Brainslug Difficult 2 With Money,With Brainslug Difficult 1 No Money,right,1.0174,"[""With Brainslug Difficult 1 No Money"",""With Brainslug Difficult 2 No Money""]",0,0,0,8,1,,,,,,,,,,,,,,,,,,,,,,,,,,,,,,,,
,,,,,,,,,,,,63d570d979c31656fece7c7d,001,3,2025-03-27_15h43.04.431,avatar_quest_3AFC_legacy,2022.1.3,Win32,59.17159763,63d570d979c31656fece7c7d,67e5c8c9bc10e40b86efc6fc,67e5d2dbd0530efe1b558c70,,,,,,,,,,,,,,,,,,,,,,With Brainslug Difficult 2 No Money,12,images/assets/snowy_original.jpg,learning,20,images/assets/success.jpg,images/assets/gameover.jpg,,,,,,,,,,,,,0,1,1,3,1,,,,,,,,,,,,,,,,,,,,,,,,,,,,,,,,
,,,,,,,,,,,,63d570d979c31656fece7c7d,001,3,2025-03-27_15h43.04.431,avatar_quest_3AFC_legacy,2022.1.3,Win32,59.17159763,63d570d979c31656fece7c7d,67e5c8c9bc10e40b86efc6fc,67e5d2dbd0530efe1b558c70,,,,,,,,,,,,,,,,,,,,,,No Brainslug Difficult 1 No Money,6,images/assets/snowy_original.jpg,learning,20,images/assets/success.jpg,images/assets/gameover.jpg,,,,,,,,,,,,,0,2,2,6,1,,,,,,,,,,,,,,,,,,,,,,,,,,,,,,,,
,,,,,,,,,,,,63d570d979c31656fece7c7d,001,3,2025-03-27_15h43.04.431,avatar_quest_3AFC_legacy,2022.1.3,Win32,59.17159763,63d570d979c31656fece7c7d,67e5c8c9bc10e40b86efc6fc,67e5d2dbd0530efe1b558c70,,,,,,,,,,,,,,,,,,,,,,With Brainslug Difficult 1 No Money,6,images/assets/snowy_original.jpg,learning,20,images/assets/success.jpg,images/assets/gameover.jpg,,,,,,,,,,,,,0,3,3,1,1,,,,,,,,,,,,,,,,,,,,,,,,,,,,,,,,
,,,,,,,,,,,,63d570d979c31656fece7c7d,001,3,2025-03-27_15h43.04.431,avatar_quest_3AFC_legacy,2022.1.3,Win32,59.17159763,63d570d979c31656fece7c7d,67e5c8c9bc10e40b86efc6fc,67e5d2dbd0530efe1b558c70,,,,,,,,,,,,,,,,,,,,,,No Brainslug Difficult 2 With Money,12,images/assets/snowy_money.jpg,learning,20,images/assets/success_money.jpg,images/assets/gameover.jpg,,,,,,,,,,,,,0,4,4,7,1,,,,,,,,,,,,,,,,,,,,,,,,,,,,,,,,
,,,,,,,,,,,,63d570d979c31656fece7c7d,001,3,2025-03-27_15h43.04.431,avatar_quest_3AFC_legacy,2022.1.3,Win32,59.17159763,63d570d979c31656fece7c7d,67e5c8c9bc10e40b86efc6fc,67e5d2dbd0530efe1b558c70,,,,,,,,,,,,,,,,,,,,,,With Brainslug No Barriers No Money,0,images/assets/snowy_original.jpg,learning,10,images/assets/success.jpg,images/assets/gameover.jpg,,,,,,,,,,,,,0,5,5,5,1,,,,,,,,,,,,,,,,,,,,,,,,,,,,,,,,
,,,,,,,,,,,,63d570d979c31656fece7c7d,001,3,2025-03-27_15h43.04.431,avatar_quest_3AFC_legacy,2022.1.3,Win32,59.17159763,63d570d979c31656fece7c7d,67e5c8c9bc10e40b86efc6fc,67e5d2dbd0530efe1b558c70,,,,,,,,,,,,,,,,,,,,,,No Brainslug No Barriers No Money,0,images/assets/snowy_original.jpg,learning,10,images/assets/success.jpg,images/assets/gameover.jpg,,,,,,,,,,,,,0,6,6,10,1,,,,,,,,,,,,,,,,,,,,,,,,,,,,,,,,
,,,,,,,,,,,,63d570d979c31656fece7c7d,001,3,2025-03-27_15h43.04.431,avatar_quest_3AFC_legacy,2022.1.3,Win32,59.17159763,63d570d979c31656fece7c7d,67e5c8c9bc10e40b86efc6fc,67e5d2dbd0530efe1b558c70,"[""left"",""left"",""left"",""right"",""left"",""right""]","[1.6771999999992886,2.7116999999992686,3.363800000000765,4.215000000000032,5.7846000000015465,7.3700000000000045]",,calibration,With Brainslug Difficult 2 With Money,13,7.98855,7.9902,4,3,0,FALSE,na,na,na,na,,,,,,,,,,,,,,,,,,,,,,,,,,,,,,,,,,0,0,0,0,1,,,,,,,,,,,,,,,,,,,,,,,
,,,,,,,,,,,,63d570d979c31656fece7c7d,001,3,2025-03-27_15h43.04.431,avatar_quest_3AFC_legacy,2022.1.3,Win32,59.17159763,63d570d979c31656fece7c7d,67e5c8c9bc10e40b86efc6fc,67e5d2dbd0530efe1b558c70,,,,,,,,,,,,,,,,,,,,,,With Brainslug Difficult 2 With Money,12,images/assets/snowy_money.jpg,learning,20,images/assets/success_money.jpg,images/assets/gameover.jpg,,,,,,,,,,,,,0,7,7,2,1,,,,,,,,,,,,,,,,,,,,,,,,,,,,,,,,
,,,,,,,,,,,,63d570d979c31656fece7c7d,001,3,2025-03-27_15h43.04.431,avatar_quest_3AFC_legacy,2022.1.3,Win32,59.17159763,63d570d979c31656fece7c7d,67e5c8c9bc10e40b86efc6fc,67e5d2dbd0530efe1b558c70,,,,,,,,,,,,,,,,,,,,,,With Brainslug No Barriers With Money,0,images/assets/snowy_money.jpg,learning,10,images/assets/success_money.jpg,images/assets/gameover.jpg,,,,,,,,,,,,,0,8,8,4,1,,,,,,,,,,,,,,,,,,,,,,,,,,,,,,,,
,,,,,,,,,,,,63d570d979c31656fece7c7d,001,3,2025-03-27_15h43.04.431,avatar_quest_3AFC_legacy,2022.1.3,Win32,59.17159763,63d570d979c31656fece7c7d,67e5c8c9bc10e40b86efc6fc,67e5d2dbd0530efe1b558c70,,,,,,,,,,,,,,,,,,,,,,With Brainslug Difficult 1 With Money,6,images/assets/snowy_money.jpg,learning,20,images/assets/success_money.jpg,images/assets/gameover.jpg,,,,,,,,,,,,,0,9,9,0,1,,,,,,,,,,,,,,,,,,,,,,,,,,,,,,,,
,,,,,,,,,,,,63d570d979c31656fece7c7d,001,3,2025-03-27_15h43.04.431,avatar_quest_3AFC_legacy,2022.1.3,Win32,59.17159763,63d570d979c31656fece7c7d,67e5c8c9bc10e40b86efc6fc,67e5d2dbd0530efe1b558c70,,,,,,,,,,,,,,,,,,,,,,No Brainslug No Barriers With Money,0,images/assets/snowy_money.jpg,learning,10,images/assets/success_money.jpg,images/assets/gameover.jpg,,,,,,,,,,,,,0,10,10,9,1,,,,,,,,,,,,,,,,,,,,,,,,,,,,,,,,
,,,,,,,,,,,,63d570d979c31656fece7c7d,001,3,2025-03-27_15h43.04.431,avatar_quest_3AFC_legacy,2022.1.3,Win32,59.17159763,63d570d979c31656fece7c7d,67e5c8c9bc10e40b86efc6fc,67e5d2dbd0530efe1b558c70,,,,,,,,,,,,,,,,,,,,,,,,,,,,,,,,,,,,,,,,,,,,,,,,,,,,,,,9,0,9,0,1,,,,,,,,,,,,,,,,,,
,,,,,,,,,,,,63d570d979c31656fece7c7d,001,3,2025-03-27_15h43.04.431,avatar_quest_3AFC_legacy,2022.1.3,Win32,59.17159763,63d570d979c31656fece7c7d,67e5c8c9bc10e40b86efc6fc,67e5d2dbd0530efe1b558c70,,,,,,,,,,,,,,,,,,,,,,No Brainslug No Barriers With Money,0,images/assets/snowy_money.jpg,learning,10,images/assets/success_money.jpg,images/assets/gameover.jpg,,,,,,,,With Brainslug Difficult 2 With Money,With Brainslug Difficult 1 No Money,right,1.017,"[""With Brainslug Difficult 1 No Money"",""With Brainslug Difficult 2 No Money""]",0,0,0,9,1,,,,,,,,,,,,,,,,,,,,,,,,,,,,,,,,
,,,,,,,,,,,,63d570d979c31656fece7c7d,001,3,2025-03-27_15h43.04.431,avatar_quest_3AFC_legacy,2022.1.3,Win32,59.17159763,63d570d979c31656fece7c7d,67e5c8c9bc10e40b86efc6fc,67e5d2dbd0530efe1b558c70,,,,,,,,,,,,,,,,,,,,,,No Brainslug Difficult 1 No Money,6,images/assets/snowy_original.jpg,learning,20,images/assets/success.jpg,images/assets/gameover.jpg,,,,,,,,,,,,,0,1,1,6,1,,,,,,,,,,,,,,,,,,,,,,,,,,,,,,,,
,,,,,,,,,,,,63d570d979c31656fece7c7d,001,3,2025-03-27_15h43.04.431,avatar_quest_3AFC_legacy,2022.1.3,Win32,59.17159763,63d570d979c31656fece7c7d,67e5c8c9bc10e40b86efc6fc,67e5d2dbd0530efe1b558c70,,,,,,,,,,,,,,,,,,,,,,With Brainslug Difficult 2 No Money,12,images/assets/snowy_original.jpg,learning,20,images/assets/success.jpg,images/assets/gameover.jpg,,,,,,,,,,,,,0,2,2,3,1,,,,,,,,,,,,,,,,,,,,,,,,,,,,,,,,
,,,,,,,,,,,,63d570d979c31656fece7c7d,001,3,2025-03-27_15h43.04.431,avatar_quest_3AFC_legacy,2022.1.3,Win32,59.17159763,63d570d979c31656fece7c7d,67e5c8c9bc10e40b86efc6fc,67e5d2dbd0530efe1b558c70,,,,,,,,,,,,,,,,,,,,,,With Brainslug No Barriers With Money,0,images/assets/snowy_money.jpg,learning,10,images/assets/success_money.jpg,images/assets/gameover.jpg,,,,,,,,,,,,,0,3,3,4,1,,,,,,,,,,,,,,,,,,,,,,,,,,,,,,,,
,,,,,,,,,,,,63d570d979c31656fece7c7d,001,3,2025-03-27_15h43.04.431,avatar_quest_3AFC_legacy,2022.1.3,Win32,59.17159763,63d570d979c31656fece7c7d,67e5c8c9bc10e40b86efc6fc,67e5d2dbd0530efe1b558c70,,,,,,,,,,,,,,,,,,,,,,No Brainslug Difficult 2 With Money,12,images/assets/snowy_money.jpg,learning,20,images/assets/success_money.jpg,images/assets/gameover.jpg,,,,,,,,,,,,,0,4,4,7,1,,,,,,,,,,,,,,,,,,,,,,,,,,,,,,,,
,,,,,,,,,,,,63d570d979c31656fece7c7d,001,3,2025-03-27_15h43.04.431,avatar_quest_3AFC_legacy,2022.1.3,Win32,59.17159763,63d570d979c31656fece7c7d,67e5c8c9bc10e40b86efc6fc,67e5d2dbd0530efe1b558c70,,,,,,,,,,,,,,,,,,,,,,No Brainslug No Barriers No Money,0,images/assets/snowy_original.jpg,learning,10,images/assets/success.jpg,images/assets/gameover.jpg,,,,,,,,,,,,,0,5,5,10,1,,,,,,,,,,,,,,,,,,,,,,,,,,,,,,,,
,,,,,,,,,,,,63d570d979c31656fece7c7d,001,3,2025-03-27_15h43.04.431,avatar_quest_3AFC_legacy,2022.1.3,Win32,59.17159763,63d570d979c31656fece7c7d,67e5c8c9bc10e40b86efc6fc,67e5d2dbd0530efe1b558c70,"[""left"",""right"",""right""]","[1.6271999999992772,2.5113999999985026,3.664199999999255]",,calibration,With Brainslug Difficult 2 With Money,14,7.98855,7.9968,2,3,0,FALSE,na,na,na,na,,,,,,,,,,,,,,,,,,,,,,,,,,,,,,,,,,0,0,0,0,1,,,,,,,,,,,,,,,,,,,,,,,
,,,,,,,,,,,,63d570d979c31656fece7c7d,001,3,2025-03-27_15h43.04.431,avatar_quest_3AFC_legacy,2022.1.3,Win32,59.17159763,63d570d979c31656fece7c7d,67e5c8c9bc10e40b86efc6fc,67e5d2dbd0530efe1b558c70,,,,,,,,,,,,,,,,,,,,,,With Brainslug Difficult 2 With Money,12,images/assets/snowy_money.jpg,learning,20,images/assets/success_money.jpg,images/assets/gameover.jpg,,,,,,,,,,,,,0,6,6,2,1,,,,,,,,,,,,,,,,,,,,,,,,,,,,,,,,
,,,,,,,,,,,,63d570d979c31656fece7c7d,001,3,2025-03-27_15h43.04.431,avatar_quest_3AFC_legacy,2022.1.3,Win32,59.17159763,63d570d979c31656fece7c7d,67e5c8c9bc10e40b86efc6fc,67e5d2dbd0530efe1b558c70,,,,,,,,,,,,,,,,,,,,,,With Brainslug Difficult 1 No Money,6,images/assets/snowy_original.jpg,learning,20,images/assets/success.jpg,images/assets/gameover.jpg,,,,,,,,,,,,,0,7,7,1,1,,,,,,,,,,,,,,,,,,,,,,,,,,,,,,,,
,,,,,,,,,,,,63d570d979c31656fece7c7d,001,3,2025-03-27_15h43.04.431,avatar_quest_3AFC_legacy,2022.1.3,Win32,59.17159763,63d570d979c31656fece7c7d,67e5c8c9bc10e40b86efc6fc,67e5d2dbd0530efe1b558c70,,,,,,,,,,,,,,,,,,,,,,With Brainslug No Barriers No Money,0,images/assets/snowy_original.jpg,learning,10,images/assets/success.jpg,images/assets/gameover.jpg,,,,,,,,,,,,,0,8,8,5,1,,,,,,,,,,,,,,,,,,,,,,,,,,,,,,,,
,,,,,,,,,,,,63d570d979c31656fece7c7d,001,3,2025-03-27_15h43.04.431,avatar_quest_3AFC_legacy,2022.1.3,Win32,59.17159763,63d570d979c31656fece7c7d,67e5c8c9bc10e40b86efc6fc,67e5d2dbd0530efe1b558c70,,,,,,,,,,,,,,,,,,,,,,With Brainslug Difficult 1 With Money,6,images/assets/snowy_money.jpg,learning,20,images/assets/success_money.jpg,images/assets/gameover.jpg,,,,,,,,,,,,,0,9,9,0,1,,,,,,,,,,,,,,,,,,,,,,,,,,,,,,,,
,,,,,,,,,,,,63d570d979c31656fece7c7d,001,3,2025-03-27_15h43.04.431,avatar_quest_3AFC_legacy,2022.1.3,Win32,59.17159763,63d570d979c31656fece7c7d,67e5c8c9bc10e40b86efc6fc,67e5d2dbd0530efe1b558c70,,,,,,,,,,,,,,,,,,,,,,No Brainslug Difficult 2 No Money,12,images/assets/snowy_original.jpg,learning,20,images/assets/success.jpg,images/assets/gameover.jpg,,,,,,,,,,,,,0,10,10,8,1,,,,,,,,,,,,,,,,,,,,,,,,,,,,,,,,
,,,,,,,,,,,,63d570d979c31656fece7c7d,001,3,2025-03-27_15h43.04.431,avatar_quest_3AFC_legacy,2022.1.3,Win32,59.17159763,63d570d979c31656fece7c7d,67e5c8c9bc10e40b86efc6fc,67e5d2dbd0530efe1b558c70,,,,,,,,,,,,,,,,,,,,,,,,,,,,,,,,,,,,,,,,,,,,,,,,,,,,,,,10,0,10,0,1,,,,,,,,,,,,,,,,,,
,,,,,,,,,,,,63d570d979c31656fece7c7d,001,3,2025-03-27_15h43.04.431,avatar_quest_3AFC_legacy,2022.1.3,Win32,59.17159763,63d570d979c31656fece7c7d,67e5c8c9bc10e40b86efc6fc,67e5d2dbd0530efe1b558c70,,,,,,,,,,,,,,,,,,,,,,With Brainslug No Barriers No Money,0,images/assets/snowy_original.jpg,learning,10,images/assets/success.jpg,images/assets/gameover.jpg,,,,,,,,With Brainslug Difficult 2 With Money,With Brainslug Difficult 1 No Money,right,0.718,"[""With Brainslug Difficult 1 No Money"",""With Brainslug Difficult 2 No Money""]",0,0,0,5,1,,,,,,,,,,,,,,,,,,,,,,,,,,,,,,,,
,,,,,,,,,,,,63d570d979c31656fece7c7d,001,3,2025-03-27_15h43.04.431,avatar_quest_3AFC_legacy,2022.1.3,Win32,59.17159763,63d570d979c31656fece7c7d,67e5c8c9bc10e40b86efc6fc,67e5d2dbd0530efe1b558c70,,,,,,,,,,,,,,,,,,,,,,No Brainslug No Barriers With Money,0,images/assets/snowy_money.jpg,learning,10,images/assets/success_money.jpg,images/assets/gameover.jpg,,,,,,,,,,,,,0,1,1,9,1,,,,,,,,,,,,,,,,,,,,,,,,,,,,,,,,
,,,,,,,,,,,,63d570d979c31656fece7c7d,001,3,2025-03-27_15h43.04.431,avatar_quest_3AFC_legacy,2022.1.3,Win32,59.17159763,63d570d979c31656fece7c7d,67e5c8c9bc10e40b86efc6fc,67e5d2dbd0530efe1b558c70,,,,,,,,,,,,,,,,,,,,,,No Brainslug Difficult 2 With Money,12,images/assets/snowy_money.jpg,learning,20,images/assets/success_money.jpg,images/assets/gameover.jpg,,,,,,,,,,,,,0,2,2,7,1,,,,,,,,,,,,,,,,,,,,,,,,,,,,,,,,
,,,,,,,,,,,,63d570d979c31656fece7c7d,001,3,2025-03-27_15h43.04.431,avatar_quest_3AFC_legacy,2022.1.3,Win32,59.17159763,63d570d979c31656fece7c7d,67e5c8c9bc10e40b86efc6fc,67e5d2dbd0530efe1b558c70,"[""left"",""right"",""left"",""right"",""right"",""right""]","[1.5264999999999986,2.4441000000014697,4.148100000001477,5.283199999999226,5.917400000002203,6.585300000000757]",,calibration,With Brainslug Difficult 2 With Money,15,7.98855,7.9898,3,5,0,FALSE,na,na,na,na,,,,,,,,,,,,,,,,,,,,,,,,,,,,,,,,,,0,0,0,0,1,,,,,,,,,,,,,,,,,,,,,,,
,,,,,,,,,,,,63d570d979c31656fece7c7d,001,3,2025-03-27_15h43.04.431,avatar_quest_3AFC_legacy,2022.1.3,Win32,59.17159763,63d570d979c31656fece7c7d,67e5c8c9bc10e40b86efc6fc,67e5d2dbd0530efe1b558c70,,,,,,,,,,,,,,,,,,,,,,With Brainslug Difficult 2 With Money,12,images/assets/snowy_money.jpg,learning,20,images/assets/success_money.jpg,images/assets/gameover.jpg,,,,,,,,,,,,,0,3,3,2,1,,,,,,,,,,,,,,,,,,,,,,,,,,,,,,,,
,,,,,,,,,,,,63d570d979c31656fece7c7d,001,3,2025-03-27_15h43.04.431,avatar_quest_3AFC_legacy,2022.1.3,Win32,59.17159763,63d570d979c31656fece7c7d,67e5c8c9bc10e40b86efc6fc,67e5d2dbd0530efe1b558c70,,,,,,,,,,,,,,,,,,,,,,With Brainslug No Barriers With Money,0,images/assets/snowy_money.jpg,learning,10,images/assets/success_money.jpg,images/assets/gameover.jpg,,,,,,,,,,,,,0,4,4,4,1,,,,,,,,,,,,,,,,,,,,,,,,,,,,,,,,
,,,,,,,,,,,,63d570d979c31656fece7c7d,001,3,2025-03-27_15h43.04.431,avatar_quest_3AFC_legacy,2022.1.3,Win32,59.17159763,63d570d979c31656fece7c7d,67e5c8c9bc10e40b86efc6fc,67e5d2dbd0530efe1b558c70,,,,,,,,,,,,,,,,,,,,,,With Brainslug Difficult 2 No Money,12,images/assets/snowy_original.jpg,learning,20,images/assets/success.jpg,images/assets/gameover.jpg,,,,,,,,,,,,,0,5,5,3,1,,,,,,,,,,,,,,,,,,,,,,,,,,,,,,,,
,,,,,,,,,,,,63d570d979c31656fece7c7d,001,3,2025-03-27_15h43.04.431,avatar_quest_3AFC_legacy,2022.1.3,Win32,59.17159763,63d570d979c31656fece7c7d,67e5c8c9bc10e40b86efc6fc,67e5d2dbd0530efe1b558c70,,,,,,,,,,,,,,,,,,,,,,No Brainslug No Barriers No Money,0,images/assets/snowy_original.jpg,learning,10,images/assets/success.jpg,images/assets/gameover.jpg,,,,,,,,,,,,,0,6,6,10,1,,,,,,,,,,,,,,,,,,,,,,,,,,,,,,,,
,,,,,,,,,,,,63d570d979c31656fece7c7d,001,3,2025-03-27_15h43.04.431,avatar_quest_3AFC_legacy,2022.1.3,Win32,59.17159763,63d570d979c31656fece7c7d,67e5c8c9bc10e40b86efc6fc,67e5d2dbd0530efe1b558c70,,,,,,,,,,,,,,,,,,,,,,No Brainslug Difficult 2 No Money,12,images/assets/snowy_original.jpg,learning,20,images/assets/success.jpg,images/assets/gameover.jpg,,,,,,,,,,,,,0,7,7,8,1,,,,,,,,,,,,,,,,,,,,,,,,,,,,,,,,
,,,,,,,,,,,,63d570d979c31656fece7c7d,001,3,2025-03-27_15h43.04.431,avatar_quest_3AFC_legacy,2022.1.3,Win32,59.17159763,63d570d979c31656fece7c7d,67e5c8c9bc10e40b86efc6fc,67e5d2dbd0530efe1b558c70,,,,,,,,,,,,,,,,,,,,,,With Brainslug Difficult 1 With Money,6,images/assets/snowy_money.jpg,learning,20,images/assets/success_money.jpg,images/assets/gameover.jpg,,,,,,,,,,,,,0,8,8,0,1,,,,,,,,,,,,,,,,,,,,,,,,,,,,,,,,
,,,,,,,,,,,,63d570d979c31656fece7c7d,001,3,2025-03-27_15h43.04.431,avatar_quest_3AFC_legacy,2022.1.3,Win32,59.17159763,63d570d979c31656fece7c7d,67e5c8c9bc10e40b86efc6fc,67e5d2dbd0530efe1b558c70,,,,,,,,,,,,,,,,,,,,,,With Brainslug Difficult 1 No Money,6,images/assets/snowy_original.jpg,learning,20,images/assets/success.jpg,images/assets/gameover.jpg,,,,,,,,,,,,,0,9,9,1,1,,,,,,,,,,,,,,,,,,,,,,,,,,,,,,,,
,,,,,,,,,,,,63d570d979c31656fece7c7d,001,3,2025-03-27_15h43.04.431,avatar_quest_3AFC_legacy,2022.1.3,Win32,59.17159763,63d570d979c31656fece7c7d,67e5c8c9bc10e40b86efc6fc,67e5d2dbd0530efe1b558c70,,,,,,,,,,,,,,,,,,,,,,No Brainslug Difficult 1 No Money,6,images/assets/snowy_original.jpg,learning,20,images/assets/success.jpg,images/assets/gameover.jpg,,,,,,,,,,,,,0,10,10,6,1,,,,,,,,,,,,,,,,,,,,,,,,,,,,,,,,
,,,,,,,,,,,,63d570d979c31656fece7c7d,001,3,2025-03-27_15h43.04.431,avatar_quest_3AFC_legacy,2022.1.3,Win32,59.17159763,63d570d979c31656fece7c7d,67e5c8c9bc10e40b86efc6fc,67e5d2dbd0530efe1b558c70,,,,,,,,,,,,,,,,,,,,,,,,,,,,,,,,,,,,,,,,,,,,,,,,,,,,,,,11,0,11,0,1,,,,,,,,,,,,,,,,,,
,,,,,,,,,,,,63d570d979c31656fece7c7d,001,3,2025-03-27_15h43.04.431,avatar_quest_3AFC_legacy,2022.1.3,Win32,59.17159763,63d570d979c31656fece7c7d,67e5c8c9bc10e40b86efc6fc,67e5d2dbd0530efe1b558c70,,,,,,,,,,,,,,,,,,,,,,,,,,,,,,,,,,,,,,,,,,,,,,,,,,,,,,,,,,,,0,0,0,0,1,1,With Brainslug Difficult 1 No Money,images/assets/With Brainslug Difficult 1 No Money.png,With Brainslug Difficult 2 No Money,images/assets/With Brainslug Difficult 2 No Money.png,With Brainslug Difficult 2 With Money,images/assets/With Brainslug Difficult 2 With Money.png,Achievement vs. money,,,,,
,,,,,,,,,,,,63d570d979c31656fece7c7d,001,3,2025-03-27_15h43.04.431,avatar_quest_3AFC_legacy,2022.1.3,Win32,59.17159763,63d570d979c31656fece7c7d,67e5c8c9bc10e40b86efc6fc,67e5d2dbd0530efe1b558c70,,,,,,,,,,,,,,,,,,,,,,No Brainslug No Barriers No Money,0,images/assets/snowy_original.jpg,learning,10,images/assets/success.jpg,images/assets/gameover.jpg,,,,,,,,No Brainslug No Barriers With Money,No Brainslug No Barriers No Money,right,0.9456,"[""No Brainslug No Barriers No Money"",""No Brainslug Difficult 1 No Money""]",0,0,0,10,1,,,,,,,,,,,,,,,,,,,,,,,,,,,,,,,,
,,,,,,,,,,,,63d570d979c31656fece7c7d,001,3,2025-03-27_15h43.04.431,avatar_quest_3AFC_legacy,2022.1.3,Win32,59.17159763,63d570d979c31656fece7c7d,67e5c8c9bc10e40b86efc6fc,67e5d2dbd0530efe1b558c70,"[""left""]",[4.150599999997723],,calibration,No Brainslug No Barriers With Money,16,6.39084,6.4062,1,0,81,FALSE,na,na,na,na,,,,,,,,,,,,,,,,,,,,,,,,,,,,,,,,,,0,0,0,0,1,,,,,,,,,,,,,,,,,,,,,,,
,,,,,,,,,,,,63d570d979c31656fece7c7d,001,3,2025-03-27_15h43.04.431,avatar_quest_3AFC_legacy,2022.1.3,Win32,59.17159763,63d570d979c31656fece7c7d,67e5c8c9bc10e40b86efc6fc,67e5d2dbd0530efe1b558c70,,,,,,,,,,,,,,,,,,,,,,No Brainslug No Barriers With Money,0,images/assets/snowy_money.jpg,learning,10,images/assets/success_money.jpg,images/assets/gameover.jpg,,,,,,,,,,,,,0,1,1,9,1,,,,,,,,,,,,,,,,,,,,,,,,,,,,,,,,
,,,,,,,,,,,,63d570d979c31656fece7c7d,001,3,2025-03-27_15h43.04.431,avatar_quest_3AFC_legacy,2022.1.3,Win32,59.17159763,63d570d979c31656fece7c7d,67e5c8c9bc10e40b86efc6fc,67e5d2dbd0530efe1b558c70,,,,,,,,,,,,,,,,,,,,,,With Brainslug No Barriers No Money,0,images/assets/snowy_original.jpg,learning,10,images/assets/success.jpg,images/assets/gameover.jpg,,,,,,,,,,,,,0,2,2,5,1,,,,,,,,,,,,,,,,,,,,,,,,,,,,,,,,
,,,,,,,,,,,,63d570d979c31656fece7c7d,001,3,2025-03-27_15h43.04.431,avatar_quest_3AFC_legacy,2022.1.3,Win32,59.17159763,63d570d979c31656fece7c7d,67e5c8c9bc10e40b86efc6fc,67e5d2dbd0530efe1b558c70,,,,,,,,,,,,,,,,,,,,,,With Brainslug Difficult 1 No Money,6,images/assets/snowy_original.jpg,learning,20,images/assets/success.jpg,images/assets/gameover.jpg,,,,,,,,,,,,,0,3,3,1,1,,,,,,,,,,,,,,,,,,,,,,,,,,,,,,,,
,,,,,,,,,,,,63d570d979c31656fece7c7d,001,3,2025-03-27_15h43.04.431,avatar_quest_3AFC_legacy,2022.1.3,Win32,59.17159763,63d570d979c31656fece7c7d,67e5c8c9bc10e40b86efc6fc,67e5d2dbd0530efe1b558c70,,,,,,,,,,,,,,,,,,,,,,With Brainslug Difficult 2 With Money,12,images/assets/snowy_money.jpg,learning,20,images/assets/success_money.jpg,images/assets/gameover.jpg,,,,,,,,,,,,,0,4,4,2,1,,,,,,,,,,,,,,,,,,,,,,,,,,,,,,,,
,,,,,,,,,,,,63d570d979c31656fece7c7d,001,3,2025-03-27_15h43.04.431,avatar_quest_3AFC_legacy,2022.1.3,Win32,59.17159763,63d570d979c31656fece7c7d,67e5c8c9bc10e40b86efc6fc,67e5d2dbd0530efe1b558c70,,,,,,,,,,,,,,,,,,,,,,No Brainslug Difficult 2 No Money,12,images/assets/snowy_original.jpg,learning,20,images/assets/success.jpg,images/assets/gameover.jpg,,,,,,,,,,,,,0,5,5,8,1,,,,,,,,,,,,,,,,,,,,,,,,,,,,,,,,
,,,,,,,,,,,,63d570d979c31656fece7c7d,001,3,2025-03-27_15h43.04.431,avatar_quest_3AFC_legacy,2022.1.3,Win32,59.17159763,63d570d979c31656fece7c7d,67e5c8c9bc10e40b86efc6fc,67e5d2dbd0530efe1b558c70,,,,,,,,,,,,,,,,,,,,,,With Brainslug Difficult 1 With Money,6,images/assets/snowy_money.jpg,learning,20,images/assets/success_money.jpg,images/assets/gameover.jpg,,,,,,,,,,,,,0,6,6,0,1,,,,,,,,,,,,,,,,,,,,,,,,,,,,,,,,
,,,,,,,,,,,,63d570d979c31656fece7c7d,001,3,2025-03-27_15h43.04.431,avatar_quest_3AFC_legacy,2022.1.3,Win32,59.17159763,63d570d979c31656fece7c7d,67e5c8c9bc10e40b86efc6fc,67e5d2dbd0530efe1b558c70,,,,,,,,,,,,,,,,,,,,,,No Brainslug Difficult 1 No Money,6,images/assets/snowy_original.jpg,learning,20,images/assets/success.jpg,images/assets/gameover.jpg,,,,,,,,,,,,,0,7,7,6,1,,,,,,,,,,,,,,,,,,,,,,,,,,,,,,,,
,,,,,,,,,,,,63d570d979c31656fece7c7d,001,3,2025-03-27_15h43.04.431,avatar_quest_3AFC_legacy,2022.1.3,Win32,59.17159763,63d570d979c31656fece7c7d,67e5c8c9bc10e40b86efc6fc,67e5d2dbd0530efe1b558c70,,,,,,,,,,,,,,,,,,,,,,With Brainslug Difficult 2 No Money,12,images/assets/snowy_original.jpg,learning,20,images/assets/success.jpg,images/assets/gameover.jpg,,,,,,,,,,,,,0,8,8,3,1,,,,,,,,,,,,,,,,,,,,,,,,,,,,,,,,
,,,,,,,,,,,,63d570d979c31656fece7c7d,001,3,2025-03-27_15h43.04.431,avatar_quest_3AFC_legacy,2022.1.3,Win32,59.17159763,63d570d979c31656fece7c7d,67e5c8c9bc10e40b86efc6fc,67e5d2dbd0530efe1b558c70,,,,,,,,,,,,,,,,,,,,,,No Brainslug Difficult 2 With Money,12,images/assets/snowy_money.jpg,learning,20,images/assets/success_money.jpg,images/assets/gameover.jpg,,,,,,,,,,,,,0,9,9,7,1,,,,,,,,,,,,,,,,,,,,,,,,,,,,,,,,
,,,,,,,,,,,,63d570d979c31656fece7c7d,001,3,2025-03-27_15h43.04.431,avatar_quest_3AFC_legacy,2022.1.3,Win32,59.17159763,63d570d979c31656fece7c7d,67e5c8c9bc10e40b86efc6fc,67e5d2dbd0530efe1b558c70,,,,,,,,,,,,,,,,,,,,,,With Brainslug No Barriers With Money,0,images/assets/snowy_money.jpg,learning,10,images/assets/success_money.jpg,images/assets/gameover.jpg,,,,,,,,,,,,,0,10,10,4,1,,,,,,,,,,,,,,,,,,,,,,,,,,,,,,,,
,,,,,,,,,,,,63d570d979c31656fece7c7d,001,3,2025-03-27_15h43.04.431,avatar_quest_3AFC_legacy,2022.1.3,Win32,59.17159763,63d570d979c31656fece7c7d,67e5c8c9bc10e40b86efc6fc,67e5d2dbd0530efe1b558c70,,,,,,,,,,,,,,,,,,,,,,,,,,,,,,,,,,,,,,,,,,,,,,,,,,,,,,,0,0,0,0,1,,,,,,,,,,,,,,,,,,
,,,,,,,,,,,,63d570d979c31656fece7c7d,001,3,2025-03-27_15h43.04.431,avatar_quest_3AFC_legacy,2022.1.3,Win32,59.17159763,63d570d979c31656fece7c7d,67e5c8c9bc10e40b86efc6fc,67e5d2dbd0530efe1b558c70,,,,,,,,,,,,,,,,,,,,,,With Brainslug Difficult 2 With Money,12,images/assets/snowy_money.jpg,learning,20,images/assets/success_money.jpg,images/assets/gameover.jpg,,,,,,,,No Brainslug Difficult 1 No Money,No Brainslug No Barriers No Money,down,4.621,"[""No Brainslug No Barriers No Money"",""No Brainslug No Barriers With Money""]",0,0,0,2,1,,,,,,,,,,,,,,,,,,,,,,,,,,,,,,,,
,,,,,,,,,,,,63d570d979c31656fece7c7d,001,3,2025-03-27_15h43.04.431,avatar_quest_3AFC_legacy,2022.1.3,Win32,59.17159763,63d570d979c31656fece7c7d,67e5c8c9bc10e40b86efc6fc,67e5d2dbd0530efe1b558c70,,,,,,,,,,,,,,,,,,,,,,No Brainslug No Barriers With Money,0,images/assets/snowy_money.jpg,learning,10,images/assets/success_money.jpg,images/assets/gameover.jpg,,,,,,,,,,,,,0,1,1,9,1,,,,,,,,,,,,,,,,,,,,,,,,,,,,,,,,
,,,,,,,,,,,,63d570d979c31656fece7c7d,001,3,2025-03-27_15h43.04.431,avatar_quest_3AFC_legacy,2022.1.3,Win32,59.17159763,63d570d979c31656fece7c7d,67e5c8c9bc10e40b86efc6fc,67e5d2dbd0530efe1b558c70,,,,,,,,,,,,,,,,,,,,,,No Brainslug No Barriers No Money,0,images/assets/snowy_original.jpg,learning,10,images/assets/success.jpg,images/assets/gameover.jpg,,,,,,,,,,,,,0,2,2,10,1,,,,,,,,,,,,,,,,,,,,,,,,,,,,,,,,
,,,,,,,,,,,,63d570d979c31656fece7c7d,001,3,2025-03-27_15h43.04.431,avatar_quest_3AFC_legacy,2022.1.3,Win32,59.17159763,63d570d979c31656fece7c7d,67e5c8c9bc10e40b86efc6fc,67e5d2dbd0530efe1b558c70,,,,,,,,,,,,,,,,,,,,,,With Brainslug Difficult 2 No Money,12,images/assets/snowy_original.jpg,learning,20,images/assets/success.jpg,images/assets/gameover.jpg,,,,,,,,,,,,,0,3,3,3,1,,,,,,,,,,,,,,,,,,,,,,,,,,,,,,,,
,,,,,,,,,,,,63d570d979c31656fece7c7d,001,3,2025-03-27_15h43.04.431,avatar_quest_3AFC_legacy,2022.1.3,Win32,59.17159763,63d570d979c31656fece7c7d,67e5c8c9bc10e40b86efc6fc,67e5d2dbd0530efe1b558c70,,,,,,,,,,,,,,,,,,,,,,With Brainslug No Barriers With Money,0,images/assets/snowy_money.jpg,learning,10,images/assets/success_money.jpg,images/assets/gameover.jpg,,,,,,,,,,,,,0,4,4,4,1,,,,,,,,,,,,,,,,,,,,,,,,,,,,,,,,
,,,,,,,,,,,,63d570d979c31656fece7c7d,001,3,2025-03-27_15h43.04.431,avatar_quest_3AFC_legacy,2022.1.3,Win32,59.17159763,63d570d979c31656fece7c7d,67e5c8c9bc10e40b86efc6fc,67e5d2dbd0530efe1b558c70,,,,,,,,,,,,,,,,,,,,,,With Brainslug No Barriers No Money,0,images/assets/snowy_original.jpg,learning,10,images/assets/success.jpg,images/assets/gameover.jpg,,,,,,,,,,,,,0,5,5,5,1,,,,,,,,,,,,,,,,,,,,,,,,,,,,,,,,
,,,,,,,,,,,,63d570d979c31656fece7c7d,001,3,2025-03-27_15h43.04.431,avatar_quest_3AFC_legacy,2022.1.3,Win32,59.17159763,63d570d979c31656fece7c7d,67e5c8c9bc10e40b86efc6fc,67e5d2dbd0530efe1b558c70,,,,,,,,,,,,,,,,,,,,,,No Brainslug Difficult 2 With Money,12,images/assets/snowy_money.jpg,learning,20,images/assets/success_money.jpg,images/assets/gameover.jpg,,,,,,,,,,,,,0,6,6,7,1,,,,,,,,,,,,,,,,,,,,,,,,,,,,,,,,
,,,,,,,,,,,,63d570d979c31656fece7c7d,001,3,2025-03-27_15h43.04.431,avatar_quest_3AFC_legacy,2022.1.3,Win32,59.17159763,63d570d979c31656fece7c7d,67e5c8c9bc10e40b86efc6fc,67e5d2dbd0530efe1b558c70,,,,,,,,,,,,,,,,,,,,,,With Brainslug Difficult 1 No Money,6,images/assets/snowy_original.jpg,learning,20,images/assets/success.jpg,images/assets/gameover.jpg,,,,,,,,,,,,,0,7,7,1,1,,,,,,,,,,,,,,,,,,,,,,,,,,,,,,,,
,,,,,,,,,,,,63d570d979c31656fece7c7d,001,3,2025-03-27_15h43.04.431,avatar_quest_3AFC_legacy,2022.1.3,Win32,59.17159763,63d570d979c31656fece7c7d,67e5c8c9bc10e40b86efc6fc,67e5d2dbd0530efe1b558c70,"[""left"",""right"",""left""]","[3.646000000000015,5.258099999997796,6.845199999999295]",,calibration,No Brainslug Difficult 1 No Money,17,7.98855,7.9957,3,4,0,FALSE,na,na,na,na,,,,,,,,,,,,,,,,,,,,,,,,,,,,,,,,,,0,0,0,0,1,,,,,,,,,,,,,,,,,,,,,,,
,,,,,,,,,,,,63d570d979c31656fece7c7d,001,3,2025-03-27_15h43.04.431,avatar_quest_3AFC_legacy,2022.1.3,Win32,59.17159763,63d570d979c31656fece7c7d,67e5c8c9bc10e40b86efc6fc,67e5d2dbd0530efe1b558c70,,,,,,,,,,,,,,,,,,,,,,No Brainslug Difficult 1 No Money,6,images/assets/snowy_original.jpg,learning,20,images/assets/success.jpg,images/assets/gameover.jpg,,,,,,,,,,,,,0,8,8,6,1,,,,,,,,,,,,,,,,,,,,,,,,,,,,,,,,
,,,,,,,,,,,,63d570d979c31656fece7c7d,001,3,2025-03-27_15h43.04.431,avatar_quest_3AFC_legacy,2022.1.3,Win32,59.17159763,63d570d979c31656fece7c7d,67e5c8c9bc10e40b86efc6fc,67e5d2dbd0530efe1b558c70,,,,,,,,,,,,,,,,,,,,,,No Brainslug Difficult 2 No Money,12,images/assets/snowy_original.jpg,learning,20,images/assets/success.jpg,images/assets/gameover.jpg,,,,,,,,,,,,,0,9,9,8,1,,,,,,,,,,,,,,,,,,,,,,,,,,,,,,,,
,,,,,,,,,,,,63d570d979c31656fece7c7d,001,3,2025-03-27_15h43.04.431,avatar_quest_3AFC_legacy,2022.1.3,Win32,59.17159763,63d570d979c31656fece7c7d,67e5c8c9bc10e40b86efc6fc,67e5d2dbd0530efe1b558c70,,,,,,,,,,,,,,,,,,,,,,With Brainslug Difficult 1 With Money,6,images/assets/snowy_money.jpg,learning,20,images/assets/success_money.jpg,images/assets/gameover.jpg,,,,,,,,,,,,,0,10,10,0,1,,,,,,,,,,,,,,,,,,,,,,,,,,,,,,,,
,,,,,,,,,,,,63d570d979c31656fece7c7d,001,3,2025-03-27_15h43.04.431,avatar_quest_3AFC_legacy,2022.1.3,Win32,59.17159763,63d570d979c31656fece7c7d,67e5c8c9bc10e40b86efc6fc,67e5d2dbd0530efe1b558c70,,,,,,,,,,,,,,,,,,,,,,,,,,,,,,,,,,,,,,,,,,,,,,,,,,,,,,,1,0,1,0,1,,,,,,,,,,,,,,,,,,
,,,,,,,,,,,,63d570d979c31656fece7c7d,001,3,2025-03-27_15h43.04.431,avatar_quest_3AFC_legacy,2022.1.3,Win32,59.17159763,63d570d979c31656fece7c7d,67e5c8c9bc10e40b86efc6fc,67e5d2dbd0530efe1b558c70,,,,,,,,,,,,,,,,,,,,,,With Brainslug No Barriers With Money,0,images/assets/snowy_money.jpg,learning,10,images/assets/success_money.jpg,images/assets/gameover.jpg,,,,,,,,No Brainslug No Barriers With Money,No Brainslug No Barriers No Money,right,4.3137,"[""No Brainslug No Barriers No Money"",""No Brainslug Difficult 1 No Money""]",0,0,0,4,1,,,,,,,,,,,,,,,,,,,,,,,,,,,,,,,,
,,,,,,,,,,,,63d570d979c31656fece7c7d,001,3,2025-03-27_15h43.04.431,avatar_quest_3AFC_legacy,2022.1.3,Win32,59.17159763,63d570d979c31656fece7c7d,67e5c8c9bc10e40b86efc6fc,67e5d2dbd0530efe1b558c70,,,,,,,,,,,,,,,,,,,,,,With Brainslug No Barriers No Money,0,images/assets/snowy_original.jpg,learning,10,images/assets/success.jpg,images/assets/gameover.jpg,,,,,,,,,,,,,0,1,1,5,1,,,,,,,,,,,,,,,,,,,,,,,,,,,,,,,,
,,,,,,,,,,,,63d570d979c31656fece7c7d,001,3,2025-03-27_15h43.04.431,avatar_quest_3AFC_legacy,2022.1.3,Win32,59.17159763,63d570d979c31656fece7c7d,67e5c8c9bc10e40b86efc6fc,67e5d2dbd0530efe1b558c70,,,,,,,,,,,,,,,,,,,,,,No Brainslug Difficult 2 With Money,12,images/assets/snowy_money.jpg,learning,20,images/assets/success_money.jpg,images/assets/gameover.jpg,,,,,,,,,,,,,0,2,2,7,1,,,,,,,,,,,,,,,,,,,,,,,,,,,,,,,,
,,,,,,,,,,,,63d570d979c31656fece7c7d,001,3,2025-03-27_15h43.04.431,avatar_quest_3AFC_legacy,2022.1.3,Win32,59.17159763,63d570d979c31656fece7c7d,67e5c8c9bc10e40b86efc6fc,67e5d2dbd0530efe1b558c70,,,,,,,,,,,,,,,,,,,,,,No Brainslug No Barriers No Money,0,images/assets/snowy_original.jpg,learning,10,images/assets/success.jpg,images/assets/gameover.jpg,,,,,,,,,,,,,0,3,3,10,1,,,,,,,,,,,,,,,,,,,,,,,,,,,,,,,,
,,,,,,,,,,,,63d570d979c31656fece7c7d,001,3,2025-03-27_15h43.04.431,avatar_quest_3AFC_legacy,2022.1.3,Win32,59.17159763,63d570d979c31656fece7c7d,67e5c8c9bc10e40b86efc6fc,67e5d2dbd0530efe1b558c70,,,,,,,,,,,,,,,,,,,,,,With Brainslug Difficult 2 With Money,12,images/assets/snowy_money.jpg,learning,20,images/assets/success_money.jpg,images/assets/gameover.jpg,,,,,,,,,,,,,0,4,4,2,1,,,,,,,,,,,,,,,,,,,,,,,,,,,,,,,,
,,,,,,,,,,,,63d570d979c31656fece7c7d,001,3,2025-03-27_15h43.04.431,avatar_quest_3AFC_legacy,2022.1.3,Win32,59.17159763,63d570d979c31656fece7c7d,67e5c8c9bc10e40b86efc6fc,67e5d2dbd0530efe1b558c70,,,,,,,,,,,,,,,,,,,,,,No Brainslug Difficult 1 No Money,6,images/assets/snowy_original.jpg,learning,20,images/assets/success.jpg,images/assets/gameover.jpg,,,,,,,,,,,,,0,5,5,6,1,,,,,,,,,,,,,,,,,,,,,,,,,,,,,,,,
,,,,,,,,,,,,63d570d979c31656fece7c7d,001,3,2025-03-27_15h43.04.431,avatar_quest_3AFC_legacy,2022.1.3,Win32,59.17159763,63d570d979c31656fece7c7d,67e5c8c9bc10e40b86efc6fc,67e5d2dbd0530efe1b558c70,,,,,,,,,,,,,,,,,,,,,,No Brainslug Difficult 2 No Money,12,images/assets/snowy_original.jpg,learning,20,images/assets/success.jpg,images/assets/gameover.jpg,,,,,,,,,,,,,0,6,6,8,1,,,,,,,,,,,,,,,,,,,,,,,,,,,,,,,,
,,,,,,,,,,,,63d570d979c31656fece7c7d,001,3,2025-03-27_15h43.04.431,avatar_quest_3AFC_legacy,2022.1.3,Win32,59.17159763,63d570d979c31656fece7c7d,67e5c8c9bc10e40b86efc6fc,67e5d2dbd0530efe1b558c70,,,,,,,,,,,,,,,,,,,,,,With Brainslug Difficult 1 With Money,6,images/assets/snowy_money.jpg,learning,20,images/assets/success_money.jpg,images/assets/gameover.jpg,,,,,,,,,,,,,0,7,7,0,1,,,,,,,,,,,,,,,,,,,,,,,,,,,,,,,,
,,,,,,,,,,,,63d570d979c31656fece7c7d,001,3,2025-03-27_15h43.04.431,avatar_quest_3AFC_legacy,2022.1.3,Win32,59.17159763,63d570d979c31656fece7c7d,67e5c8c9bc10e40b86efc6fc,67e5d2dbd0530efe1b558c70,,,,,,,,,,,,,,,,,,,,,,With Brainslug Difficult 2 No Money,12,images/assets/snowy_original.jpg,learning,20,images/assets/success.jpg,images/assets/gameover.jpg,,,,,,,,,,,,,0,8,8,3,1,,,,,,,,,,,,,,,,,,,,,,,,,,,,,,,,
,,,,,,,,,,,,63d570d979c31656fece7c7d,001,3,2025-03-27_15h43.04.431,avatar_quest_3AFC_legacy,2022.1.3,Win32,59.17159763,63d570d979c31656fece7c7d,67e5c8c9bc10e40b86efc6fc,67e5d2dbd0530efe1b558c70,,,,,,,,,,,,,,,,,,,,,,With Brainslug Difficult 1 No Money,6,images/assets/snowy_original.jpg,learning,20,images/assets/success.jpg,images/assets/gameover.jpg,,,,,,,,,,,,,0,9,9,1,1,,,,,,,,,,,,,,,,,,,,,,,,,,,,,,,,
,,,,,,,,,,,,63d570d979c31656fece7c7d,001,3,2025-03-27_15h43.04.431,avatar_quest_3AFC_legacy,2022.1.3,Win32,59.17159763,63d570d979c31656fece7c7d,67e5c8c9bc10e40b86efc6fc,67e5d2dbd0530efe1b558c70,"[""left""]",[1.8004999999999995],,calibration,No Brainslug No Barriers With Money,18,6.39084,5.2889,1,0,0,TRUE,na,na,na,na,,,,,,,,,,,,,,,,,,,,,,,,,,,,,,,,,,0,0,0,0,1,,,,,,,,,,,,,,,,,,,,,,,
,,,,,,,,,,,,63d570d979c31656fece7c7d,001,3,2025-03-27_15h43.04.431,avatar_quest_3AFC_legacy,2022.1.3,Win32,59.17159763,63d570d979c31656fece7c7d,67e5c8c9bc10e40b86efc6fc,67e5d2dbd0530efe1b558c70,,,,,,,,,,,,,,,,,,,,,,No Brainslug No Barriers With Money,0,images/assets/snowy_money.jpg,learning,10,images/assets/success_money.jpg,images/assets/gameover.jpg,,,,,,,,,,,,,0,10,10,9,1,,,,,,,,,,,,,,,,,,,,,,,,,,,,,,,,
,,,,,,,,,,,,63d570d979c31656fece7c7d,001,3,2025-03-27_15h43.04.431,avatar_quest_3AFC_legacy,2022.1.3,Win32,59.17159763,63d570d979c31656fece7c7d,67e5c8c9bc10e40b86efc6fc,67e5d2dbd0530efe1b558c70,,,,,,,,,,,,,,,,,,,,,,,,,,,,,,,,,,,,,,,,,,,,,,,,,,,,,,,2,0,2,0,1,,,,,,,,,,,,,,,,,,
,,,,,,,,,,,,63d570d979c31656fece7c7d,001,3,2025-03-27_15h43.04.431,avatar_quest_3AFC_legacy,2022.1.3,Win32,59.17159763,63d570d979c31656fece7c7d,67e5c8c9bc10e40b86efc6fc,67e5d2dbd0530efe1b558c70,,,,,,,,,,,,,,,,,,,,,,With Brainslug Difficult 2 No Money,12,images/assets/snowy_original.jpg,learning,20,images/assets/success.jpg,images/assets/gameover.jpg,,,,,,,,No Brainslug No Barriers With Money,No Brainslug No Barriers No Money,right,1.587,"[""No Brainslug No Barriers No Money"",""No Brainslug Difficult 1 No Money""]",0,0,0,3,1,,,,,,,,,,,,,,,,,,,,,,,,,,,,,,,,
,,,,,,,,,,,,63d570d979c31656fece7c7d,001,3,2025-03-27_15h43.04.431,avatar_quest_3AFC_legacy,2022.1.3,Win32,59.17159763,63d570d979c31656fece7c7d,67e5c8c9bc10e40b86efc6fc,67e5d2dbd0530efe1b558c70,,,,,,,,,,,,,,,,,,,,,,With Brainslug Difficult 1 No Money,6,images/assets/snowy_original.jpg,learning,20,images/assets/success.jpg,images/assets/gameover.jpg,,,,,,,,,,,,,0,1,1,1,1,,,,,,,,,,,,,,,,,,,,,,,,,,,,,,,,
,,,,,,,,,,,,63d570d979c31656fece7c7d,001,3,2025-03-27_15h43.04.431,avatar_quest_3AFC_legacy,2022.1.3,Win32,59.17159763,63d570d979c31656fece7c7d,67e5c8c9bc10e40b86efc6fc,67e5d2dbd0530efe1b558c70,,,,,,,,,,,,,,,,,,,,,,No Brainslug Difficult 2 With Money,12,images/assets/snowy_money.jpg,learning,20,images/assets/success_money.jpg,images/assets/gameover.jpg,,,,,,,,,,,,,0,2,2,7,1,,,,,,,,,,,,,,,,,,,,,,,,,,,,,,,,
,,,,,,,,,,,,63d570d979c31656fece7c7d,001,3,2025-03-27_15h43.04.431,avatar_quest_3AFC_legacy,2022.1.3,Win32,59.17159763,63d570d979c31656fece7c7d,67e5c8c9bc10e40b86efc6fc,67e5d2dbd0530efe1b558c70,,,,,,,,,,,,,,,,,,,,,,With Brainslug No Barriers With Money,0,images/assets/snowy_money.jpg,learning,10,images/assets/success_money.jpg,images/assets/gameover.jpg,,,,,,,,,,,,,0,3,3,4,1,,,,,,,,,,,,,,,,,,,,,,,,,,,,,,,,
,,,,,,,,,,,,63d570d979c31656fece7c7d,001,3,2025-03-27_15h43.04.431,avatar_quest_3AFC_legacy,2022.1.3,Win32,59.17159763,63d570d979c31656fece7c7d,67e5c8c9bc10e40b86efc6fc,67e5d2dbd0530efe1b558c70,,,,,,,,,,,,,,,,,,,,,,No Brainslug Difficult 2 No Money,12,images/assets/snowy_original.jpg,learning,20,images/assets/success.jpg,images/assets/gameover.jpg,,,,,,,,,,,,,0,4,4,8,1,,,,,,,,,,,,,,,,,,,,,,,,,,,,,,,,
,,,,,,,,,,,,63d570d979c31656fece7c7d,001,3,2025-03-27_15h43.04.431,avatar_quest_3AFC_legacy,2022.1.3,Win32,59.17159763,63d570d979c31656fece7c7d,67e5c8c9bc10e40b86efc6fc,67e5d2dbd0530efe1b558c70,,,,,,,,,,,,,,,,,,,,,,With Brainslug Difficult 2 With Money,12,images/assets/snowy_money.jpg,learning,20,images/assets/success_money.jpg,images/assets/gameover.jpg,,,,,,,,,,,,,0,5,5,2,1,,,,,,,,,,,,,,,,,,,,,,,,,,,,,,,,
,,,,,,,,,,,,63d570d979c31656fece7c7d,001,3,2025-03-27_15h43.04.431,avatar_quest_3AFC_legacy,2022.1.3,Win32,59.17159763,63d570d979c31656fece7c7d,67e5c8c9bc10e40b86efc6fc,67e5d2dbd0530efe1b558c70,,,,,,,,,,,,,,,,,,,,,,With Brainslug No Barriers No Money,0,images/assets/snowy_original.jpg,learning,10,images/assets/success.jpg,images/assets/gameover.jpg,,,,,,,,,,,,,0,6,6,5,1,,,,,,,,,,,,,,,,,,,,,,,,,,,,,,,,
,,,,,,,,,,,,63d570d979c31656fece7c7d,001,3,2025-03-27_15h43.04.431,avatar_quest_3AFC_legacy,2022.1.3,Win32,59.17159763,63d570d979c31656fece7c7d,67e5c8c9bc10e40b86efc6fc,67e5d2dbd0530efe1b558c70,,,,,,,,,,,,,,,,,,,,,,With Brainslug Difficult 1 With Money,6,images/assets/snowy_money.jpg,learning,20,images/assets/success_money.jpg,images/assets/gameover.jpg,,,,,,,,,,,,,0,7,7,0,1,,,,,,,,,,,,,,,,,,,,,,,,,,,,,,,,
,,,,,,,,,,,,63d570d979c31656fece7c7d,001,3,2025-03-27_15h43.04.431,avatar_quest_3AFC_legacy,2022.1.3,Win32,59.17159763,63d570d979c31656fece7c7d,67e5c8c9bc10e40b86efc6fc,67e5d2dbd0530efe1b558c70,,,,,,,,,,,,,,,,,,,,,,No Brainslug Difficult 1 No Money,6,images/assets/snowy_original.jpg,learning,20,images/assets/success.jpg,images/assets/gameover.jpg,,,,,,,,,,,,,0,8,8,6,1,,,,,,,,,,,,,,,,,,,,,,,,,,,,,,,,
,,,,,,,,,,,,63d570d979c31656fece7c7d,001,3,2025-03-27_15h43.04.431,avatar_quest_3AFC_legacy,2022.1.3,Win32,59.17159763,63d570d979c31656fece7c7d,67e5c8c9bc10e40b86efc6fc,67e5d2dbd0530efe1b558c70,"[""left""]",[1.3036999999992531],,calibration,No Brainslug No Barriers With Money,19,6.39084,5.3294,1,0,0,TRUE,na,na,na,na,,,,,,,,,,,,,,,,,,,,,,,,,,,,,,,,,,0,0,0,0,1,,,,,,,,,,,,,,,,,,,,,,,
,,,,,,,,,,,,63d570d979c31656fece7c7d,001,3,2025-03-27_15h43.04.431,avatar_quest_3AFC_legacy,2022.1.3,Win32,59.17159763,63d570d979c31656fece7c7d,67e5c8c9bc10e40b86efc6fc,67e5d2dbd0530efe1b558c70,,,,,,,,,,,,,,,,,,,,,,No Brainslug No Barriers With Money,0,images/assets/snowy_money.jpg,learning,10,images/assets/success_money.jpg,images/assets/gameover.jpg,,,,,,,,,,,,,0,9,9,9,1,,,,,,,,,,,,,,,,,,,,,,,,,,,,,,,,
,,,,,,,,,,,,63d570d979c31656fece7c7d,001,3,2025-03-27_15h43.04.431,avatar_quest_3AFC_legacy,2022.1.3,Win32,59.17159763,63d570d979c31656fece7c7d,67e5c8c9bc10e40b86efc6fc,67e5d2dbd0530efe1b558c70,,,,,,,,,,,,,,,,,,,,,,No Brainslug No Barriers No Money,0,images/assets/snowy_original.jpg,learning,10,images/assets/success.jpg,images/assets/gameover.jpg,,,,,,,,,,,,,0,10,10,10,1,,,,,,,,,,,,,,,,,,,,,,,,,,,,,,,,
,,,,,,,,,,,,63d570d979c31656fece7c7d,001,3,2025-03-27_15h43.04.431,avatar_quest_3AFC_legacy,2022.1.3,Win32,59.17159763,63d570d979c31656fece7c7d,67e5c8c9bc10e40b86efc6fc,67e5d2dbd0530efe1b558c70,,,,,,,,,,,,,,,,,,,,,,,,,,,,,,,,,,,,,,,,,,,,,,,,,,,,,,,3,0,3,0,1,,,,,,,,,,,,,,,,,,
,,,,,,,,,,,,63d570d979c31656fece7c7d,001,3,2025-03-27_15h43.04.431,avatar_quest_3AFC_legacy,2022.1.3,Win32,59.17159763,63d570d979c31656fece7c7d,67e5c8c9bc10e40b86efc6fc,67e5d2dbd0530efe1b558c70,,,,,,,,,,,,,,,,,,,,,,No Brainslug No Barriers No Money,0,images/assets/snowy_original.jpg,learning,10,images/assets/success.jpg,images/assets/gameover.jpg,,,,,,,,No Brainslug No Barriers With Money,No Brainslug No Barriers No Money,right,1.1168,"[""No Brainslug No Barriers No Money"",""No Brainslug Difficult 1 No Money""]",0,0,0,10,1,,,,,,,,,,,,,,,,,,,,,,,,,,,,,,,,
,,,,,,,,,,,,63d570d979c31656fece7c7d,001,3,2025-03-27_15h43.04.431,avatar_quest_3AFC_legacy,2022.1.3,Win32,59.17159763,63d570d979c31656fece7c7d,67e5c8c9bc10e40b86efc6fc,67e5d2dbd0530efe1b558c70,,,,,,,,,,,,,,,,,,,,,,No Brainslug Difficult 1 No Money,6,images/assets/snowy_original.jpg,learning,20,images/assets/success.jpg,images/assets/gameover.jpg,,,,,,,,,,,,,0,1,1,6,1,,,,,,,,,,,,,,,,,,,,,,,,,,,,,,,,
,,,,,,,,,,,,63d570d979c31656fece7c7d,001,3,2025-03-27_15h43.04.431,avatar_quest_3AFC_legacy,2022.1.3,Win32,59.17159763,63d570d979c31656fece7c7d,67e5c8c9bc10e40b86efc6fc,67e5d2dbd0530efe1b558c70,,,,,,,,,,,,,,,,,,,,,,With Brainslug Difficult 2 No Money,12,images/assets/snowy_original.jpg,learning,20,images/assets/success.jpg,images/assets/gameover.jpg,,,,,,,,,,,,,0,2,2,3,1,,,,,,,,,,,,,,,,,,,,,,,,,,,,,,,,
,,,,,,,,,,,,63d570d979c31656fece7c7d,001,3,2025-03-27_15h43.04.431,avatar_quest_3AFC_legacy,2022.1.3,Win32,59.17159763,63d570d979c31656fece7c7d,67e5c8c9bc10e40b86efc6fc,67e5d2dbd0530efe1b558c70,,,,,,,,,,,,,,,,,,,,,,No Brainslug Difficult 2 No Money,12,images/assets/snowy_original.jpg,learning,20,images/assets/success.jpg,images/assets/gameover.jpg,,,,,,,,,,,,,0,3,3,8,1,,,,,,,,,,,,,,,,,,,,,,,,,,,,,,,,
,,,,,,,,,,,,63d570d979c31656fece7c7d,001,3,2025-03-27_15h43.04.431,avatar_quest_3AFC_legacy,2022.1.3,Win32,59.17159763,63d570d979c31656fece7c7d,67e5c8c9bc10e40b86efc6fc,67e5d2dbd0530efe1b558c70,,,,,,,,,,,,,,,,,,,,,,With Brainslug Difficult 1 With Money,6,images/assets/snowy_money.jpg,learning,20,images/assets/success_money.jpg,images/assets/gameover.jpg,,,,,,,,,,,,,0,4,4,0,1,,,,,,,,,,,,,,,,,,,,,,,,,,,,,,,,
,,,,,,,,,,,,63d570d979c31656fece7c7d,001,3,2025-03-27_15h43.04.431,avatar_quest_3AFC_legacy,2022.1.3,Win32,59.17159763,63d570d979c31656fece7c7d,67e5c8c9bc10e40b86efc6fc,67e5d2dbd0530efe1b558c70,,,,,,,,,,,,,,,,,,,,,,With Brainslug Difficult 1 No Money,6,images/assets/snowy_original.jpg,learning,20,images/assets/success.jpg,images/assets/gameover.jpg,,,,,,,,,,,,,0,5,5,1,1,,,,,,,,,,,,,,,,,,,,,,,,,,,,,,,,
,,,,,,,,,,,,63d570d979c31656fece7c7d,001,3,2025-03-27_15h43.04.431,avatar_quest_3AFC_legacy,2022.1.3,Win32,59.17159763,63d570d979c31656fece7c7d,67e5c8c9bc10e40b86efc6fc,67e5d2dbd0530efe1b558c70,"[""left""]",[1.3181999999992513],,calibration,No Brainslug No Barriers With Money,20,6.39084,5.2899,1,0,0,TRUE,na,na,na,na,,,,,,,,,,,,,,,,,,,,,,,,,,,,,,,,,,0,0,0,0,1,,,,,,,,,,,,,,,,,,,,,,,
,,,,,,,,,,,,63d570d979c31656fece7c7d,001,3,2025-03-27_15h43.04.431,avatar_quest_3AFC_legacy,2022.1.3,Win32,59.17159763,63d570d979c31656fece7c7d,67e5c8c9bc10e40b86efc6fc,67e5d2dbd0530efe1b558c70,,,,,,,,,,,,,,,,,,,,,,No Brainslug No Barriers With Money,0,images/assets/snowy_money.jpg,learning,10,images/assets/success_money.jpg,images/assets/gameover.jpg,,,,,,,,,,,,,0,6,6,9,1,,,,,,,,,,,,,,,,,,,,,,,,,,,,,,,,
,,,,,,,,,,,,63d570d979c31656fece7c7d,001,3,2025-03-27_15h43.04.431,avatar_quest_3AFC_legacy,2022.1.3,Win32,59.17159763,63d570d979c31656fece7c7d,67e5c8c9bc10e40b86efc6fc,67e5d2dbd0530efe1b558c70,,,,,,,,,,,,,,,,,,,,,,With Brainslug No Barriers With Money,0,images/assets/snowy_money.jpg,learning,10,images/assets/success_money.jpg,images/assets/gameover.jpg,,,,,,,,,,,,,0,7,7,4,1,,,,,,,,,,,,,,,,,,,,,,,,,,,,,,,,
,,,,,,,,,,,,63d570d979c31656fece7c7d,001,3,2025-03-27_15h43.04.431,avatar_quest_3AFC_legacy,2022.1.3,Win32,59.17159763,63d570d979c31656fece7c7d,67e5c8c9bc10e40b86efc6fc,67e5d2dbd0530efe1b558c70,,,,,,,,,,,,,,,,,,,,,,No Brainslug Difficult 2 With Money,12,images/assets/snowy_money.jpg,learning,20,images/assets/success_money.jpg,images/assets/gameover.jpg,,,,,,,,,,,,,0,8,8,7,1,,,,,,,,,,,,,,,,,,,,,,,,,,,,,,,,
,,,,,,,,,,,,63d570d979c31656fece7c7d,001,3,2025-03-27_15h43.04.431,avatar_quest_3AFC_legacy,2022.1.3,Win32,59.17159763,63d570d979c31656fece7c7d,67e5c8c9bc10e40b86efc6fc,67e5d2dbd0530efe1b558c70,,,,,,,,,,,,,,,,,,,,,,With Brainslug Difficult 2 With Money,12,images/assets/snowy_money.jpg,learning,20,images/assets/success_money.jpg,images/assets/gameover.jpg,,,,,,,,,,,,,0,9,9,2,1,,,,,,,,,,,,,,,,,,,,,,,,,,,,,,,,
,,,,,,,,,,,,63d570d979c31656fece7c7d,001,3,2025-03-27_15h43.04.431,avatar_quest_3AFC_legacy,2022.1.3,Win32,59.17159763,63d570d979c31656fece7c7d,67e5c8c9bc10e40b86efc6fc,67e5d2dbd0530efe1b558c70,,,,,,,,,,,,,,,,,,,,,,With Brainslug No Barriers No Money,0,images/assets/snowy_original.jpg,learning,10,images/assets/success.jpg,images/assets/gameover.jpg,,,,,,,,,,,,,0,10,10,5,1,,,,,,,,,,,,,,,,,,,,,,,,,,,,,,,,
,,,,,,,,,,,,63d570d979c31656fece7c7d,001,3,2025-03-27_15h43.04.431,avatar_quest_3AFC_legacy,2022.1.3,Win32,59.17159763,63d570d979c31656fece7c7d,67e5c8c9bc10e40b86efc6fc,67e5d2dbd0530efe1b558c70,,,,,,,,,,,,,,,,,,,,,,,,,,,,,,,,,,,,,,,,,,,,,,,,,,,,,,,4,0,4,0,1,,,,,,,,,,,,,,,,,,
,,,,,,,,,,,,63d570d979c31656fece7c7d,001,3,2025-03-27_15h43.04.431,avatar_quest_3AFC_legacy,2022.1.3,Win32,59.17159763,63d570d979c31656fece7c7d,67e5c8c9bc10e40b86efc6fc,67e5d2dbd0530efe1b558c70,,,,,,,,,,,,,,,,,,,,,,With Brainslug Difficult 2 With Money,12,images/assets/snowy_money.jpg,learning,20,images/assets/success_money.jpg,images/assets/gameover.jpg,,,,,,,,No Brainslug No Barriers With Money,No Brainslug No Barriers No Money,right,1.151,"[""No Brainslug No Barriers No Money"",""No Brainslug Difficult 1 No Money""]",0,0,0,2,1,,,,,,,,,,,,,,,,,,,,,,,,,,,,,,,,
,,,,,,,,,,,,63d570d979c31656fece7c7d,001,3,2025-03-27_15h43.04.431,avatar_quest_3AFC_legacy,2022.1.3,Win32,59.17159763,63d570d979c31656fece7c7d,67e5c8c9bc10e40b86efc6fc,67e5d2dbd0530efe1b558c70,,,,,,,,,,,,,,,,,,,,,,No Brainslug Difficult 1 No Money,6,images/assets/snowy_original.jpg,learning,20,images/assets/success.jpg,images/assets/gameover.jpg,,,,,,,,,,,,,0,1,1,6,1,,,,,,,,,,,,,,,,,,,,,,,,,,,,,,,,
,,,,,,,,,,,,63d570d979c31656fece7c7d,001,3,2025-03-27_15h43.04.431,avatar_quest_3AFC_legacy,2022.1.3,Win32,59.17159763,63d570d979c31656fece7c7d,67e5c8c9bc10e40b86efc6fc,67e5d2dbd0530efe1b558c70,,,,,,,,,,,,,,,,,,,,,,With Brainslug No Barriers No Money,0,images/assets/snowy_original.jpg,learning,10,images/assets/success.jpg,images/assets/gameover.jpg,,,,,,,,,,,,,0,2,2,5,1,,,,,,,,,,,,,,,,,,,,,,,,,,,,,,,,
