instruction_mouse.x,instruction_mouse.y,instruction_mouse.leftButton,instruction_mouse.midButton,instruction_mouse.rightButton,instruction_mouse.clicked_name,introduce_general.thisRepN,introduce_general.thisTrialN,introduce_general.thisN,introduce_general.thisIndex,introduce_general.ran,thisInstruction,participant,session,game version,date,expName,psychopyVersion,OS,frameRate,PROLIFIC PID,STUDY ID,SESSION ID,move_resp.keys,move_resp.rt,end_resp.keys,phase,condition,trial_num,time_limit,completion_time,left_right_steps,number_of_obsticle_blocks,number_of_tree_blocks,quest_complete,responsivity_summary,av_inter_brainslug_intervals,proportion_jitter,jitter_direction_proportion_right,calibration_phase.thisRepN,calibration_phase.thisTrialN,calibration_phase.thisN,calibration_phase.thisIndex,calibration_phase.ran,BlockLabel,nObsticles,backgroundImage,phaseLabel,n_side_steps,success_im,gameover_im,success_condition,introduce_learning_or_choice.thisRepN,introduce_learning_or_choice.thisTrialN,introduce_learning_or_choice.thisN,introduce_learning_or_choice.thisIndex,introduce_learning_or_choice.ran,choice_resp.keys,chosen_quest,unchosen_quest,choice_resp_3afc.keys,choice_resp_3afc.rt,unchosen_quests,forced_choice_trial.thisRepN,forced_choice_trial.thisTrialN,forced_choice_trial.thisN,forced_choice_trial.thisIndex,forced_choice_trial.ran,enjoyment_slider.response,enjoyment_slider.rt,effort_slider.response,effort_slider.rt,show_loop2.thisRepN,show_loop2.thisTrialN,show_loop2.thisN,show_loop2.thisIndex,show_loop2.ran,trials_per_block.thisRepN,trials_per_block.thisTrialN,trials_per_block.thisN,trials_per_block.thisIndex,trials_per_block.ran,decision_phase_AFC.thisRepN,decision_phase_AFC.thisTrialN,decision_phase_AFC.thisN,decision_phase_AFC.thisIndex,decision_phase_AFC.ran,blockN,BlockLabel1,questIm1,BlockLabel2,questIm2,BlockLabel3,questIm3,quest_condition,showForcedChoice.thisRepN,showForcedChoice.thisTrialN,showForcedChoice.thisN,showForcedChoice.thisIndex,showForcedChoice.ran
0.44537037,-0.387037037,1,0,0,instruction_button,0,0,0,0,1,images/instructions_part1_LSM_taskversion1/Slide1.JPG,63dd3dd2593c92be97d8dbde,001,3,2025-04-15_06h06.25.173,avatar_quest_3AFC_legacy,2022.1.3,Win32,59.88023952,63dd3dd2593c92be97d8dbde,67fe37cb3bd870bba73819bd,67fe58c2afe44b41795eec52,,,,,,,,,,,,,,,,,,,,,,,,,,,,,,,,,,,,,,,,,,,,,,,,,,,,,,,,,,,,,,,,,,,,,,,,,,,,,
0.375925926,-0.409259259,1,0,0,instruction_button,0,1,1,1,1,images/instructions_part1_LSM_taskversion1/Slide2.JPG,63dd3dd2593c92be97d8dbde,001,3,2025-04-15_06h06.25.173,avatar_quest_3AFC_legacy,2022.1.3,Win32,59.88023952,63dd3dd2593c92be97d8dbde,67fe37cb3bd870bba73819bd,67fe58c2afe44b41795eec52,,,,,,,,,,,,,,,,,,,,,,,,,,,,,,,,,,,,,,,,,,,,,,,,,,,,,,,,,,,,,,,,,,,,,,,,,,,,,
0.375925926,-0.390740741,1,0,0,instruction_button,0,2,2,2,1,images/instructions_part1_LSM_taskversion1/Slide3.JPG,63dd3dd2593c92be97d8dbde,001,3,2025-04-15_06h06.25.173,avatar_quest_3AFC_legacy,2022.1.3,Win32,59.88023952,63dd3dd2593c92be97d8dbde,67fe37cb3bd870bba73819bd,67fe58c2afe44b41795eec52,,,,,,,,,,,,,,,,,,,,,,,,,,,,,,,,,,,,,,,,,,,,,,,,,,,,,,,,,,,,,,,,,,,,,,,,,,,,,
0.387037037,-0.397222222,1,0,0,instruction_button,0,3,3,3,1,images/instructions_part1_LSM_taskversion1/Slide3.5.JPG,63dd3dd2593c92be97d8dbde,001,3,2025-04-15_06h06.25.173,avatar_quest_3AFC_legacy,2022.1.3,Win32,59.88023952,63dd3dd2593c92be97d8dbde,67fe37cb3bd870bba73819bd,67fe58c2afe44b41795eec52,,,,,,,,,,,,,,,,,,,,,,,,,,,,,,,,,,,,,,,,,,,,,,,,,,,,,,,,,,,,,,,,,,,,,,,,,,,,,
0.387037037,-0.397222222,1,0,0,instruction_button,0,4,4,4,1,images/instructions_part1_LSM_taskversion1/Slide4.JPG,63dd3dd2593c92be97d8dbde,001,3,2025-04-15_06h06.25.173,avatar_quest_3AFC_legacy,2022.1.3,Win32,59.88023952,63dd3dd2593c92be97d8dbde,67fe37cb3bd870bba73819bd,67fe58c2afe44b41795eec52,,,,,,,,,,,,,,,,,,,,,,,,,,,,,,,,,,,,,,,,,,,,,,,,,,,,,,,,,,,,,,,,,,,,,,,,,,,,,
0.401851852,-0.398148148,1,0,0,instruction_button,0,5,5,5,1,images/instructions_part1_LSM_taskversion1/Slide6.5.JPG,63dd3dd2593c92be97d8dbde,001,3,2025-04-15_06h06.25.173,avatar_quest_3AFC_legacy,2022.1.3,Win32,59.88023952,63dd3dd2593c92be97d8dbde,67fe37cb3bd870bba73819bd,67fe58c2afe44b41795eec52,,,,,,,,,,,,,,,,,,,,,,,,,,,,,,,,,,,,,,,,,,,,,,,,,,,,,,,,,,,,,,,,,,,,,,,,,,,,,
,,,,,,,,,,,,63dd3dd2593c92be97d8dbde,001,3,2025-04-15_06h06.25.173,avatar_quest_3AFC_legacy,2022.1.3,Win32,59.88023952,63dd3dd2593c92be97d8dbde,67fe37cb3bd870bba73819bd,67fe58c2afe44b41795eec52,"[""right"",""left"",""left"",""left"",""left"",""right"",""right"",""right"",""right"",""right"",""right"",""right"",""left"",""right"",""right"",""right""]","[0.7040999999642281,2.3873999999761395,2.8918999999761468,3.1875,3.491500000000002,3.6861999999880766,3.886199999988065,4.103199999988078,4.269599999964214,4.491800000011921,4.703499999999991,6.243800000011902,6.804000000000002,7.307899999976144,7.555899999976134,7.804099999964222]",,calibration,No Brainslug No Barriers No Money,1,100,7.96,11,0,160,TRUE,na,na,na,na,0,0,0,2,1,No Brainslug No Barriers No Money,0,images/assets/snowy_original.jpg,calibration,10,images/assets/success.jpg,images/assets/gameover.jpg,never,,,,,,,,,,,,,,,,,,,,,,,,,,,,,,,,,,,,,,,,,,,,,,,,
,,,,,,,,,,,,63dd3dd2593c92be97d8dbde,001,3,2025-04-15_06h06.25.173,avatar_quest_3AFC_legacy,2022.1.3,Win32,59.88023952,63dd3dd2593c92be97d8dbde,67fe37cb3bd870bba73819bd,67fe58c2afe44b41795eec52,"[""right"",""left"",""left"",""left"",""right"",""right"",""right"",""right"",""right"",""right"",""right"",""right"",""left"",""right"",""right"",""right""]","[0.11760000002385596,2.1410000000000196,2.6211000000238585,2.967000000000013,3.573300000011926,3.9733999999761522,4.233800000011939,4.417000000000002,4.573499999999996,4.805499999999995,6.96780000001192,7.284399999976159,7.368300000011942,7.934800000011933,8.174199999988076,8.373899999976175]",,calibration,No Brainslug No Barriers No Money,2,100,8.5317,9,0,188,TRUE,na,na,na,na,0,1,1,1,1,No Brainslug No Barriers No Money,0,images/assets/snowy_original.jpg,calibration,10,images/assets/success.jpg,images/assets/gameover.jpg,never,,,,,,,,,,,,,,,,,,,,,,,,,,,,,,,,,,,,,,,,,,,,,,,,
,,,,,,,,,,,,63dd3dd2593c92be97d8dbde,001,3,2025-04-15_06h06.25.173,avatar_quest_3AFC_legacy,2022.1.3,Win32,59.88023952,63dd3dd2593c92be97d8dbde,67fe37cb3bd870bba73819bd,67fe58c2afe44b41795eec52,"[""right"",""left"",""left"",""left"",""right"",""right"",""right"",""right"",""right""]","[0.03999999999999204,2.0883000000119125,2.7207000000476853,3.1171000000238394,4.056800000011918,4.384400000035754,4.58470000004769,4.808700000047679,5.008900000035766]",,calibration,No Brainslug No Barriers No Money,3,100,5.4655,7,0,0,TRUE,na,na,na,na,0,2,2,0,1,No Brainslug No Barriers No Money,0,images/assets/snowy_original.jpg,calibration,10,images/assets/success.jpg,images/assets/gameover.jpg,never,,,,,,,,,,,,,,,,,,,,,,,,,,,,,,,,,,,,,,,,,,,,,,,,
0.418518519,-0.412037037,1,0,0,instruction_button,,,,,,images/instructions_part2_LSM_taskversion3.jpg,63dd3dd2593c92be97d8dbde,001,3,2025-04-15_06h06.25.173,avatar_quest_3AFC_legacy,2022.1.3,Win32,59.88023952,63dd3dd2593c92be97d8dbde,67fe37cb3bd870bba73819bd,67fe58c2afe44b41795eec52,,,,,,,,,,,,,,,,,,,,,,,,,,,,,,0,0,0,0,1,,,,,,,,,,,,,,,,,,,,,,,,,,,,,,,,,,,,,,,,,,,
,,,,,,,,,,,,63dd3dd2593c92be97d8dbde,001,3,2025-04-15_06h06.25.173,avatar_quest_3AFC_legacy,2022.1.3,Win32,59.88023952,63dd3dd2593c92be97d8dbde,67fe37cb3bd870bba73819bd,67fe58c2afe44b41795eec52,,,,,,,,,,,,,,,,,,,,,,With Brainslug Difficult 1 No Money,6,images/assets/snowy_original.jpg,learning,20,images/assets/success.jpg,images/assets/gameover.jpg,,,,,,,,With Brainslug Difficult 2 With Money,With Brainslug Difficult 1 No Money,right,1.8015,"[""With Brainslug Difficult 1 No Money"",""With Brainslug Difficult 2 No Money""]",0,0,0,1,1,,,,,,,,,,,,,,,,,,,,,,,,,,,,,,,,
,,,,,,,,,,,,63dd3dd2593c92be97d8dbde,001,3,2025-04-15_06h06.25.173,avatar_quest_3AFC_legacy,2022.1.3,Win32,59.88023952,63dd3dd2593c92be97d8dbde,67fe37cb3bd870bba73819bd,67fe58c2afe44b41795eec52,,,,,,,,,,,,,,,,,,,,,,With Brainslug No Barriers No Money,0,images/assets/snowy_original.jpg,learning,10,images/assets/success.jpg,images/assets/gameover.jpg,,,,,,,,,,,,,0,1,1,5,1,,,,,,,,,,,,,,,,,,,,,,,,,,,,,,,,
,,,,,,,,,,,,63dd3dd2593c92be97d8dbde,001,3,2025-04-15_06h06.25.173,avatar_quest_3AFC_legacy,2022.1.3,Win32,59.88023952,63dd3dd2593c92be97d8dbde,67fe37cb3bd870bba73819bd,67fe58c2afe44b41795eec52,,,,,,,,,,,,,,,,,,,,,,No Brainslug Difficult 1 No Money,6,images/assets/snowy_original.jpg,learning,20,images/assets/success.jpg,images/assets/gameover.jpg,,,,,,,,,,,,,0,2,2,6,1,,,,,,,,,,,,,,,,,,,,,,,,,,,,,,,,
,,,,,,,,,,,,63dd3dd2593c92be97d8dbde,001,3,2025-04-15_06h06.25.173,avatar_quest_3AFC_legacy,2022.1.3,Win32,59.88023952,63dd3dd2593c92be97d8dbde,67fe37cb3bd870bba73819bd,67fe58c2afe44b41795eec52,,,,,,,,,,,,,,,,,,,,,,With Brainslug Difficult 2 No Money,12,images/assets/snowy_original.jpg,learning,20,images/assets/success.jpg,images/assets/gameover.jpg,,,,,,,,,,,,,0,3,3,3,1,,,,,,,,,,,,,,,,,,,,,,,,,,,,,,,,
,,,,,,,,,,,,63dd3dd2593c92be97d8dbde,001,3,2025-04-15_06h06.25.173,avatar_quest_3AFC_legacy,2022.1.3,Win32,59.88023952,63dd3dd2593c92be97d8dbde,67fe37cb3bd870bba73819bd,67fe58c2afe44b41795eec52,,,,,,,,,,,,,,,,,,,,,,No Brainslug Difficult 2 No Money,12,images/assets/snowy_original.jpg,learning,20,images/assets/success.jpg,images/assets/gameover.jpg,,,,,,,,,,,,,0,4,4,8,1,,,,,,,,,,,,,,,,,,,,,,,,,,,,,,,,
,,,,,,,,,,,,63dd3dd2593c92be97d8dbde,001,3,2025-04-15_06h06.25.173,avatar_quest_3AFC_legacy,2022.1.3,Win32,59.88023952,63dd3dd2593c92be97d8dbde,67fe37cb3bd870bba73819bd,67fe58c2afe44b41795eec52,,,,,,,,,,,,,,,,,,,,,,With Brainslug No Barriers With Money,0,images/assets/snowy_money.jpg,learning,10,images/assets/success_money.jpg,images/assets/gameover.jpg,,,,,,,,,,,,,0,5,5,4,1,,,,,,,,,,,,,,,,,,,,,,,,,,,,,,,,
,,,,,,,,,,,,63dd3dd2593c92be97d8dbde,001,3,2025-04-15_06h06.25.173,avatar_quest_3AFC_legacy,2022.1.3,Win32,59.88023952,63dd3dd2593c92be97d8dbde,67fe37cb3bd870bba73819bd,67fe58c2afe44b41795eec52,"[""right"",""right"",""left"",""left"",""right"",""left"",""left"",""left"",""right"",""right"",""left"",""left"",""left"",""left"",""left"",""left"",""left"",""left"",""right"",""right"",""right"",""right"",""right"",""left"",""right"",""right"",""right"",""right"",""right"",""left""]","[0.8125999999642772,1.1955999999642586,1.528899999976204,2.295799999952351,3.1462999999523618,3.6627999999523126,4.129699999988077,4.529399999976192,5.130199999988122,5.329399999976204,5.72959999996425,6.029799999952331,6.196399999976165,6.396399999976211,6.679799999952365,6.846500000000049,7.080099999964261,7.296500000000037,7.6466999999881295,8.012899999976185,8.296399999976188,8.446500000000015,8.662799999952313,9.14669999998813,9.596000000000004,9.863,10.013099999964254,10.2296999999881,10.412899999976162,10.662899999976162]",,calibration,With Brainslug Difficult 2 With Money,4,10.9786,10.9892,14,9,0,FALSE,na,na,na,na,,,,,,,,,,,,,,,,,,,,,,,,,,,,,,,,,,0,0,0,0,1,,,,,,,,,,,,,,,,,,,,,,,
,,,,,,,,,,,,63dd3dd2593c92be97d8dbde,001,3,2025-04-15_06h06.25.173,avatar_quest_3AFC_legacy,2022.1.3,Win32,59.88023952,63dd3dd2593c92be97d8dbde,67fe37cb3bd870bba73819bd,67fe58c2afe44b41795eec52,,,,,,,,,,,,,,,,,,,,,,With Brainslug Difficult 2 With Money,12,images/assets/snowy_money.jpg,learning,20,images/assets/success_money.jpg,images/assets/gameover.jpg,,,,,,,,,,,,,0,6,6,2,1,,,,,,,,,,,,,,,,,,,,,,,,,,,,,,,,
,,,,,,,,,,,,63dd3dd2593c92be97d8dbde,001,3,2025-04-15_06h06.25.173,avatar_quest_3AFC_legacy,2022.1.3,Win32,59.88023952,63dd3dd2593c92be97d8dbde,67fe37cb3bd870bba73819bd,67fe58c2afe44b41795eec52,,,,,,,,,,,,,,,,,,,,,,With Brainslug Difficult 1 With Money,6,images/assets/snowy_money.jpg,learning,20,images/assets/success_money.jpg,images/assets/gameover.jpg,,,,,,,,,,,,,0,7,7,0,1,,,,,,,,,,,,,,,,,,,,,,,,,,,,,,,,
,,,,,,,,,,,,63dd3dd2593c92be97d8dbde,001,3,2025-04-15_06h06.25.173,avatar_quest_3AFC_legacy,2022.1.3,Win32,59.88023952,63dd3dd2593c92be97d8dbde,67fe37cb3bd870bba73819bd,67fe58c2afe44b41795eec52,,,,,,,,,,,,,,,,,,,,,,No Brainslug Difficult 2 With Money,12,images/assets/snowy_money.jpg,learning,20,images/assets/success_money.jpg,images/assets/gameover.jpg,,,,,,,,,,,,,0,8,8,7,1,,,,,,,,,,,,,,,,,,,,,,,,,,,,,,,,
,,,,,,,,,,,,63dd3dd2593c92be97d8dbde,001,3,2025-04-15_06h06.25.173,avatar_quest_3AFC_legacy,2022.1.3,Win32,59.88023952,63dd3dd2593c92be97d8dbde,67fe37cb3bd870bba73819bd,67fe58c2afe44b41795eec52,,,,,,,,,,,,,,,,,,,,,,No Brainslug No Barriers No Money,0,images/assets/snowy_original.jpg,learning,10,images/assets/success.jpg,images/assets/gameover.jpg,,,,,,,,,,,,,0,9,9,10,1,,,,,,,,,,,,,,,,,,,,,,,,,,,,,,,,
,,,,,,,,,,,,63dd3dd2593c92be97d8dbde,001,3,2025-04-15_06h06.25.173,avatar_quest_3AFC_legacy,2022.1.3,Win32,59.88023952,63dd3dd2593c92be97d8dbde,67fe37cb3bd870bba73819bd,67fe58c2afe44b41795eec52,,,,,,,,,,,,,,,,,,,,,,No Brainslug No Barriers With Money,0,images/assets/snowy_money.jpg,learning,10,images/assets/success_money.jpg,images/assets/gameover.jpg,,,,,,,,,,,,,0,10,10,9,1,,,,,,,,,,,,,,,,,,,,,,,,,,,,,,,,
,,,,,,,,,,,,63dd3dd2593c92be97d8dbde,001,3,2025-04-15_06h06.25.173,avatar_quest_3AFC_legacy,2022.1.3,Win32,59.88023952,63dd3dd2593c92be97d8dbde,67fe37cb3bd870bba73819bd,67fe58c2afe44b41795eec52,,,,,,,,,,,,,,,,,,,,,,,,,,,,,,,,,,,,,,,,,,,,,,,,,,,,,,,0,0,0,0,1,,,,,,,,,,,,,,,,,,
,,,,,,,,,,,,63dd3dd2593c92be97d8dbde,001,3,2025-04-15_06h06.25.173,avatar_quest_3AFC_legacy,2022.1.3,Win32,59.88023952,63dd3dd2593c92be97d8dbde,67fe37cb3bd870bba73819bd,67fe58c2afe44b41795eec52,,,,,,,,,,,,,,,,,,,,,,With Brainslug Difficult 1 No Money,6,images/assets/snowy_original.jpg,learning,20,images/assets/success.jpg,images/assets/gameover.jpg,,,,,,,,With Brainslug Difficult 2 With Money,With Brainslug Difficult 1 No Money,right,1.136,"[""With Brainslug Difficult 1 No Money"",""With Brainslug Difficult 2 No Money""]",0,0,0,1,1,,,,,,,,,,,,,,,,,,,,,,,,,,,,,,,,
,,,,,,,,,,,,63dd3dd2593c92be97d8dbde,001,3,2025-04-15_06h06.25.173,avatar_quest_3AFC_legacy,2022.1.3,Win32,59.88023952,63dd3dd2593c92be97d8dbde,67fe37cb3bd870bba73819bd,67fe58c2afe44b41795eec52,,,,,,,,,,,,,,,,,,,,,,No Brainslug Difficult 2 With Money,12,images/assets/snowy_money.jpg,learning,20,images/assets/success_money.jpg,images/assets/gameover.jpg,,,,,,,,,,,,,0,1,1,7,1,,,,,,,,,,,,,,,,,,,,,,,,,,,,,,,,
,,,,,,,,,,,,63dd3dd2593c92be97d8dbde,001,3,2025-04-15_06h06.25.173,avatar_quest_3AFC_legacy,2022.1.3,Win32,59.88023952,63dd3dd2593c92be97d8dbde,67fe37cb3bd870bba73819bd,67fe58c2afe44b41795eec52,,,,,,,,,,,,,,,,,,,,,,No Brainslug Difficult 2 No Money,12,images/assets/snowy_original.jpg,learning,20,images/assets/success.jpg,images/assets/gameover.jpg,,,,,,,,,,,,,0,2,2,8,1,,,,,,,,,,,,,,,,,,,,,,,,,,,,,,,,
,,,,,,,,,,,,63dd3dd2593c92be97d8dbde,001,3,2025-04-15_06h06.25.173,avatar_quest_3AFC_legacy,2022.1.3,Win32,59.88023952,63dd3dd2593c92be97d8dbde,67fe37cb3bd870bba73819bd,67fe58c2afe44b41795eec52,,,,,,,,,,,,,,,,,,,,,,With Brainslug Difficult 2 No Money,12,images/assets/snowy_original.jpg,learning,20,images/assets/success.jpg,images/assets/gameover.jpg,,,,,,,,,,,,,0,3,3,3,1,,,,,,,,,,,,,,,,,,,,,,,,,,,,,,,,
,,,,,,,,,,,,63dd3dd2593c92be97d8dbde,001,3,2025-04-15_06h06.25.173,avatar_quest_3AFC_legacy,2022.1.3,Win32,59.88023952,63dd3dd2593c92be97d8dbde,67fe37cb3bd870bba73819bd,67fe58c2afe44b41795eec52,"[""right"",""right"",""left"",""left"",""left"",""right"",""right"",""right"",""left"",""left"",""left"",""left"",""right"",""right"",""right"",""right"",""left"",""left"",""left"",""right"",""right"",""left"",""left"",""right"",""right"",""left"",""left"",""left"",""left"",""right"",""right""]","[0.3562999999523413,0.5262999999523004,1.2248999999761736,1.490000000000009,1.6275999999642181,2.059799999952304,2.1886999999881027,2.32469999998807,2.506899999976156,2.6903999999761936,2.843500000000006,3.023099999964245,3.573299999952326,3.7579999999999814,3.843899999976145,4.023399999976164,4.188899999976172,4.3738999999761745,4.541499999999985,4.847399999976176,5.0246999999881155,5.123799999952325,5.340099999964252,5.786099999964222,5.97389999997614,6.3891999999880795,6.5906999999880895,6.8419999999999845,7.008799999952316,7.59050000000002,7.828199999988101]",,calibration,With Brainslug Difficult 2 With Money,5,10.9786,8.2503,16,9,0,TRUE,na,na,na,na,,,,,,,,,,,,,,,,,,,,,,,,,,,,,,,,,,0,0,0,0,1,,,,,,,,,,,,,,,,,,,,,,,
,,,,,,,,,,,,63dd3dd2593c92be97d8dbde,001,3,2025-04-15_06h06.25.173,avatar_quest_3AFC_legacy,2022.1.3,Win32,59.88023952,63dd3dd2593c92be97d8dbde,67fe37cb3bd870bba73819bd,67fe58c2afe44b41795eec52,,,,,,,,,,,,,,,,,,,,,,With Brainslug Difficult 2 With Money,12,images/assets/snowy_money.jpg,learning,20,images/assets/success_money.jpg,images/assets/gameover.jpg,,,,,,,,,,,,,0,4,4,2,1,,,,,,,,,,,,,,,,,,,,,,,,,,,,,,,,
,,,,,,,,,,,,63dd3dd2593c92be97d8dbde,001,3,2025-04-15_06h06.25.173,avatar_quest_3AFC_legacy,2022.1.3,Win32,59.88023952,63dd3dd2593c92be97d8dbde,67fe37cb3bd870bba73819bd,67fe58c2afe44b41795eec52,,,,,,,,,,,,,,,,,,,,,,With Brainslug No Barriers With Money,0,images/assets/snowy_money.jpg,learning,10,images/assets/success_money.jpg,images/assets/gameover.jpg,,,,,,,,,,,,,0,5,5,4,1,,,,,,,,,,,,,,,,,,,,,,,,,,,,,,,,
,,,,,,,,,,,,63dd3dd2593c92be97d8dbde,001,3,2025-04-15_06h06.25.173,avatar_quest_3AFC_legacy,2022.1.3,Win32,59.88023952,63dd3dd2593c92be97d8dbde,67fe37cb3bd870bba73819bd,67fe58c2afe44b41795eec52,,,,,,,,,,,,,,,,,,,,,,With Brainslug Difficult 1 With Money,6,images/assets/snowy_money.jpg,learning,20,images/assets/success_money.jpg,images/assets/gameover.jpg,,,,,,,,,,,,,0,6,6,0,1,,,,,,,,,,,,,,,,,,,,,,,,,,,,,,,,
,,,,,,,,,,,,63dd3dd2593c92be97d8dbde,001,3,2025-04-15_06h06.25.173,avatar_quest_3AFC_legacy,2022.1.3,Win32,59.88023952,63dd3dd2593c92be97d8dbde,67fe37cb3bd870bba73819bd,67fe58c2afe44b41795eec52,,,,,,,,,,,,,,,,,,,,,,No Brainslug Difficult 1 No Money,6,images/assets/snowy_original.jpg,learning,20,images/assets/success.jpg,images/assets/gameover.jpg,,,,,,,,,,,,,0,7,7,6,1,,,,,,,,,,,,,,,,,,,,,,,,,,,,,,,,
,,,,,,,,,,,,63dd3dd2593c92be97d8dbde,001,3,2025-04-15_06h06.25.173,avatar_quest_3AFC_legacy,2022.1.3,Win32,59.88023952,63dd3dd2593c92be97d8dbde,67fe37cb3bd870bba73819bd,67fe58c2afe44b41795eec52,,,,,,,,,,,,,,,,,,,,,,No Brainslug No Barriers No Money,0,images/assets/snowy_original.jpg,learning,10,images/assets/success.jpg,images/assets/gameover.jpg,,,,,,,,,,,,,0,8,8,10,1,,,,,,,,,,,,,,,,,,,,,,,,,,,,,,,,
,,,,,,,,,,,,63dd3dd2593c92be97d8dbde,001,3,2025-04-15_06h06.25.173,avatar_quest_3AFC_legacy,2022.1.3,Win32,59.88023952,63dd3dd2593c92be97d8dbde,67fe37cb3bd870bba73819bd,67fe58c2afe44b41795eec52,,,,,,,,,,,,,,,,,,,,,,With Brainslug No Barriers No Money,0,images/assets/snowy_original.jpg,learning,10,images/assets/success.jpg,images/assets/gameover.jpg,,,,,,,,,,,,,0,9,9,5,1,,,,,,,,,,,,,,,,,,,,,,,,,,,,,,,,
,,,,,,,,,,,,63dd3dd2593c92be97d8dbde,001,3,2025-04-15_06h06.25.173,avatar_quest_3AFC_legacy,2022.1.3,Win32,59.88023952,63dd3dd2593c92be97d8dbde,67fe37cb3bd870bba73819bd,67fe58c2afe44b41795eec52,,,,,,,,,,,,,,,,,,,,,,No Brainslug No Barriers With Money,0,images/assets/snowy_money.jpg,learning,10,images/assets/success_money.jpg,images/assets/gameover.jpg,,,,,,,,,,,,,0,10,10,9,1,,,,,,,,,,,,,,,,,,,,,,,,,,,,,,,,
,,,,,,,,,,,,63dd3dd2593c92be97d8dbde,001,3,2025-04-15_06h06.25.173,avatar_quest_3AFC_legacy,2022.1.3,Win32,59.88023952,63dd3dd2593c92be97d8dbde,67fe37cb3bd870bba73819bd,67fe58c2afe44b41795eec52,,,,,,,,,,,,,,,,,,,,,,,,,,,,,,,,,,,,,,,,,,,,,,,,,,,,,,,1,0,1,0,1,,,,,,,,,,,,,,,,,,
,,,,,,,,,,,,63dd3dd2593c92be97d8dbde,001,3,2025-04-15_06h06.25.173,avatar_quest_3AFC_legacy,2022.1.3,Win32,59.88023952,63dd3dd2593c92be97d8dbde,67fe37cb3bd870bba73819bd,67fe58c2afe44b41795eec52,,,,,,,,,,,,,,,,,,,,,,With Brainslug Difficult 1 No Money,6,images/assets/snowy_original.jpg,learning,20,images/assets/success.jpg,images/assets/gameover.jpg,,,,,,,,With Brainslug Difficult 2 With Money,With Brainslug Difficult 1 No Money,right,1.4465,"[""With Brainslug Difficult 1 No Money"",""With Brainslug Difficult 2 No Money""]",0,0,0,1,1,,,,,,,,,,,,,,,,,,,,,,,,,,,,,,,,
,,,,,,,,,,,,63dd3dd2593c92be97d8dbde,001,3,2025-04-15_06h06.25.173,avatar_quest_3AFC_legacy,2022.1.3,Win32,59.88023952,63dd3dd2593c92be97d8dbde,67fe37cb3bd870bba73819bd,67fe58c2afe44b41795eec52,"[""right"",""right"",""right"",""right"",""right"",""right"",""right"",""right"",""right"",""right"",""right"",""right"",""right"",""right"",""right"",""right"",""left"",""down"",""left"",""left"",""left"",""left"",""left"",""right"",""right"",""right"",""left"",""left"",""left"",""right"",""right"",""right"",""right"",""right"",""right"",""right"",""right"",""left"",""left"",""right"",""right"",""left"",""right"",""left"",""left"",""left"",""right"",""right"",""right"",""right"",""right"",""right"",""right"",""left"",""left""]","[0.06269999998806952,0.22980000001189183,0.41280000001188455,0.5296999999880541,0.6964999999999577,0.8136000000238255,0.9631000000238146,1.0629999999999882,1.1964000000357373,1.3469000000357596,1.4634000000357332,1.6629000000357337,1.7959999999999923,2.029800000011903,2.196300000011888,2.3464000000357146,2.480199999988031,2.480400000035729,2.6466999999880727,2.7966000000238296,2.979900000035741,3.1466000000237955,3.430499999999995,3.712699999988047,4.163400000035722,4.329900000035764,4.413400000035722,4.580499999999972,4.746999999999957,4.813800000011895,4.963900000035721,5.113400000035767,5.329900000035764,5.713499999999954,5.8799999999999955,6.013100000023826,6.196300000011888,6.29660000002383,6.513100000023826,6.729900000035741,6.8966000000237955,7.013600000023814,7.17999999999995,7.2843000000119105,7.42990000003573,7.629900000035718,7.696600000023807,7.92990000003573,8.213199999988035,9.030300000011891,9.296900000035748,9.446800000011876,9.613800000011906,9.830300000011903,10.013900000035733]",,calibration,With Brainslug Difficult 2 With Money,6,10.9786,10.4733,19,7,0,TRUE,na,na,na,na,,,,,,,,,,,,,,,,,,,,,,,,,,,,,,,,,,0,0,0,0,1,,,,,,,,,,,,,,,,,,,,,,,
,,,,,,,,,,,,63dd3dd2593c92be97d8dbde,001,3,2025-04-15_06h06.25.173,avatar_quest_3AFC_legacy,2022.1.3,Win32,59.88023952,63dd3dd2593c92be97d8dbde,67fe37cb3bd870bba73819bd,67fe58c2afe44b41795eec52,,,,,,,,,,,,,,,,,,,,,,With Brainslug Difficult 2 With Money,12,images/assets/snowy_money.jpg,learning,20,images/assets/success_money.jpg,images/assets/gameover.jpg,,,,,,,,,,,,,0,1,1,2,1,,,,,,,,,,,,,,,,,,,,,,,,,,,,,,,,
,,,,,,,,,,,,63dd3dd2593c92be97d8dbde,001,3,2025-04-15_06h06.25.173,avatar_quest_3AFC_legacy,2022.1.3,Win32,59.88023952,63dd3dd2593c92be97d8dbde,67fe37cb3bd870bba73819bd,67fe58c2afe44b41795eec52,,,,,,,,,,,,,,,,,,,,,,No Brainslug No Barriers With Money,0,images/assets/snowy_money.jpg,learning,10,images/assets/success_money.jpg,images/assets/gameover.jpg,,,,,,,,,,,,,0,2,2,9,1,,,,,,,,,,,,,,,,,,,,,,,,,,,,,,,,
,,,,,,,,,,,,63dd3dd2593c92be97d8dbde,001,3,2025-04-15_06h06.25.173,avatar_quest_3AFC_legacy,2022.1.3,Win32,59.88023952,63dd3dd2593c92be97d8dbde,67fe37cb3bd870bba73819bd,67fe58c2afe44b41795eec52,,,,,,,,,,,,,,,,,,,,,,No Brainslug Difficult 2 No Money,12,images/assets/snowy_original.jpg,learning,20,images/assets/success.jpg,images/assets/gameover.jpg,,,,,,,,,,,,,0,3,3,8,1,,,,,,,,,,,,,,,,,,,,,,,,,,,,,,,,
,,,,,,,,,,,,63dd3dd2593c92be97d8dbde,001,3,2025-04-15_06h06.25.173,avatar_quest_3AFC_legacy,2022.1.3,Win32,59.88023952,63dd3dd2593c92be97d8dbde,67fe37cb3bd870bba73819bd,67fe58c2afe44b41795eec52,,,,,,,,,,,,,,,,,,,,,,No Brainslug Difficult 1 No Money,6,images/assets/snowy_original.jpg,learning,20,images/assets/success.jpg,images/assets/gameover.jpg,,,,,,,,,,,,,0,4,4,6,1,,,,,,,,,,,,,,,,,,,,,,,,,,,,,,,,
,,,,,,,,,,,,63dd3dd2593c92be97d8dbde,001,3,2025-04-15_06h06.25.173,avatar_quest_3AFC_legacy,2022.1.3,Win32,59.88023952,63dd3dd2593c92be97d8dbde,67fe37cb3bd870bba73819bd,67fe58c2afe44b41795eec52,,,,,,,,,,,,,,,,,,,,,,No Brainslug Difficult 2 With Money,12,images/assets/snowy_money.jpg,learning,20,images/assets/success_money.jpg,images/assets/gameover.jpg,,,,,,,,,,,,,0,5,5,7,1,,,,,,,,,,,,,,,,,,,,,,,,,,,,,,,,
,,,,,,,,,,,,63dd3dd2593c92be97d8dbde,001,3,2025-04-15_06h06.25.173,avatar_quest_3AFC_legacy,2022.1.3,Win32,59.88023952,63dd3dd2593c92be97d8dbde,67fe37cb3bd870bba73819bd,67fe58c2afe44b41795eec52,,,,,,,,,,,,,,,,,,,,,,With Brainslug No Barriers No Money,0,images/assets/snowy_original.jpg,learning,10,images/assets/success.jpg,images/assets/gameover.jpg,,,,,,,,,,,,,0,6,6,5,1,,,,,,,,,,,,,,,,,,,,,,,,,,,,,,,,
,,,,,,,,,,,,63dd3dd2593c92be97d8dbde,001,3,2025-04-15_06h06.25.173,avatar_quest_3AFC_legacy,2022.1.3,Win32,59.88023952,63dd3dd2593c92be97d8dbde,67fe37cb3bd870bba73819bd,67fe58c2afe44b41795eec52,,,,,,,,,,,,,,,,,,,,,,With Brainslug No Barriers With Money,0,images/assets/snowy_money.jpg,learning,10,images/assets/success_money.jpg,images/assets/gameover.jpg,,,,,,,,,,,,,0,7,7,4,1,,,,,,,,,,,,,,,,,,,,,,,,,,,,,,,,
,,,,,,,,,,,,63dd3dd2593c92be97d8dbde,001,3,2025-04-15_06h06.25.173,avatar_quest_3AFC_legacy,2022.1.3,Win32,59.88023952,63dd3dd2593c92be97d8dbde,67fe37cb3bd870bba73819bd,67fe58c2afe44b41795eec52,,,,,,,,,,,,,,,,,,,,,,With Brainslug Difficult 1 With Money,6,images/assets/snowy_money.jpg,learning,20,images/assets/success_money.jpg,images/assets/gameover.jpg,,,,,,,,,,,,,0,8,8,0,1,,,,,,,,,,,,,,,,,,,,,,,,,,,,,,,,
,,,,,,,,,,,,63dd3dd2593c92be97d8dbde,001,3,2025-04-15_06h06.25.173,avatar_quest_3AFC_legacy,2022.1.3,Win32,59.88023952,63dd3dd2593c92be97d8dbde,67fe37cb3bd870bba73819bd,67fe58c2afe44b41795eec52,,,,,,,,,,,,,,,,,,,,,,With Brainslug Difficult 2 No Money,12,images/assets/snowy_original.jpg,learning,20,images/assets/success.jpg,images/assets/gameover.jpg,,,,,,,,,,,,,0,9,9,3,1,,,,,,,,,,,,,,,,,,,,,,,,,,,,,,,,
,,,,,,,,,,,,63dd3dd2593c92be97d8dbde,001,3,2025-04-15_06h06.25.173,avatar_quest_3AFC_legacy,2022.1.3,Win32,59.88023952,63dd3dd2593c92be97d8dbde,67fe37cb3bd870bba73819bd,67fe58c2afe44b41795eec52,,,,,,,,,,,,,,,,,,,,,,No Brainslug No Barriers No Money,0,images/assets/snowy_original.jpg,learning,10,images/assets/success.jpg,images/assets/gameover.jpg,,,,,,,,,,,,,0,10,10,10,1,,,,,,,,,,,,,,,,,,,,,,,,,,,,,,,,
,,,,,,,,,,,,63dd3dd2593c92be97d8dbde,001,3,2025-04-15_06h06.25.173,avatar_quest_3AFC_legacy,2022.1.3,Win32,59.88023952,63dd3dd2593c92be97d8dbde,67fe37cb3bd870bba73819bd,67fe58c2afe44b41795eec52,,,,,,,,,,,,,,,,,,,,,,,,,,,,,,,,,,,,,,,,,,,,,,,,,,,,,,,2,0,2,0,1,,,,,,,,,,,,,,,,,,
,,,,,,,,,,,,63dd3dd2593c92be97d8dbde,001,3,2025-04-15_06h06.25.173,avatar_quest_3AFC_legacy,2022.1.3,Win32,59.88023952,63dd3dd2593c92be97d8dbde,67fe37cb3bd870bba73819bd,67fe58c2afe44b41795eec52,,,,,,,,,,,,,,,,,,,,,,No Brainslug No Barriers No Money,0,images/assets/snowy_original.jpg,learning,10,images/assets/success.jpg,images/assets/gameover.jpg,,,,,,,,With Brainslug Difficult 2 With Money,With Brainslug Difficult 1 No Money,right,1.8346,"[""With Brainslug Difficult 1 No Money"",""With Brainslug Difficult 2 No Money""]",0,0,0,10,1,,,,,,,,,,,,,,,,,,,,,,,,,,,,,,,,
,,,,,,,,,,,,63dd3dd2593c92be97d8dbde,001,3,2025-04-15_06h06.25.173,avatar_quest_3AFC_legacy,2022.1.3,Win32,59.88023952,63dd3dd2593c92be97d8dbde,67fe37cb3bd870bba73819bd,67fe58c2afe44b41795eec52,,,,,,,,,,,,,,,,,,,,,,With Brainslug No Barriers With Money,0,images/assets/snowy_money.jpg,learning,10,images/assets/success_money.jpg,images/assets/gameover.jpg,,,,,,,,,,,,,0,1,1,4,1,,,,,,,,,,,,,,,,,,,,,,,,,,,,,,,,
,,,,,,,,,,,,63dd3dd2593c92be97d8dbde,001,3,2025-04-15_06h06.25.173,avatar_quest_3AFC_legacy,2022.1.3,Win32,59.88023952,63dd3dd2593c92be97d8dbde,67fe37cb3bd870bba73819bd,67fe58c2afe44b41795eec52,,,,,,,,,,,,,,,,,,,,,,No Brainslug Difficult 1 No Money,6,images/assets/snowy_original.jpg,learning,20,images/assets/success.jpg,images/assets/gameover.jpg,,,,,,,,,,,,,0,2,2,6,1,,,,,,,,,,,,,,,,,,,,,,,,,,,,,,,,
,,,,,,,,,,,,63dd3dd2593c92be97d8dbde,001,3,2025-04-15_06h06.25.173,avatar_quest_3AFC_legacy,2022.1.3,Win32,59.88023952,63dd3dd2593c92be97d8dbde,67fe37cb3bd870bba73819bd,67fe58c2afe44b41795eec52,,,,,,,,,,,,,,,,,,,,,,No Brainslug Difficult 2 No Money,12,images/assets/snowy_original.jpg,learning,20,images/assets/success.jpg,images/assets/gameover.jpg,,,,,,,,,,,,,0,3,3,8,1,,,,,,,,,,,,,,,,,,,,,,,,,,,,,,,,
,,,,,,,,,,,,63dd3dd2593c92be97d8dbde,001,3,2025-04-15_06h06.25.173,avatar_quest_3AFC_legacy,2022.1.3,Win32,59.88023952,63dd3dd2593c92be97d8dbde,67fe37cb3bd870bba73819bd,67fe58c2afe44b41795eec52,,,,,,,,,,,,,,,,,,,,,,With Brainslug Difficult 2 No Money,12,images/assets/snowy_original.jpg,learning,20,images/assets/success.jpg,images/assets/gameover.jpg,,,,,,,,,,,,,0,4,4,3,1,,,,,,,,,,,,,,,,,,,,,,,,,,,,,,,,
,,,,,,,,,,,,63dd3dd2593c92be97d8dbde,001,3,2025-04-15_06h06.25.173,avatar_quest_3AFC_legacy,2022.1.3,Win32,59.88023952,63dd3dd2593c92be97d8dbde,67fe37cb3bd870bba73819bd,67fe58c2afe44b41795eec52,,,,,,,,,,,,,,,,,,,,,,With Brainslug Difficult 1 With Money,6,images/assets/snowy_money.jpg,learning,20,images/assets/success_money.jpg,images/assets/gameover.jpg,,,,,,,,,,,,,0,5,5,0,1,,,,,,,,,,,,,,,,,,,,,,,,,,,,,,,,
,,,,,,,,,,,,63dd3dd2593c92be97d8dbde,001,3,2025-04-15_06h06.25.173,avatar_quest_3AFC_legacy,2022.1.3,Win32,59.88023952,63dd3dd2593c92be97d8dbde,67fe37cb3bd870bba73819bd,67fe58c2afe44b41795eec52,,,,,,,,,,,,,,,,,,,,,,No Brainslug Difficult 2 With Money,12,images/assets/snowy_money.jpg,learning,20,images/assets/success_money.jpg,images/assets/gameover.jpg,,,,,,,,,,,,,0,6,6,7,1,,,,,,,,,,,,,,,,,,,,,,,,,,,,,,,,
,,,,,,,,,,,,63dd3dd2593c92be97d8dbde,001,3,2025-04-15_06h06.25.173,avatar_quest_3AFC_legacy,2022.1.3,Win32,59.88023952,63dd3dd2593c92be97d8dbde,67fe37cb3bd870bba73819bd,67fe58c2afe44b41795eec52,,,,,,,,,,,,,,,,,,,,,,No Brainslug No Barriers With Money,0,images/assets/snowy_money.jpg,learning,10,images/assets/success_money.jpg,images/assets/gameover.jpg,,,,,,,,,,,,,0,7,7,9,1,,,,,,,,,,,,,,,,,,,,,,,,,,,,,,,,
,,,,,,,,,,,,63dd3dd2593c92be97d8dbde,001,3,2025-04-15_06h06.25.173,avatar_quest_3AFC_legacy,2022.1.3,Win32,59.88023952,63dd3dd2593c92be97d8dbde,67fe37cb3bd870bba73819bd,67fe58c2afe44b41795eec52,"[""right"",""right"",""right"",""right"",""right"",""right"",""right"",""right"",""right"",""right"",""right"",""left"",""down"",""left"",""left"",""left"",""left"",""left"",""left"",""left"",""right"",""right"",""right"",""right"",""left"",""left"",""left"",""left"",""right"",""right"",""right"",""right"",""right"",""left"",""left"",""left"",""right"",""right"",""left"",""right"",""right"",""right"",""left"",""left"",""left"",""left"",""left"",""left"",""right"",""right"",""left"",""right"",""right"",""left"",""right"",""right"",""right"",""right"",""right"",""right"",""left"",""left"",""left"",""right"",""right"",""left""]","[0.0007000000476864443,0.10640000003576233,0.24010000002385823,0.6738000000119655,0.8237000000477224,0.9861000000238391,1.1192000000477265,1.2523000000119282,1.402200000047685,1.5358000000119318,1.6696000000238769,1.8531000000238578,1.8533000000119273,2.0361000000238505,2.1861000000238846,2.369300000011947,2.5361000000238505,2.7032000000477296,2.869400000035796,3.0528000000119278,3.119400000035796,3.285900000035781,3.4693000000119696,3.8364000000357805,3.969400000035762,4.1528000000119505,4.319500000000005,4.486000000000047,4.636200000047722,4.819500000000005,4.9863000000119655,5.136200000047722,5.269600000023843,5.419800000011946,5.602800000011939,5.786500000000046,5.886100000023873,6.119500000000016,6.2202000000477256,6.32000000000005,6.5864000000357805,6.65270000004773,6.9028000000119505,7.086000000000013,7.252800000011973,7.40270000004773,7.569200000047715,7.769200000047704,7.873300000011966,8.036500000000046,8.186400000035803,8.236300000011965,8.4029000000358,8.686100000023885,8.736000000000047,9.019200000047704,9.303600000023891,9.636600000023861,9.802999999999997,9.93720000004771,10.086500000000001,10.253300000011961,10.453000000000031,10.553600000023891,10.753200000047684,10.803500000000042]",,calibration,With Brainslug Difficult 2 With Money,7,10.9786,10.9897,24,6,0,FALSE,na,na,na,na,,,,,,,,,,,,,,,,,,,,,,,,,,,,,,,,,,0,0,0,0,1,,,,,,,,,,,,,,,,,,,,,,,
,,,,,,,,,,,,63dd3dd2593c92be97d8dbde,001,3,2025-04-15_06h06.25.173,avatar_quest_3AFC_legacy,2022.1.3,Win32,59.88023952,63dd3dd2593c92be97d8dbde,67fe37cb3bd870bba73819bd,67fe58c2afe44b41795eec52,,,,,,,,,,,,,,,,,,,,,,With Brainslug Difficult 2 With Money,12,images/assets/snowy_money.jpg,learning,20,images/assets/success_money.jpg,images/assets/gameover.jpg,,,,,,,,,,,,,0,8,8,2,1,,,,,,,,,,,,,,,,,,,,,,,,,,,,,,,,
,,,,,,,,,,,,63dd3dd2593c92be97d8dbde,001,3,2025-04-15_06h06.25.173,avatar_quest_3AFC_legacy,2022.1.3,Win32,59.88023952,63dd3dd2593c92be97d8dbde,67fe37cb3bd870bba73819bd,67fe58c2afe44b41795eec52,,,,,,,,,,,,,,,,,,,,,,With Brainslug No Barriers No Money,0,images/assets/snowy_original.jpg,learning,10,images/assets/success.jpg,images/assets/gameover.jpg,,,,,,,,,,,,,0,9,9,5,1,,,,,,,,,,,,,,,,,,,,,,,,,,,,,,,,
,,,,,,,,,,,,63dd3dd2593c92be97d8dbde,001,3,2025-04-15_06h06.25.173,avatar_quest_3AFC_legacy,2022.1.3,Win32,59.88023952,63dd3dd2593c92be97d8dbde,67fe37cb3bd870bba73819bd,67fe58c2afe44b41795eec52,,,,,,,,,,,,,,,,,,,,,,With Brainslug Difficult 1 No Money,6,images/assets/snowy_original.jpg,learning,20,images/assets/success.jpg,images/assets/gameover.jpg,,,,,,,,,,,,,0,10,10,1,1,,,,,,,,,,,,,,,,,,,,,,,,,,,,,,,,
,,,,,,,,,,,,63dd3dd2593c92be97d8dbde,001,3,2025-04-15_06h06.25.173,avatar_quest_3AFC_legacy,2022.1.3,Win32,59.88023952,63dd3dd2593c92be97d8dbde,67fe37cb3bd870bba73819bd,67fe58c2afe44b41795eec52,,,,,,,,,,,,,,,,,,,,,,,,,,,,,,,,,,,,,,,,,,,,,,,,,,,,,,,3,0,3,0,1,,,,,,,,,,,,,,,,,,
,,,,,,,,,,,,63dd3dd2593c92be97d8dbde,001,3,2025-04-15_06h06.25.173,avatar_quest_3AFC_legacy,2022.1.3,Win32,59.88023952,63dd3dd2593c92be97d8dbde,67fe37cb3bd870bba73819bd,67fe58c2afe44b41795eec52,,,,,,,,,,,,,,,,,,,,,,No Brainslug Difficult 2 With Money,12,images/assets/snowy_money.jpg,learning,20,images/assets/success_money.jpg,images/assets/gameover.jpg,,,,,,,,With Brainslug Difficult 2 With Money,With Brainslug Difficult 1 No Money,right,2.184,"[""With Brainslug Difficult 1 No Money"",""With Brainslug Difficult 2 No Money""]",0,0,0,7,1,,,,,,,,,,,,,,,,,,,,,,,,,,,,,,,,
,,,,,,,,,,,,63dd3dd2593c92be97d8dbde,001,3,2025-04-15_06h06.25.173,avatar_quest_3AFC_legacy,2022.1.3,Win32,59.88023952,63dd3dd2593c92be97d8dbde,67fe37cb3bd870bba73819bd,67fe58c2afe44b41795eec52,,,,,,,,,,,,,,,,,,,,,,No Brainslug Difficult 2 No Money,12,images/assets/snowy_original.jpg,learning,20,images/assets/success.jpg,images/assets/gameover.jpg,,,,,,,,,,,,,0,1,1,8,1,,,,,,,,,,,,,,,,,,,,,,,,,,,,,,,,
,,,,,,,,,,,,63dd3dd2593c92be97d8dbde,001,3,2025-04-15_06h06.25.173,avatar_quest_3AFC_legacy,2022.1.3,Win32,59.88023952,63dd3dd2593c92be97d8dbde,67fe37cb3bd870bba73819bd,67fe58c2afe44b41795eec52,,,,,,,,,,,,,,,,,,,,,,With Brainslug Difficult 2 No Money,12,images/assets/snowy_original.jpg,learning,20,images/assets/success.jpg,images/assets/gameover.jpg,,,,,,,,,,,,,0,2,2,3,1,,,,,,,,,,,,,,,,,,,,,,,,,,,,,,,,
,,,,,,,,,,,,63dd3dd2593c92be97d8dbde,001,3,2025-04-15_06h06.25.173,avatar_quest_3AFC_legacy,2022.1.3,Win32,59.88023952,63dd3dd2593c92be97d8dbde,67fe37cb3bd870bba73819bd,67fe58c2afe44b41795eec52,,,,,,,,,,,,,,,,,,,,,,No Brainslug No Barriers No Money,0,images/assets/snowy_original.jpg,learning,10,images/assets/success.jpg,images/assets/gameover.jpg,,,,,,,,,,,,,0,3,3,10,1,,,,,,,,,,,,,,,,,,,,,,,,,,,,,,,,
,,,,,,,,,,,,63dd3dd2593c92be97d8dbde,001,3,2025-04-15_06h06.25.173,avatar_quest_3AFC_legacy,2022.1.3,Win32,59.88023952,63dd3dd2593c92be97d8dbde,67fe37cb3bd870bba73819bd,67fe58c2afe44b41795eec52,,,,,,,,,,,,,,,,,,,,,,No Brainslug No Barriers With Money,0,images/assets/snowy_money.jpg,learning,10,images/assets/success_money.jpg,images/assets/gameover.jpg,,,,,,,,,,,,,0,4,4,9,1,,,,,,,,,,,,,,,,,,,,,,,,,,,,,,,,
,,,,,,,,,,,,63dd3dd2593c92be97d8dbde,001,3,2025-04-15_06h06.25.173,avatar_quest_3AFC_legacy,2022.1.3,Win32,59.88023952,63dd3dd2593c92be97d8dbde,67fe37cb3bd870bba73819bd,67fe58c2afe44b41795eec52,,,,,,,,,,,,,,,,,,,,,,With Brainslug Difficult 1 No Money,6,images/assets/snowy_original.jpg,learning,20,images/assets/success.jpg,images/assets/gameover.jpg,,,,,,,,,,,,,0,5,5,1,1,,,,,,,,,,,,,,,,,,,,,,,,,,,,,,,,
,,,,,,,,,,,,63dd3dd2593c92be97d8dbde,001,3,2025-04-15_06h06.25.173,avatar_quest_3AFC_legacy,2022.1.3,Win32,59.88023952,63dd3dd2593c92be97d8dbde,67fe37cb3bd870bba73819bd,67fe58c2afe44b41795eec52,,,,,,,,,,,,,,,,,,,,,,With Brainslug No Barriers With Money,0,images/assets/snowy_money.jpg,learning,10,images/assets/success_money.jpg,images/assets/gameover.jpg,,,,,,,,,,,,,0,6,6,4,1,,,,,,,,,,,,,,,,,,,,,,,,,,,,,,,,
,,,,,,,,,,,,63dd3dd2593c92be97d8dbde,001,3,2025-04-15_06h06.25.173,avatar_quest_3AFC_legacy,2022.1.3,Win32,59.88023952,63dd3dd2593c92be97d8dbde,67fe37cb3bd870bba73819bd,67fe58c2afe44b41795eec52,"[""left"",""left"",""left"",""right"",""right"",""right"",""left"",""left"",""left"",""left"",""left"",""right"",""left"",""left"",""right"",""right"",""right"",""right"",""right"",""right"",""left"",""right"",""right"",""right"",""right"",""right"",""left"",""left"",""right"",""left"",""left"",""right"",""right"",""right"",""right"",""left"",""left"",""left"",""right"",""right""]","[0.17250000000001364,0.5546999999880882,0.7386999999881141,1.2719999999999914,1.458500000000015,1.6426999999881104,1.9065999999642713,2.105000000000018,2.289399999976183,2.4713999999761427,2.63900000000001,2.8043999999761695,3.188299999952335,3.3778999999761936,3.671699999988107,3.906799999952341,4.042799999952308,4.222000000000037,4.388299999952324,4.507000000000005,4.688399999976184,4.89089999997617,5.059099999964246,5.204499999999996,5.355299999952308,5.589299999952345,5.973199999988083,6.189099999964242,6.443099999964261,6.556899999976167,6.773099999964245,7.004899999976146,7.189199999988091,7.356299999952341,7.556599999964249,7.675899999976195,7.859299999952327,8.021999999999991,8.238399999976195,8.48789999997615]",,calibration,With Brainslug Difficult 2 With Money,8,10.9786,9.0005,15,9,0,TRUE,na,na,na,na,,,,,,,,,,,,,,,,,,,,,,,,,,,,,,,,,,0,0,0,0,1,,,,,,,,,,,,,,,,,,,,,,,
,,,,,,,,,,,,63dd3dd2593c92be97d8dbde,001,3,2025-04-15_06h06.25.173,avatar_quest_3AFC_legacy,2022.1.3,Win32,59.88023952,63dd3dd2593c92be97d8dbde,67fe37cb3bd870bba73819bd,67fe58c2afe44b41795eec52,,,,,,,,,,,,,,,,,,,,,,With Brainslug Difficult 2 With Money,12,images/assets/snowy_money.jpg,learning,20,images/assets/success_money.jpg,images/assets/gameover.jpg,,,,,,,,,,,,,0,7,7,2,1,,,,,,,,,,,,,,,,,,,,,,,,,,,,,,,,
,,,,,,,,,,,,63dd3dd2593c92be97d8dbde,001,3,2025-04-15_06h06.25.173,avatar_quest_3AFC_legacy,2022.1.3,Win32,59.88023952,63dd3dd2593c92be97d8dbde,67fe37cb3bd870bba73819bd,67fe58c2afe44b41795eec52,,,,,,,,,,,,,,,,,,,,,,With Brainslug No Barriers No Money,0,images/assets/snowy_original.jpg,learning,10,images/assets/success.jpg,images/assets/gameover.jpg,,,,,,,,,,,,,0,8,8,5,1,,,,,,,,,,,,,,,,,,,,,,,,,,,,,,,,
,,,,,,,,,,,,63dd3dd2593c92be97d8dbde,001,3,2025-04-15_06h06.25.173,avatar_quest_3AFC_legacy,2022.1.3,Win32,59.88023952,63dd3dd2593c92be97d8dbde,67fe37cb3bd870bba73819bd,67fe58c2afe44b41795eec52,,,,,,,,,,,,,,,,,,,,,,With Brainslug Difficult 1 With Money,6,images/assets/snowy_money.jpg,learning,20,images/assets/success_money.jpg,images/assets/gameover.jpg,,,,,,,,,,,,,0,9,9,0,1,,,,,,,,,,,,,,,,,,,,,,,,,,,,,,,,
,,,,,,,,,,,,63dd3dd2593c92be97d8dbde,001,3,2025-04-15_06h06.25.173,avatar_quest_3AFC_legacy,2022.1.3,Win32,59.88023952,63dd3dd2593c92be97d8dbde,67fe37cb3bd870bba73819bd,67fe58c2afe44b41795eec52,,,,,,,,,,,,,,,,,,,,,,No Brainslug Difficult 1 No Money,6,images/assets/snowy_original.jpg,learning,20,images/assets/success.jpg,images/assets/gameover.jpg,,,,,,,,,,,,,0,10,10,6,1,,,,,,,,,,,,,,,,,,,,,,,,,,,,,,,,
,,,,,,,,,,,,63dd3dd2593c92be97d8dbde,001,3,2025-04-15_06h06.25.173,avatar_quest_3AFC_legacy,2022.1.3,Win32,59.88023952,63dd3dd2593c92be97d8dbde,67fe37cb3bd870bba73819bd,67fe58c2afe44b41795eec52,,,,,,,,,,,,,,,,,,,,,,,,,,,,,,,,,,,,,,,,,,,,,,,,,,,,,,,4,0,4,0,1,,,,,,,,,,,,,,,,,,
,,,,,,,,,,,,63dd3dd2593c92be97d8dbde,001,3,2025-04-15_06h06.25.173,avatar_quest_3AFC_legacy,2022.1.3,Win32,59.88023952,63dd3dd2593c92be97d8dbde,67fe37cb3bd870bba73819bd,67fe58c2afe44b41795eec52,,,,,,,,,,,,,,,,,,,,,,With Brainslug No Barriers No Money,0,images/assets/snowy_original.jpg,learning,10,images/assets/success.jpg,images/assets/gameover.jpg,,,,,,,,With Brainslug Difficult 2 With Money,With Brainslug Difficult 1 No Money,right,1.2474,"[""With Brainslug Difficult 1 No Money"",""With Brainslug Difficult 2 No Money""]",0,0,0,5,1,,,,,,,,,,,,,,,,,,,,,,,,,,,,,,,,
,,,,,,,,,,,,63dd3dd2593c92be97d8dbde,001,3,2025-04-15_06h06.25.173,avatar_quest_3AFC_legacy,2022.1.3,Win32,59.88023952,63dd3dd2593c92be97d8dbde,67fe37cb3bd870bba73819bd,67fe58c2afe44b41795eec52,,,,,,,,,,,,,,,,,,,,,,With Brainslug Difficult 2 No Money,12,images/assets/snowy_original.jpg,learning,20,images/assets/success.jpg,images/assets/gameover.jpg,,,,,,,,,,,,,0,1,1,3,1,,,,,,,,,,,,,,,,,,,,,,,,,,,,,,,,
,,,,,,,,,,,,63dd3dd2593c92be97d8dbde,001,3,2025-04-15_06h06.25.173,avatar_quest_3AFC_legacy,2022.1.3,Win32,59.88023952,63dd3dd2593c92be97d8dbde,67fe37cb3bd870bba73819bd,67fe58c2afe44b41795eec52,,,,,,,,,,,,,,,,,,,,,,No Brainslug Difficult 2 With Money,12,images/assets/snowy_money.jpg,learning,20,images/assets/success_money.jpg,images/assets/gameover.jpg,,,,,,,,,,,,,0,2,2,7,1,,,,,,,,,,,,,,,,,,,,,,,,,,,,,,,,
,,,,,,,,,,,,63dd3dd2593c92be97d8dbde,001,3,2025-04-15_06h06.25.173,avatar_quest_3AFC_legacy,2022.1.3,Win32,59.88023952,63dd3dd2593c92be97d8dbde,67fe37cb3bd870bba73819bd,67fe58c2afe44b41795eec52,"[""left"",""left"",""left"",""left"",""right"",""right"",""right"",""left"",""right"",""left"",""left"",""left"",""left"",""left"",""left"",""left"",""left"",""left"",""right"",""right"",""right"",""right"",""left"",""left"",""right"",""left"",""right"",""left"",""left"",""left"",""left"",""left"",""left"",""right"",""right"",""right"",""right"",""right"",""left"",""left"",""left"",""left"",""right"",""left"",""left"",""left"",""left"",""left"",""left"",""left""]","[0.17469999998803587,0.33559999996424494,0.5036999999880436,0.9368999999761627,1.2869999999999777,1.4588000000118768,1.6229999999999905,2.055099999964227,2.5753000000119073,2.853599999964217,3.186599999964244,3.5543999999761127,3.8378999999761163,4.169300000011901,4.335699999988037,4.503099999964206,4.671399999976131,4.807300000011878,5.1089999999999804,5.269099999964226,5.391300000011881,5.554300000011892,5.807599999964225,6.002999999999986,6.154099999964217,6.471599999964212,6.759599999964223,6.971599999964212,7.203399999976114,7.436599999964244,7.775699999988035,7.970699999988085,8.104800000011892,8.22409999996421,8.422099999964246,8.575800000011895,8.736399999976129,8.871899999976165,8.955399999976123,9.154699999988054,9.353699999988066,9.504399999976158,9.754899999976146,9.888399999976116,10.088999999999999,10.158199999988085,10.420500000000004,10.555999999999983,10.720399999976166,10.904199999988066]",,calibration,With Brainslug Difficult 2 With Money,9,10.9786,10.9837,19,9,0,FALSE,na,na,na,na,,,,,,,,,,,,,,,,,,,,,,,,,,,,,,,,,,0,0,0,0,1,,,,,,,,,,,,,,,,,,,,,,,
,,,,,,,,,,,,63dd3dd2593c92be97d8dbde,001,3,2025-04-15_06h06.25.173,avatar_quest_3AFC_legacy,2022.1.3,Win32,59.88023952,63dd3dd2593c92be97d8dbde,67fe37cb3bd870bba73819bd,67fe58c2afe44b41795eec52,,,,,,,,,,,,,,,,,,,,,,With Brainslug Difficult 2 With Money,12,images/assets/snowy_money.jpg,learning,20,images/assets/success_money.jpg,images/assets/gameover.jpg,,,,,,,,,,,,,0,3,3,2,1,,,,,,,,,,,,,,,,,,,,,,,,,,,,,,,,
,,,,,,,,,,,,63dd3dd2593c92be97d8dbde,001,3,2025-04-15_06h06.25.173,avatar_quest_3AFC_legacy,2022.1.3,Win32,59.88023952,63dd3dd2593c92be97d8dbde,67fe37cb3bd870bba73819bd,67fe58c2afe44b41795eec52,,,,,,,,,,,,,,,,,,,,,,No Brainslug No Barriers With Money,0,images/assets/snowy_money.jpg,learning,10,images/assets/success_money.jpg,images/assets/gameover.jpg,,,,,,,,,,,,,0,4,4,9,1,,,,,,,,,,,,,,,,,,,,,,,,,,,,,,,,
,,,,,,,,,,,,63dd3dd2593c92be97d8dbde,001,3,2025-04-15_06h06.25.173,avatar_quest_3AFC_legacy,2022.1.3,Win32,59.88023952,63dd3dd2593c92be97d8dbde,67fe37cb3bd870bba73819bd,67fe58c2afe44b41795eec52,,,,,,,,,,,,,,,,,,,,,,No Brainslug Difficult 1 No Money,6,images/assets/snowy_original.jpg,learning,20,images/assets/success.jpg,images/assets/gameover.jpg,,,,,,,,,,,,,0,5,5,6,1,,,,,,,,,,,,,,,,,,,,,,,,,,,,,,,,
,,,,,,,,,,,,63dd3dd2593c92be97d8dbde,001,3,2025-04-15_06h06.25.173,avatar_quest_3AFC_legacy,2022.1.3,Win32,59.88023952,63dd3dd2593c92be97d8dbde,67fe37cb3bd870bba73819bd,67fe58c2afe44b41795eec52,,,,,,,,,,,,,,,,,,,,,,No Brainslug No Barriers No Money,0,images/assets/snowy_original.jpg,learning,10,images/assets/success.jpg,images/assets/gameover.jpg,,,,,,,,,,,,,0,6,6,10,1,,,,,,,,,,,,,,,,,,,,,,,,,,,,,,,,
,,,,,,,,,,,,63dd3dd2593c92be97d8dbde,001,3,2025-04-15_06h06.25.173,avatar_quest_3AFC_legacy,2022.1.3,Win32,59.88023952,63dd3dd2593c92be97d8dbde,67fe37cb3bd870bba73819bd,67fe58c2afe44b41795eec52,,,,,,,,,,,,,,,,,,,,,,With Brainslug No Barriers With Money,0,images/assets/snowy_money.jpg,learning,10,images/assets/success_money.jpg,images/assets/gameover.jpg,,,,,,,,,,,,,0,7,7,4,1,,,,,,,,,,,,,,,,,,,,,,,,,,,,,,,,
,,,,,,,,,,,,63dd3dd2593c92be97d8dbde,001,3,2025-04-15_06h06.25.173,avatar_quest_3AFC_legacy,2022.1.3,Win32,59.88023952,63dd3dd2593c92be97d8dbde,67fe37cb3bd870bba73819bd,67fe58c2afe44b41795eec52,,,,,,,,,,,,,,,,,,,,,,With Brainslug Difficult 1 With Money,6,images/assets/snowy_money.jpg,learning,20,images/assets/success_money.jpg,images/assets/gameover.jpg,,,,,,,,,,,,,0,8,8,0,1,,,,,,,,,,,,,,,,,,,,,,,,,,,,,,,,
,,,,,,,,,,,,63dd3dd2593c92be97d8dbde,001,3,2025-04-15_06h06.25.173,avatar_quest_3AFC_legacy,2022.1.3,Win32,59.88023952,63dd3dd2593c92be97d8dbde,67fe37cb3bd870bba73819bd,67fe58c2afe44b41795eec52,,,,,,,,,,,,,,,,,,,,,,With Brainslug Difficult 1 No Money,6,images/assets/snowy_original.jpg,learning,20,images/assets/success.jpg,images/assets/gameover.jpg,,,,,,,,,,,,,0,9,9,1,1,,,,,,,,,,,,,,,,,,,,,,,,,,,,,,,,
,,,,,,,,,,,,63dd3dd2593c92be97d8dbde,001,3,2025-04-15_06h06.25.173,avatar_quest_3AFC_legacy,2022.1.3,Win32,59.88023952,63dd3dd2593c92be97d8dbde,67fe37cb3bd870bba73819bd,67fe58c2afe44b41795eec52,,,,,,,,,,,,,,,,,,,,,,No Brainslug Difficult 2 No Money,12,images/assets/snowy_original.jpg,learning,20,images/assets/success.jpg,images/assets/gameover.jpg,,,,,,,,,,,,,0,10,10,8,1,,,,,,,,,,,,,,,,,,,,,,,,,,,,,,,,
,,,,,,,,,,,,63dd3dd2593c92be97d8dbde,001,3,2025-04-15_06h06.25.173,avatar_quest_3AFC_legacy,2022.1.3,Win32,59.88023952,63dd3dd2593c92be97d8dbde,67fe37cb3bd870bba73819bd,67fe58c2afe44b41795eec52,,,,,,,,,,,,,,,,,,,,,,,,,,,,,,,,,,,,,,,,,,,,,,,,,,,,,,,5,0,5,0,1,,,,,,,,,,,,,,,,,,
,,,,,,,,,,,,63dd3dd2593c92be97d8dbde,001,3,2025-04-15_06h06.25.173,avatar_quest_3AFC_legacy,2022.1.3,Win32,59.88023952,63dd3dd2593c92be97d8dbde,67fe37cb3bd870bba73819bd,67fe58c2afe44b41795eec52,"[""left"",""left"",""right"",""right"",""right"",""left"",""left"",""left"",""left"",""right"",""right"",""right"",""left"",""left"",""left"",""left"",""left"",""left""]","[0.3434000000357855,0.5529000000357769,1.6696000000238769,1.869699999988086,2.036400000035769,2.453400000035799,2.6366000000238614,2.7864999999999895,2.9863000000119087,3.5198000000119123,3.669600000023877,3.836500000000001,4.40300000000002,4.58680000001192,4.752800000011916,4.919600000023877,5.086500000000001,5.302800000011928]",,calibration,With Brainslug Difficult 1 No Money,10,10.9786,5.7225,10,1,0,TRUE,na,na,na,na,,,,,,,,,,,,,,,,,,,,With Brainslug Difficult 1 No Money,With Brainslug Difficult 1 No Money,left,1.9064,"[""With Brainslug Difficult 2 No Money"",""With Brainslug Difficult 2 With Money""]",,,,,,,,,,0,0,0,0,1,,,,,,,,,,,,,,,,,,,,,,,
,,,,,,,,,,,,63dd3dd2593c92be97d8dbde,001,3,2025-04-15_06h06.25.173,avatar_quest_3AFC_legacy,2022.1.3,Win32,59.88023952,63dd3dd2593c92be97d8dbde,67fe37cb3bd870bba73819bd,67fe58c2afe44b41795eec52,,,,,,,,,,,,,,,,,,,,,,With Brainslug Difficult 1 No Money,6,images/assets/snowy_original.jpg,learning,20,images/assets/success.jpg,images/assets/gameover.jpg,,,,,,,,,,,,,0,0,0,1,1,,,,,,,,,,,,,,,,,,,,,,,,,,,,,,,,
,,,,,,,,,,,,63dd3dd2593c92be97d8dbde,001,3,2025-04-15_06h06.25.173,avatar_quest_3AFC_legacy,2022.1.3,Win32,59.88023952,63dd3dd2593c92be97d8dbde,67fe37cb3bd870bba73819bd,67fe58c2afe44b41795eec52,,,,,,,,,,,,,,,,,,,,,,With Brainslug Difficult 2 No Money,12,images/assets/snowy_original.jpg,learning,20,images/assets/success.jpg,images/assets/gameover.jpg,,,,,,,,,,,,,0,1,1,3,1,,,,,,,,,,,,,,,,,,,,,,,,,,,,,,,,
,,,,,,,,,,,,63dd3dd2593c92be97d8dbde,001,3,2025-04-15_06h06.25.173,avatar_quest_3AFC_legacy,2022.1.3,Win32,59.88023952,63dd3dd2593c92be97d8dbde,67fe37cb3bd870bba73819bd,67fe58c2afe44b41795eec52,,,,,,,,,,,,,,,,,,,,,,No Brainslug Difficult 1 No Money,6,images/assets/snowy_original.jpg,learning,20,images/assets/success.jpg,images/assets/gameover.jpg,,,,,,,,,,,,,0,2,2,6,1,,,,,,,,,,,,,,,,,,,,,,,,,,,,,,,,
,,,,,,,,,,,,63dd3dd2593c92be97d8dbde,001,3,2025-04-15_06h06.25.173,avatar_quest_3AFC_legacy,2022.1.3,Win32,59.88023952,63dd3dd2593c92be97d8dbde,67fe37cb3bd870bba73819bd,67fe58c2afe44b41795eec52,,,,,,,,,,,,,,,,,,,,,,No Brainslug Difficult 2 With Money,12,images/assets/snowy_money.jpg,learning,20,images/assets/success_money.jpg,images/assets/gameover.jpg,,,,,,,,,,,,,0,3,3,7,1,,,,,,,,,,,,,,,,,,,,,,,,,,,,,,,,
,,,,,,,,,,,,63dd3dd2593c92be97d8dbde,001,3,2025-04-15_06h06.25.173,avatar_quest_3AFC_legacy,2022.1.3,Win32,59.88023952,63dd3dd2593c92be97d8dbde,67fe37cb3bd870bba73819bd,67fe58c2afe44b41795eec52,,,,,,,,,,,,,,,,,,,,,,With Brainslug Difficult 1 With Money,6,images/assets/snowy_money.jpg,learning,20,images/assets/success_money.jpg,images/assets/gameover.jpg,,,,,,,,,,,,,0,4,4,0,1,,,,,,,,,,,,,,,,,,,,,,,,,,,,,,,,
,,,,,,,,,,,,63dd3dd2593c92be97d8dbde,001,3,2025-04-15_06h06.25.173,avatar_quest_3AFC_legacy,2022.1.3,Win32,59.88023952,63dd3dd2593c92be97d8dbde,67fe37cb3bd870bba73819bd,67fe58c2afe44b41795eec52,,,,,,,,,,,,,,,,,,,,,,With Brainslug No Barriers No Money,0,images/assets/snowy_original.jpg,learning,10,images/assets/success.jpg,images/assets/gameover.jpg,,,,,,,,,,,,,0,5,5,5,1,,,,,,,,,,,,,,,,,,,,,,,,,,,,,,,,
,,,,,,,,,,,,63dd3dd2593c92be97d8dbde,001,3,2025-04-15_06h06.25.173,avatar_quest_3AFC_legacy,2022.1.3,Win32,59.88023952,63dd3dd2593c92be97d8dbde,67fe37cb3bd870bba73819bd,67fe58c2afe44b41795eec52,,,,,,,,,,,,,,,,,,,,,,With Brainslug Difficult 2 With Money,12,images/assets/snowy_money.jpg,learning,20,images/assets/success_money.jpg,images/assets/gameover.jpg,,,,,,,,,,,,,0,6,6,2,1,,,,,,,,,,,,,,,,,,,,,,,,,,,,,,,,
,,,,,,,,,,,,63dd3dd2593c92be97d8dbde,001,3,2025-04-15_06h06.25.173,avatar_quest_3AFC_legacy,2022.1.3,Win32,59.88023952,63dd3dd2593c92be97d8dbde,67fe37cb3bd870bba73819bd,67fe58c2afe44b41795eec52,,,,,,,,,,,,,,,,,,,,,,No Brainslug No Barriers With Money,0,images/assets/snowy_money.jpg,learning,10,images/assets/success_money.jpg,images/assets/gameover.jpg,,,,,,,,,,,,,0,7,7,9,1,,,,,,,,,,,,,,,,,,,,,,,,,,,,,,,,
,,,,,,,,,,,,63dd3dd2593c92be97d8dbde,001,3,2025-04-15_06h06.25.173,avatar_quest_3AFC_legacy,2022.1.3,Win32,59.88023952,63dd3dd2593c92be97d8dbde,67fe37cb3bd870bba73819bd,67fe58c2afe44b41795eec52,,,,,,,,,,,,,,,,,,,,,,With Brainslug No Barriers With Money,0,images/assets/snowy_money.jpg,learning,10,images/assets/success_money.jpg,images/assets/gameover.jpg,,,,,,,,,,,,,0,8,8,4,1,,,,,,,,,,,,,,,,,,,,,,,,,,,,,,,,
,,,,,,,,,,,,63dd3dd2593c92be97d8dbde,001,3,2025-04-15_06h06.25.173,avatar_quest_3AFC_legacy,2022.1.3,Win32,59.88023952,63dd3dd2593c92be97d8dbde,67fe37cb3bd870bba73819bd,67fe58c2afe44b41795eec52,,,,,,,,,,,,,,,,,,,,,,No Brainslug No Barriers No Money,0,images/assets/snowy_original.jpg,learning,10,images/assets/success.jpg,images/assets/gameover.jpg,,,,,,,,,,,,,0,9,9,10,1,,,,,,,,,,,,,,,,,,,,,,,,,,,,,,,,
,,,,,,,,,,,,63dd3dd2593c92be97d8dbde,001,3,2025-04-15_06h06.25.173,avatar_quest_3AFC_legacy,2022.1.3,Win32,59.88023952,63dd3dd2593c92be97d8dbde,67fe37cb3bd870bba73819bd,67fe58c2afe44b41795eec52,,,,,,,,,,,,,,,,,,,,,,No Brainslug Difficult 2 No Money,12,images/assets/snowy_original.jpg,learning,20,images/assets/success.jpg,images/assets/gameover.jpg,,,,,,,,,,,,,0,10,10,8,1,,,,,,,,,,,,,,,,,,,,,,,,,,,,,,,,
,,,,,,,,,,,,63dd3dd2593c92be97d8dbde,001,3,2025-04-15_06h06.25.173,avatar_quest_3AFC_legacy,2022.1.3,Win32,59.88023952,63dd3dd2593c92be97d8dbde,67fe37cb3bd870bba73819bd,67fe58c2afe44b41795eec52,,,,,,,,,,,,,,,,,,,,,,,,,,,,,,,,,,,,,,,,,,,,,,,,,,,,,,,6,0,6,0,1,,,,,,,,,,,,,,,,,,
,,,,,,,,,,,,63dd3dd2593c92be97d8dbde,001,3,2025-04-15_06h06.25.173,avatar_quest_3AFC_legacy,2022.1.3,Win32,59.88023952,63dd3dd2593c92be97d8dbde,67fe37cb3bd870bba73819bd,67fe58c2afe44b41795eec52,,,,,,,,,,,,,,,,,,,,,,With Brainslug No Barriers With Money,0,images/assets/snowy_money.jpg,learning,10,images/assets/success_money.jpg,images/assets/gameover.jpg,,,,,,,,With Brainslug Difficult 2 No Money,With Brainslug Difficult 1 No Money,down,0.5206,"[""With Brainslug Difficult 1 No Money"",""With Brainslug Difficult 2 With Money""]",0,0,0,4,1,,,,,,,,,,,,,,,,,,,,,,,,,,,,,,,,
,,,,,,,,,,,,63dd3dd2593c92be97d8dbde,001,3,2025-04-15_06h06.25.173,avatar_quest_3AFC_legacy,2022.1.3,Win32,59.88023952,63dd3dd2593c92be97d8dbde,67fe37cb3bd870bba73819bd,67fe58c2afe44b41795eec52,,,,,,,,,,,,,,,,,,,,,,No Brainslug Difficult 2 With Money,12,images/assets/snowy_money.jpg,learning,20,images/assets/success_money.jpg,images/assets/gameover.jpg,,,,,,,,,,,,,0,1,1,7,1,,,,,,,,,,,,,,,,,,,,,,,,,,,,,,,,
,,,,,,,,,,,,63dd3dd2593c92be97d8dbde,001,3,2025-04-15_06h06.25.173,avatar_quest_3AFC_legacy,2022.1.3,Win32,59.88023952,63dd3dd2593c92be97d8dbde,67fe37cb3bd870bba73819bd,67fe58c2afe44b41795eec52,,,,,,,,,,,,,,,,,,,,,,No Brainslug Difficult 1 No Money,6,images/assets/snowy_original.jpg,learning,20,images/assets/success.jpg,images/assets/gameover.jpg,,,,,,,,,,,,,0,2,2,6,1,,,,,,,,,,,,,,,,,,,,,,,,,,,,,,,,
,,,,,,,,,,,,63dd3dd2593c92be97d8dbde,001,3,2025-04-15_06h06.25.173,avatar_quest_3AFC_legacy,2022.1.3,Win32,59.88023952,63dd3dd2593c92be97d8dbde,67fe37cb3bd870bba73819bd,67fe58c2afe44b41795eec52,,,,,,,,,,,,,,,,,,,,,,With Brainslug Difficult 2 With Money,12,images/assets/snowy_money.jpg,learning,20,images/assets/success_money.jpg,images/assets/gameover.jpg,,,,,,,,,,,,,0,3,3,2,1,,,,,,,,,,,,,,,,,,,,,,,,,,,,,,,,
,,,,,,,,,,,,63dd3dd2593c92be97d8dbde,001,3,2025-04-15_06h06.25.173,avatar_quest_3AFC_legacy,2022.1.3,Win32,59.88023952,63dd3dd2593c92be97d8dbde,67fe37cb3bd870bba73819bd,67fe58c2afe44b41795eec52,,,,,,,,,,,,,,,,,,,,,,No Brainslug No Barriers With Money,0,images/assets/snowy_money.jpg,learning,10,images/assets/success_money.jpg,images/assets/gameover.jpg,,,,,,,,,,,,,0,4,4,9,1,,,,,,,,,,,,,,,,,,,,,,,,,,,,,,,,
,,,,,,,,,,,,63dd3dd2593c92be97d8dbde,001,3,2025-04-15_06h06.25.173,avatar_quest_3AFC_legacy,2022.1.3,Win32,59.88023952,63dd3dd2593c92be97d8dbde,67fe37cb3bd870bba73819bd,67fe58c2afe44b41795eec52,,,,,,,,,,,,,,,,,,,,,,With Brainslug Difficult 1 With Money,6,images/assets/snowy_money.jpg,learning,20,images/assets/success_money.jpg,images/assets/gameover.jpg,,,,,,,,,,,,,0,5,5,0,1,,,,,,,,,,,,,,,,,,,,,,,,,,,,,,,,
,,,,,,,,,,,,63dd3dd2593c92be97d8dbde,001,3,2025-04-15_06h06.25.173,avatar_quest_3AFC_legacy,2022.1.3,Win32,59.88023952,63dd3dd2593c92be97d8dbde,67fe37cb3bd870bba73819bd,67fe58c2afe44b41795eec52,,,,,,,,,,,,,,,,,,,,,,With Brainslug Difficult 1 No Money,6,images/assets/snowy_original.jpg,learning,20,images/assets/success.jpg,images/assets/gameover.jpg,,,,,,,,,,,,,0,6,6,1,1,,,,,,,,,,,,,,,,,,,,,,,,,,,,,,,,
,,,,,,,,,,,,63dd3dd2593c92be97d8dbde,001,3,2025-04-15_06h06.25.173,avatar_quest_3AFC_legacy,2022.1.3,Win32,59.88023952,63dd3dd2593c92be97d8dbde,67fe37cb3bd870bba73819bd,67fe58c2afe44b41795eec52,,,,,,,,,,,,,,,,,,,,,,With Brainslug No Barriers No Money,0,images/assets/snowy_original.jpg,learning,10,images/assets/success.jpg,images/assets/gameover.jpg,,,,,,,,,,,,,0,7,7,5,1,,,,,,,,,,,,,,,,,,,,,,,,,,,,,,,,
,,,,,,,,,,,,63dd3dd2593c92be97d8dbde,001,3,2025-04-15_06h06.25.173,avatar_quest_3AFC_legacy,2022.1.3,Win32,59.88023952,63dd3dd2593c92be97d8dbde,67fe37cb3bd870bba73819bd,67fe58c2afe44b41795eec52,,,,,,,,,,,,,,,,,,,,,,No Brainslug No Barriers No Money,0,images/assets/snowy_original.jpg,learning,10,images/assets/success.jpg,images/assets/gameover.jpg,,,,,,,,,,,,,0,8,8,10,1,,,,,,,,,,,,,,,,,,,,,,,,,,,,,,,,
,,,,,,,,,,,,63dd3dd2593c92be97d8dbde,001,3,2025-04-15_06h06.25.173,avatar_quest_3AFC_legacy,2022.1.3,Win32,59.88023952,63dd3dd2593c92be97d8dbde,67fe37cb3bd870bba73819bd,67fe58c2afe44b41795eec52,,,,,,,,,,,,,,,,,,,,,,No Brainslug Difficult 2 No Money,12,images/assets/snowy_original.jpg,learning,20,images/assets/success.jpg,images/assets/gameover.jpg,,,,,,,,,,,,,0,9,9,8,1,,,,,,,,,,,,,,,,,,,,,,,,,,,,,,,,
,,,,,,,,,,,,63dd3dd2593c92be97d8dbde,001,3,2025-04-15_06h06.25.173,avatar_quest_3AFC_legacy,2022.1.3,Win32,59.88023952,63dd3dd2593c92be97d8dbde,67fe37cb3bd870bba73819bd,67fe58c2afe44b41795eec52,"[""left"",""left"",""right"",""right"",""right"",""right"",""left"",""right"",""right"",""right"",""right"",""right"",""right"",""right"",""right"",""right"",""right"",""right"",""right"",""left"",""left"",""left"",""right"",""right"",""right"",""right"",""right"",""right"",""left"",""left"",""left"",""left"",""left"",""left"",""right"",""right"",""right"",""right"",""right"",""right"",""left"",""right"",""right"",""down"",""right"",""right"",""right"",""right"",""right"",""left"",""left"",""left"",""left""]","[0.24049999999999727,0.44080000001190456,0.9526999999881127,1.2886999999880686,1.4566000000238546,1.64080000001195,1.9016999999880682,2.040699999988078,2.240800000011916,2.3691000000238773,2.521000000000015,2.7853000000119437,3.0031999999881123,3.1518000000119173,3.369300000011947,3.571699999988084,3.7191000000238432,3.835199999988106,4.004000000000019,4.319000000000017,4.50380000001195,4.657100000023831,4.785900000035781,4.968699999988075,5.133500000000026,5.289300000011906,5.505100000023845,5.585900000035792,5.88710000002385,6.085400000035747,6.289300000011906,6.485600000023851,6.819400000035785,7.019100000023855,7.119100000023877,7.301600000023825,7.453000000000031,7.653999999999996,7.804100000023823,7.969800000011901,8.169699999988097,8.41940000003575,8.820199999988063,9.273800000011931,9.418699999988064,9.586000000000013,9.754100000023868,9.902600000023824,10.086100000023862,10.235199999988083,10.441800000011938,10.602900000035788,10.73780000001193]",,calibration,With Brainslug Difficult 2 No Money,11,10.9786,10.9836,24,6,0,FALSE,na,na,na,na,,,,,,,,,,,,,,,,,,,,,,,,,,,,,,,,,,0,0,0,0,1,,,,,,,,,,,,,,,,,,,,,,,
,,,,,,,,,,,,63dd3dd2593c92be97d8dbde,001,3,2025-04-15_06h06.25.173,avatar_quest_3AFC_legacy,2022.1.3,Win32,59.88023952,63dd3dd2593c92be97d8dbde,67fe37cb3bd870bba73819bd,67fe58c2afe44b41795eec52,,,,,,,,,,,,,,,,,,,,,,With Brainslug Difficult 2 No Money,12,images/assets/snowy_original.jpg,learning,20,images/assets/success.jpg,images/assets/gameover.jpg,,,,,,,,,,,,,0,10,10,3,1,,,,,,,,,,,,,,,,,,,,,,,,,,,,,,,,
,,,,,,,,,,,,63dd3dd2593c92be97d8dbde,001,3,2025-04-15_06h06.25.173,avatar_quest_3AFC_legacy,2022.1.3,Win32,59.88023952,63dd3dd2593c92be97d8dbde,67fe37cb3bd870bba73819bd,67fe58c2afe44b41795eec52,,,,,,,,,,,,,,,,,,,,,,,,,,,,,,,,,,,,,,,,,,,,,,,,,,,,,,,7,0,7,0,1,,,,,,,,,,,,,,,,,,
,,,,,,,,,,,,63dd3dd2593c92be97d8dbde,001,3,2025-04-15_06h06.25.173,avatar_quest_3AFC_legacy,2022.1.3,Win32,59.88023952,63dd3dd2593c92be97d8dbde,67fe37cb3bd870bba73819bd,67fe58c2afe44b41795eec52,,,,,,,,,,,,,,,,,,,,,,With Brainslug No Barriers No Money,0,images/assets/snowy_original.jpg,learning,10,images/assets/success.jpg,images/assets/gameover.jpg,,,,,,,,With Brainslug Difficult 2 With Money,With Brainslug Difficult 1 No Money,right,0.5484,"[""With Brainslug Difficult 1 No Money"",""With Brainslug Difficult 2 No Money""]",0,0,0,5,1,,,,,,,,,,,,,,,,,,,,,,,,,,,,,,,,
,,,,,,,,,,,,63dd3dd2593c92be97d8dbde,001,3,2025-04-15_06h06.25.173,avatar_quest_3AFC_legacy,2022.1.3,Win32,59.88023952,63dd3dd2593c92be97d8dbde,67fe37cb3bd870bba73819bd,67fe58c2afe44b41795eec52,"[""left"",""left"",""left"",""right"",""right"",""right"",""right"",""right"",""left"",""left"",""left"",""right"",""right"",""right"",""left"",""left"",""right"",""left"",""left"",""right"",""right"",""left"",""left"",""left"",""left"",""right"",""right"",""left"",""left"",""left"",""left"",""left"",""left"",""right"",""left"",""right"",""right""]","[0.5273999999761827,0.7269999999999754,0.8882999999523236,1.2396999999880904,1.40509999996425,1.5590999999642463,1.7113999999761518,1.88900000000001,2.055999999999983,2.2231999999880827,2.4065999999642145,2.4066999999880636,2.5914999999999964,2.7732999999523145,2.927299999952311,3.139399999976149,3.257000000000005,3.4392999999523113,3.6216999999880954,3.7725999999642568,3.956599999964226,4.109399999976176,4.305899999976134,4.488999999999976,4.683799999952328,4.8878999999761845,5.091299999952298,5.240499999999997,5.425899999976139,5.606399999976134,5.805799999952342,5.9916999999881,6.239199999988102,6.2571999999880745,6.406399999976145,6.456099999964238,6.6741999999881045]",,calibration,With Brainslug Difficult 2 With Money,12,10.9786,6.9834,18,9,0,TRUE,na,na,na,na,,,,,,,,,,,,,,,,,,,,,,,,,,,,,,,,,,0,0,0,0,1,,,,,,,,,,,,,,,,,,,,,,,
,,,,,,,,,,,,63dd3dd2593c92be97d8dbde,001,3,2025-04-15_06h06.25.173,avatar_quest_3AFC_legacy,2022.1.3,Win32,59.88023952,63dd3dd2593c92be97d8dbde,67fe37cb3bd870bba73819bd,67fe58c2afe44b41795eec52,,,,,,,,,,,,,,,,,,,,,,With Brainslug Difficult 2 With Money,12,images/assets/snowy_money.jpg,learning,20,images/assets/success_money.jpg,images/assets/gameover.jpg,,,,,,,,,,,,,0,1,1,2,1,,,,,,,,,,,,,,,,,,,,,,,,,,,,,,,,
,,,,,,,,,,,,63dd3dd2593c92be97d8dbde,001,3,2025-04-15_06h06.25.173,avatar_quest_3AFC_legacy,2022.1.3,Win32,59.88023952,63dd3dd2593c92be97d8dbde,67fe37cb3bd870bba73819bd,67fe58c2afe44b41795eec52,,,,,,,,,,,,,,,,,,,,,,With Brainslug No Barriers With Money,0,images/assets/snowy_money.jpg,learning,10,images/assets/success_money.jpg,images/assets/gameover.jpg,,,,,,,,,,,,,0,2,2,4,1,,,,,,,,,,,,,,,,,,,,,,,,,,,,,,,,
,,,,,,,,,,,,63dd3dd2593c92be97d8dbde,001,3,2025-04-15_06h06.25.173,avatar_quest_3AFC_legacy,2022.1.3,Win32,59.88023952,63dd3dd2593c92be97d8dbde,67fe37cb3bd870bba73819bd,67fe58c2afe44b41795eec52,,,,,,,,,,,,,,,,,,,,,,No Brainslug Difficult 2 With Money,12,images/assets/snowy_money.jpg,learning,20,images/assets/success_money.jpg,images/assets/gameover.jpg,,,,,,,,,,,,,0,3,3,7,1,,,,,,,,,,,,,,,,,,,,,,,,,,,,,,,,
,,,,,,,,,,,,63dd3dd2593c92be97d8dbde,001,3,2025-04-15_06h06.25.173,avatar_quest_3AFC_legacy,2022.1.3,Win32,59.88023952,63dd3dd2593c92be97d8dbde,67fe37cb3bd870bba73819bd,67fe58c2afe44b41795eec52,,,,,,,,,,,,,,,,,,,,,,No Brainslug Difficult 2 No Money,12,images/assets/snowy_original.jpg,learning,20,images/assets/success.jpg,images/assets/gameover.jpg,,,,,,,,,,,,,0,4,4,8,1,,,,,,,,,,,,,,,,,,,,,,,,,,,,,,,,
,,,,,,,,,,,,63dd3dd2593c92be97d8dbde,001,3,2025-04-15_06h06.25.173,avatar_quest_3AFC_legacy,2022.1.3,Win32,59.88023952,63dd3dd2593c92be97d8dbde,67fe37cb3bd870bba73819bd,67fe58c2afe44b41795eec52,,,,,,,,,,,,,,,,,,,,,,No Brainslug No Barriers With Money,0,images/assets/snowy_money.jpg,learning,10,images/assets/success_money.jpg,images/assets/gameover.jpg,,,,,,,,,,,,,0,5,5,9,1,,,,,,,,,,,,,,,,,,,,,,,,,,,,,,,,
,,,,,,,,,,,,63dd3dd2593c92be97d8dbde,001,3,2025-04-15_06h06.25.173,avatar_quest_3AFC_legacy,2022.1.3,Win32,59.88023952,63dd3dd2593c92be97d8dbde,67fe37cb3bd870bba73819bd,67fe58c2afe44b41795eec52,,,,,,,,,,,,,,,,,,,,,,No Brainslug No Barriers No Money,0,images/assets/snowy_original.jpg,learning,10,images/assets/success.jpg,images/assets/gameover.jpg,,,,,,,,,,,,,0,6,6,10,1,,,,,,,,,,,,,,,,,,,,,,,,,,,,,,,,
,,,,,,,,,,,,63dd3dd2593c92be97d8dbde,001,3,2025-04-15_06h06.25.173,avatar_quest_3AFC_legacy,2022.1.3,Win32,59.88023952,63dd3dd2593c92be97d8dbde,67fe37cb3bd870bba73819bd,67fe58c2afe44b41795eec52,,,,,,,,,,,,,,,,,,,,,,With Brainslug Difficult 1 With Money,6,images/assets/snowy_money.jpg,learning,20,images/assets/success_money.jpg,images/assets/gameover.jpg,,,,,,,,,,,,,0,7,7,0,1,,,,,,,,,,,,,,,,,,,,,,,,,,,,,,,,
,,,,,,,,,,,,63dd3dd2593c92be97d8dbde,001,3,2025-04-15_06h06.25.173,avatar_quest_3AFC_legacy,2022.1.3,Win32,59.88023952,63dd3dd2593c92be97d8dbde,67fe37cb3bd870bba73819bd,67fe58c2afe44b41795eec52,,,,,,,,,,,,,,,,,,,,,,With Brainslug Difficult 1 No Money,6,images/assets/snowy_original.jpg,learning,20,images/assets/success.jpg,images/assets/gameover.jpg,,,,,,,,,,,,,0,8,8,1,1,,,,,,,,,,,,,,,,,,,,,,,,,,,,,,,,
,,,,,,,,,,,,63dd3dd2593c92be97d8dbde,001,3,2025-04-15_06h06.25.173,avatar_quest_3AFC_legacy,2022.1.3,Win32,59.88023952,63dd3dd2593c92be97d8dbde,67fe37cb3bd870bba73819bd,67fe58c2afe44b41795eec52,,,,,,,,,,,,,,,,,,,,,,With Brainslug Difficult 2 No Money,12,images/assets/snowy_original.jpg,learning,20,images/assets/success.jpg,images/assets/gameover.jpg,,,,,,,,,,,,,0,9,9,3,1,,,,,,,,,,,,,,,,,,,,,,,,,,,,,,,,
,,,,,,,,,,,,63dd3dd2593c92be97d8dbde,001,3,2025-04-15_06h06.25.173,avatar_quest_3AFC_legacy,2022.1.3,Win32,59.88023952,63dd3dd2593c92be97d8dbde,67fe37cb3bd870bba73819bd,67fe58c2afe44b41795eec52,,,,,,,,,,,,,,,,,,,,,,No Brainslug Difficult 1 No Money,6,images/assets/snowy_original.jpg,learning,20,images/assets/success.jpg,images/assets/gameover.jpg,,,,,,,,,,,,,0,10,10,6,1,,,,,,,,,,,,,,,,,,,,,,,,,,,,,,,,
,,,,,,,,,,,,63dd3dd2593c92be97d8dbde,001,3,2025-04-15_06h06.25.173,avatar_quest_3AFC_legacy,2022.1.3,Win32,59.88023952,63dd3dd2593c92be97d8dbde,67fe37cb3bd870bba73819bd,67fe58c2afe44b41795eec52,,,,,,,,,,,,,,,,,,,,,,,,,,,,,,,,,,,,,,,,,,,,,,,,,,,,,,,8,0,8,0,1,,,,,,,,,,,,,,,,,,
,,,,,,,,,,,,63dd3dd2593c92be97d8dbde,001,3,2025-04-15_06h06.25.173,avatar_quest_3AFC_legacy,2022.1.3,Win32,59.88023952,63dd3dd2593c92be97d8dbde,67fe37cb3bd870bba73819bd,67fe58c2afe44b41795eec52,,,,,,,,,,,,,,,,,,,,,,No Brainslug Difficult 2 With Money,12,images/assets/snowy_money.jpg,learning,20,images/assets/success_money.jpg,images/assets/gameover.jpg,,,,,,,,With Brainslug Difficult 1 No Money,With Brainslug Difficult 1 No Money,left,0.4162,"[""With Brainslug Difficult 2 No Money"",""With Brainslug Difficult 2 With Money""]",0,0,0,7,1,,,,,,,,,,,,,,,,,,,,,,,,,,,,,,,,
,,,,,,,,,,,,63dd3dd2593c92be97d8dbde,001,3,2025-04-15_06h06.25.173,avatar_quest_3AFC_legacy,2022.1.3,Win32,59.88023952,63dd3dd2593c92be97d8dbde,67fe37cb3bd870bba73819bd,67fe58c2afe44b41795eec52,,,,,,,,,,,,,,,,,,,,,,No Brainslug No Barriers With Money,0,images/assets/snowy_money.jpg,learning,10,images/assets/success_money.jpg,images/assets/gameover.jpg,,,,,,,,,,,,,0,1,1,9,1,,,,,,,,,,,,,,,,,,,,,,,,,,,,,,,,
,,,,,,,,,,,,63dd3dd2593c92be97d8dbde,001,3,2025-04-15_06h06.25.173,avatar_quest_3AFC_legacy,2022.1.3,Win32,59.88023952,63dd3dd2593c92be97d8dbde,67fe37cb3bd870bba73819bd,67fe58c2afe44b41795eec52,,,,,,,,,,,,,,,,,,,,,,No Brainslug No Barriers No Money,0,images/assets/snowy_original.jpg,learning,10,images/assets/success.jpg,images/assets/gameover.jpg,,,,,,,,,,,,,0,2,2,10,1,,,,,,,,,,,,,,,,,,,,,,,,,,,,,,,,
,,,,,,,,,,,,63dd3dd2593c92be97d8dbde,001,3,2025-04-15_06h06.25.173,avatar_quest_3AFC_legacy,2022.1.3,Win32,59.88023952,63dd3dd2593c92be97d8dbde,67fe37cb3bd870bba73819bd,67fe58c2afe44b41795eec52,,,,,,,,,,,,,,,,,,,,,,With Brainslug Difficult 2 With Money,12,images/assets/snowy_money.jpg,learning,20,images/assets/success_money.jpg,images/assets/gameover.jpg,,,,,,,,,,,,,0,3,3,2,1,,,,,,,,,,,,,,,,,,,,,,,,,,,,,,,,
,,,,,,,,,,,,63dd3dd2593c92be97d8dbde,001,3,2025-04-15_06h06.25.173,avatar_quest_3AFC_legacy,2022.1.3,Win32,59.88023952,63dd3dd2593c92be97d8dbde,67fe37cb3bd870bba73819bd,67fe58c2afe44b41795eec52,,,,,,,,,,,,,,,,,,,,,,No Brainslug Difficult 1 No Money,6,images/assets/snowy_original.jpg,learning,20,images/assets/success.jpg,images/assets/gameover.jpg,,,,,,,,,,,,,0,4,4,6,1,,,,,,,,,,,,,,,,,,,,,,,,,,,,,,,,
,,,,,,,,,,,,63dd3dd2593c92be97d8dbde,001,3,2025-04-15_06h06.25.173,avatar_quest_3AFC_legacy,2022.1.3,Win32,59.88023952,63dd3dd2593c92be97d8dbde,67fe37cb3bd870bba73819bd,67fe58c2afe44b41795eec52,,,,,,,,,,,,,,,,,,,,,,No Brainslug Difficult 2 No Money,12,images/assets/snowy_original.jpg,learning,20,images/assets/success.jpg,images/assets/gameover.jpg,,,,,,,,,,,,,0,5,5,8,1,,,,,,,,,,,,,,,,,,,,,,,,,,,,,,,,
,,,,,,,,,,,,63dd3dd2593c92be97d8dbde,001,3,2025-04-15_06h06.25.173,avatar_quest_3AFC_legacy,2022.1.3,Win32,59.88023952,63dd3dd2593c92be97d8dbde,67fe37cb3bd870bba73819bd,67fe58c2afe44b41795eec52,"[""left"",""left"",""left"",""right"",""right"",""right"",""right"",""right"",""left"",""left"",""left"",""right"",""right"",""left"",""left"",""right"",""right"",""right"",""left"",""left"",""left"",""left"",""left"",""left""]","[0.0007999999522780854,0.17519999998802405,0.39329999995226217,0.9527999999522763,1.1687999999522845,1.4357999999522804,1.635799999952269,2.4188999999761336,2.535299999952315,2.75209999996423,2.9520999999642186,3.3685999999642036,3.5686999999880413,4.202499999999986,4.402399999976126,5.035199999988038,5.25209999996423,5.4354999999999905,5.86939999997611,6.035499999999956,6.235799999952292,6.4205999999642245,6.61939999997611,6.8191999999880295]",,calibration,With Brainslug Difficult 1 No Money,13,10.9786,7.2897,14,4,0,TRUE,na,na,na,na,,,,,,,,,,,,,,,,,,,,,,,,,,,,,,,,,,0,0,0,0,1,,,,,,,,,,,,,,,,,,,,,,,
,,,,,,,,,,,,63dd3dd2593c92be97d8dbde,001,3,2025-04-15_06h06.25.173,avatar_quest_3AFC_legacy,2022.1.3,Win32,59.88023952,63dd3dd2593c92be97d8dbde,67fe37cb3bd870bba73819bd,67fe58c2afe44b41795eec52,,,,,,,,,,,,,,,,,,,,,,With Brainslug Difficult 1 No Money,6,images/assets/snowy_original.jpg,learning,20,images/assets/success.jpg,images/assets/gameover.jpg,,,,,,,,,,,,,0,6,6,1,1,,,,,,,,,,,,,,,,,,,,,,,,,,,,,,,,
,,,,,,,,,,,,63dd3dd2593c92be97d8dbde,001,3,2025-04-15_06h06.25.173,avatar_quest_3AFC_legacy,2022.1.3,Win32,59.88023952,63dd3dd2593c92be97d8dbde,67fe37cb3bd870bba73819bd,67fe58c2afe44b41795eec52,,,,,,,,,,,,,,,,,,,,,,With Brainslug Difficult 1 With Money,6,images/assets/snowy_money.jpg,learning,20,images/assets/success_money.jpg,images/assets/gameover.jpg,,,,,,,,,,,,,0,7,7,0,1,,,,,,,,,,,,,,,,,,,,,,,,,,,,,,,,
,,,,,,,,,,,,63dd3dd2593c92be97d8dbde,001,3,2025-04-15_06h06.25.173,avatar_quest_3AFC_legacy,2022.1.3,Win32,59.88023952,63dd3dd2593c92be97d8dbde,67fe37cb3bd870bba73819bd,67fe58c2afe44b41795eec52,,,,,,,,,,,,,,,,,,,,,,With Brainslug No Barriers No Money,0,images/assets/snowy_original.jpg,learning,10,images/assets/success.jpg,images/assets/gameover.jpg,,,,,,,,,,,,,0,8,8,5,1,,,,,,,,,,,,,,,,,,,,,,,,,,,,,,,,
,,,,,,,,,,,,63dd3dd2593c92be97d8dbde,001,3,2025-04-15_06h06.25.173,avatar_quest_3AFC_legacy,2022.1.3,Win32,59.88023952,63dd3dd2593c92be97d8dbde,67fe37cb3bd870bba73819bd,67fe58c2afe44b41795eec52,,,,,,,,,,,,,,,,,,,,,,With Brainslug No Barriers With Money,0,images/assets/snowy_money.jpg,learning,10,images/assets/success_money.jpg,images/assets/gameover.jpg,,,,,,,,,,,,,0,9,9,4,1,,,,,,,,,,,,,,,,,,,,,,,,,,,,,,,,
,,,,,,,,,,,,63dd3dd2593c92be97d8dbde,001,3,2025-04-15_06h06.25.173,avatar_quest_3AFC_legacy,2022.1.3,Win32,59.88023952,63dd3dd2593c92be97d8dbde,67fe37cb3bd870bba73819bd,67fe58c2afe44b41795eec52,,,,,,,,,,,,,,,,,,,,,,With Brainslug Difficult 2 No Money,12,images/assets/snowy_original.jpg,learning,20,images/assets/success.jpg,images/assets/gameover.jpg,,,,,,,,,,,,,0,10,10,3,1,,,,,,,,,,,,,,,,,,,,,,,,,,,,,,,,
,,,,,,,,,,,,63dd3dd2593c92be97d8dbde,001,3,2025-04-15_06h06.25.173,avatar_quest_3AFC_legacy,2022.1.3,Win32,59.88023952,63dd3dd2593c92be97d8dbde,67fe37cb3bd870bba73819bd,67fe58c2afe44b41795eec52,,,,,,,,,,,,,,,,,,,,,,,,,,,,,,,,,,,,,,,,,,,,,,,,,,,,,,,9,0,9,0,1,,,,,,,,,,,,,,,,,,
,,,,,,,,,,,,63dd3dd2593c92be97d8dbde,001,3,2025-04-15_06h06.25.173,avatar_quest_3AFC_legacy,2022.1.3,Win32,59.88023952,63dd3dd2593c92be97d8dbde,67fe37cb3bd870bba73819bd,67fe58c2afe44b41795eec52,,,,,,,,,,,,,,,,,,,,,,With Brainslug Difficult 2 No Money,12,images/assets/snowy_original.jpg,learning,20,images/assets/success.jpg,images/assets/gameover.jpg,,,,,,,,With Brainslug Difficult 2 With Money,With Brainslug Difficult 1 No Money,right,0.7001,"[""With Brainslug Difficult 1 No Money"",""With Brainslug Difficult 2 No Money""]",0,0,0,3,1,,,,,,,,,,,,,,,,,,,,,,,,,,,,,,,,
,,,,,,,,,,,,63dd3dd2593c92be97d8dbde,001,3,2025-04-15_06h06.25.173,avatar_quest_3AFC_legacy,2022.1.3,Win32,59.88023952,63dd3dd2593c92be97d8dbde,67fe37cb3bd870bba73819bd,67fe58c2afe44b41795eec52,"[""left"",""left"",""left"",""left"",""right"",""right"",""right"",""right"",""right"",""right"",""right"",""left"",""left"",""right"",""right"",""left"",""left"",""left"",""right"",""right"",""right"",""left"",""right"",""right"",""right"",""left"",""right"",""right"",""right"",""right"",""right"",""right"",""right"",""right"",""right"",""left"",""left"",""left"",""left"",""left"",""right"",""right"",""right"",""right"",""right"",""right""]","[0.06260000002384913,0.22769999998808998,0.3801000000238446,0.5483000000119205,0.8126999999881264,0.994400000035796,1.300199999988081,1.444500000000005,1.5963000000119223,1.748300000011966,1.910900000035781,2.132400000035773,2.3111000000238846,2.4998000000119305,2.6616000000238387,2.82830000001195,3.011000000000024,3.164400000035812,3.3966000000238523,3.5781000000238805,3.7615000000000123,3.844900000035807,4.0641000000238705,4.2620000000000005,4.396500000000003,4.580699999988099,4.781300000011925,4.9451999999881195,5.197100000023852,5.395400000035806,5.548699999988116,5.749100000023873,5.895600000023876,6.128500000000031,6.263100000023883,6.549100000023884,6.74990000003578,6.90090000003579,7.078199999988101,7.26210000002385,7.349000000000046,7.511500000000012,7.662600000023872,7.845900000035783,8.029100000023845,8.177699999988079]",,calibration,With Brainslug Difficult 2 With Money,14,10.9786,8.717,20,6,0,TRUE,na,na,na,na,,,,,,,,,,,,,,,,,,,,,,,,,,,,,,,,,,0,0,0,0,1,,,,,,,,,,,,,,,,,,,,,,,
,,,,,,,,,,,,63dd3dd2593c92be97d8dbde,001,3,2025-04-15_06h06.25.173,avatar_quest_3AFC_legacy,2022.1.3,Win32,59.88023952,63dd3dd2593c92be97d8dbde,67fe37cb3bd870bba73819bd,67fe58c2afe44b41795eec52,,,,,,,,,,,,,,,,,,,,,,With Brainslug Difficult 2 With Money,12,images/assets/snowy_money.jpg,learning,20,images/assets/success_money.jpg,images/assets/gameover.jpg,,,,,,,,,,,,,0,1,1,2,1,,,,,,,,,,,,,,,,,,,,,,,,,,,,,,,,
,,,,,,,,,,,,63dd3dd2593c92be97d8dbde,001,3,2025-04-15_06h06.25.173,avatar_quest_3AFC_legacy,2022.1.3,Win32,59.88023952,63dd3dd2593c92be97d8dbde,67fe37cb3bd870bba73819bd,67fe58c2afe44b41795eec52,,,,,,,,,,,,,,,,,,,,,,With Brainslug No Barriers With Money,0,images/assets/snowy_money.jpg,learning,10,images/assets/success_money.jpg,images/assets/gameover.jpg,,,,,,,,,,,,,0,2,2,4,1,,,,,,,,,,,,,,,,,,,,,,,,,,,,,,,,
,,,,,,,,,,,,63dd3dd2593c92be97d8dbde,001,3,2025-04-15_06h06.25.173,avatar_quest_3AFC_legacy,2022.1.3,Win32,59.88023952,63dd3dd2593c92be97d8dbde,67fe37cb3bd870bba73819bd,67fe58c2afe44b41795eec52,,,,,,,,,,,,,,,,,,,,,,With Brainslug Difficult 1 With Money,6,images/assets/snowy_money.jpg,learning,20,images/assets/success_money.jpg,images/assets/gameover.jpg,,,,,,,,,,,,,0,3,3,0,1,,,,,,,,,,,,,,,,,,,,,,,,,,,,,,,,
,,,,,,,,,,,,63dd3dd2593c92be97d8dbde,001,3,2025-04-15_06h06.25.173,avatar_quest_3AFC_legacy,2022.1.3,Win32,59.88023952,63dd3dd2593c92be97d8dbde,67fe37cb3bd870bba73819bd,67fe58c2afe44b41795eec52,,,,,,,,,,,,,,,,,,,,,,No Brainslug No Barriers No Money,0,images/assets/snowy_original.jpg,learning,10,images/assets/success.jpg,images/assets/gameover.jpg,,,,,,,,,,,,,0,4,4,10,1,,,,,,,,,,,,,,,,,,,,,,,,,,,,,,,,
,,,,,,,,,,,,63dd3dd2593c92be97d8dbde,001,3,2025-04-15_06h06.25.173,avatar_quest_3AFC_legacy,2022.1.3,Win32,59.88023952,63dd3dd2593c92be97d8dbde,67fe37cb3bd870bba73819bd,67fe58c2afe44b41795eec52,,,,,,,,,,,,,,,,,,,,,,No Brainslug Difficult 2 No Money,12,images/assets/snowy_original.jpg,learning,20,images/assets/success.jpg,images/assets/gameover.jpg,,,,,,,,,,,,,0,5,5,8,1,,,,,,,,,,,,,,,,,,,,,,,,,,,,,,,,
,,,,,,,,,,,,63dd3dd2593c92be97d8dbde,001,3,2025-04-15_06h06.25.173,avatar_quest_3AFC_legacy,2022.1.3,Win32,59.88023952,63dd3dd2593c92be97d8dbde,67fe37cb3bd870bba73819bd,67fe58c2afe44b41795eec52,,,,,,,,,,,,,,,,,,,,,,No Brainslug Difficult 2 With Money,12,images/assets/snowy_money.jpg,learning,20,images/assets/success_money.jpg,images/assets/gameover.jpg,,,,,,,,,,,,,0,6,6,7,1,,,,,,,,,,,,,,,,,,,,,,,,,,,,,,,,
,,,,,,,,,,,,63dd3dd2593c92be97d8dbde,001,3,2025-04-15_06h06.25.173,avatar_quest_3AFC_legacy,2022.1.3,Win32,59.88023952,63dd3dd2593c92be97d8dbde,67fe37cb3bd870bba73819bd,67fe58c2afe44b41795eec52,,,,,,,,,,,,,,,,,,,,,,No Brainslug No Barriers With Money,0,images/assets/snowy_money.jpg,learning,10,images/assets/success_money.jpg,images/assets/gameover.jpg,,,,,,,,,,,,,0,7,7,9,1,,,,,,,,,,,,,,,,,,,,,,,,,,,,,,,,
,,,,,,,,,,,,63dd3dd2593c92be97d8dbde,001,3,2025-04-15_06h06.25.173,avatar_quest_3AFC_legacy,2022.1.3,Win32,59.88023952,63dd3dd2593c92be97d8dbde,67fe37cb3bd870bba73819bd,67fe58c2afe44b41795eec52,,,,,,,,,,,,,,,,,,,,,,No Brainslug Difficult 1 No Money,6,images/assets/snowy_original.jpg,learning,20,images/assets/success.jpg,images/assets/gameover.jpg,,,,,,,,,,,,,0,8,8,6,1,,,,,,,,,,,,,,,,,,,,,,,,,,,,,,,,
,,,,,,,,,,,,63dd3dd2593c92be97d8dbde,001,3,2025-04-15_06h06.25.173,avatar_quest_3AFC_legacy,2022.1.3,Win32,59.88023952,63dd3dd2593c92be97d8dbde,67fe37cb3bd870bba73819bd,67fe58c2afe44b41795eec52,,,,,,,,,,,,,,,,,,,,,,With Brainslug Difficult 1 No Money,6,images/assets/snowy_original.jpg,learning,20,images/assets/success.jpg,images/assets/gameover.jpg,,,,,,,,,,,,,0,9,9,1,1,,,,,,,,,,,,,,,,,,,,,,,,,,,,,,,,
,,,,,,,,,,,,63dd3dd2593c92be97d8dbde,001,3,2025-04-15_06h06.25.173,avatar_quest_3AFC_legacy,2022.1.3,Win32,59.88023952,63dd3dd2593c92be97d8dbde,67fe37cb3bd870bba73819bd,67fe58c2afe44b41795eec52,,,,,,,,,,,,,,,,,,,,,,With Brainslug No Barriers No Money,0,images/assets/snowy_original.jpg,learning,10,images/assets/success.jpg,images/assets/gameover.jpg,,,,,,,,,,,,,0,10,10,5,1,,,,,,,,,,,,,,,,,,,,,,,,,,,,,,,,
,,,,,,,,,,,,63dd3dd2593c92be97d8dbde,001,3,2025-04-15_06h06.25.173,avatar_quest_3AFC_legacy,2022.1.3,Win32,59.88023952,63dd3dd2593c92be97d8dbde,67fe37cb3bd870bba73819bd,67fe58c2afe44b41795eec52,,,,,,,,,,,,,,,,,,,,,,,,,,,,,,,,,,,,,,,,,,,,,,,,,,,,,,,10,0,10,0,1,,,,,,,,,,,,,,,,,,
,,,,,,,,,,,,63dd3dd2593c92be97d8dbde,001,3,2025-04-15_06h06.25.173,avatar_quest_3AFC_legacy,2022.1.3,Win32,59.88023952,63dd3dd2593c92be97d8dbde,67fe37cb3bd870bba73819bd,67fe58c2afe44b41795eec52,,,,,,,,,,,,,,,,,,,,,,With Brainslug No Barriers No Money,0,images/assets/snowy_original.jpg,learning,10,images/assets/success.jpg,images/assets/gameover.jpg,,,,,,,,With Brainslug Difficult 2 With Money,With Brainslug Difficult 1 No Money,right,0.8019,"[""With Brainslug Difficult 1 No Money"",""With Brainslug Difficult 2 No Money""]",0,0,0,5,1,,,,,,,,,,,,,,,,,,,,,,,,,,,,,,,,
,,,,,,,,,,,,63dd3dd2593c92be97d8dbde,001,3,2025-04-15_06h06.25.173,avatar_quest_3AFC_legacy,2022.1.3,Win32,59.88023952,63dd3dd2593c92be97d8dbde,67fe37cb3bd870bba73819bd,67fe58c2afe44b41795eec52,,,,,,,,,,,,,,,,,,,,,,With Brainslug No Barriers With Money,0,images/assets/snowy_money.jpg,learning,10,images/assets/success_money.jpg,images/assets/gameover.jpg,,,,,,,,,,,,,0,1,1,4,1,,,,,,,,,,,,,,,,,,,,,,,,,,,,,,,,
,,,,,,,,,,,,63dd3dd2593c92be97d8dbde,001,3,2025-04-15_06h06.25.173,avatar_quest_3AFC_legacy,2022.1.3,Win32,59.88023952,63dd3dd2593c92be97d8dbde,67fe37cb3bd870bba73819bd,67fe58c2afe44b41795eec52,,,,,,,,,,,,,,,,,,,,,,No Brainslug No Barriers With Money,0,images/assets/snowy_money.jpg,learning,10,images/assets/success_money.jpg,images/assets/gameover.jpg,,,,,,,,,,,,,0,2,2,9,1,,,,,,,,,,,,,,,,,,,,,,,,,,,,,,,,
,,,,,,,,,,,,63dd3dd2593c92be97d8dbde,001,3,2025-04-15_06h06.25.173,avatar_quest_3AFC_legacy,2022.1.3,Win32,59.88023952,63dd3dd2593c92be97d8dbde,67fe37cb3bd870bba73819bd,67fe58c2afe44b41795eec52,,,,,,,,,,,,,,,,,,,,,,With Brainslug Difficult 1 With Money,6,images/assets/snowy_money.jpg,learning,20,images/assets/success_money.jpg,images/assets/gameover.jpg,,,,,,,,,,,,,0,3,3,0,1,,,,,,,,,,,,,,,,,,,,,,,,,,,,,,,,
,,,,,,,,,,,,63dd3dd2593c92be97d8dbde,001,3,2025-04-15_06h06.25.173,avatar_quest_3AFC_legacy,2022.1.3,Win32,59.88023952,63dd3dd2593c92be97d8dbde,67fe37cb3bd870bba73819bd,67fe58c2afe44b41795eec52,,,,,,,,,,,,,,,,,,,,,,With Brainslug Difficult 1 No Money,6,images/assets/snowy_original.jpg,learning,20,images/assets/success.jpg,images/assets/gameover.jpg,,,,,,,,,,,,,0,4,4,1,1,,,,,,,,,,,,,,,,,,,,,,,,,,,,,,,,
,,,,,,,,,,,,63dd3dd2593c92be97d8dbde,001,3,2025-04-15_06h06.25.173,avatar_quest_3AFC_legacy,2022.1.3,Win32,59.88023952,63dd3dd2593c92be97d8dbde,67fe37cb3bd870bba73819bd,67fe58c2afe44b41795eec52,,,,,,,,,,,,,,,,,,,,,,No Brainslug Difficult 2 No Money,12,images/assets/snowy_original.jpg,learning,20,images/assets/success.jpg,images/assets/gameover.jpg,,,,,,,,,,,,,0,5,5,8,1,,,,,,,,,,,,,,,,,,,,,,,,,,,,,,,,
,,,,,,,,,,,,63dd3dd2593c92be97d8dbde,001,3,2025-04-15_06h06.25.173,avatar_quest_3AFC_legacy,2022.1.3,Win32,59.88023952,63dd3dd2593c92be97d8dbde,67fe37cb3bd870bba73819bd,67fe58c2afe44b41795eec52,,,,,,,,,,,,,,,,,,,,,,No Brainslug Difficult 1 No Money,6,images/assets/snowy_original.jpg,learning,20,images/assets/success.jpg,images/assets/gameover.jpg,,,,,,,,,,,,,0,6,6,6,1,,,,,,,,,,,,,,,,,,,,,,,,,,,,,,,,
,,,,,,,,,,,,63dd3dd2593c92be97d8dbde,001,3,2025-04-15_06h06.25.173,avatar_quest_3AFC_legacy,2022.1.3,Win32,59.88023952,63dd3dd2593c92be97d8dbde,67fe37cb3bd870bba73819bd,67fe58c2afe44b41795eec52,,,,,,,,,,,,,,,,,,,,,,No Brainslug No Barriers No Money,0,images/assets/snowy_original.jpg,learning,10,images/assets/success.jpg,images/assets/gameover.jpg,,,,,,,,,,,,,0,7,7,10,1,,,,,,,,,,,,,,,,,,,,,,,,,,,,,,,,
,,,,,,,,,,,,63dd3dd2593c92be97d8dbde,001,3,2025-04-15_06h06.25.173,avatar_quest_3AFC_legacy,2022.1.3,Win32,59.88023952,63dd3dd2593c92be97d8dbde,67fe37cb3bd870bba73819bd,67fe58c2afe44b41795eec52,,,,,,,,,,,,,,,,,,,,,,With Brainslug Difficult 2 No Money,12,images/assets/snowy_original.jpg,learning,20,images/assets/success.jpg,images/assets/gameover.jpg,,,,,,,,,,,,,0,8,8,3,1,,,,,,,,,,,,,,,,,,,,,,,,,,,,,,,,
,,,,,,,,,,,,63dd3dd2593c92be97d8dbde,001,3,2025-04-15_06h06.25.173,avatar_quest_3AFC_legacy,2022.1.3,Win32,59.88023952,63dd3dd2593c92be97d8dbde,67fe37cb3bd870bba73819bd,67fe58c2afe44b41795eec52,"[""left"",""left"",""left"",""right"",""right"",""right"",""right"",""right"",""left"",""left"",""left"",""left"",""left"",""left"",""left"",""right"",""right"",""right"",""left"",""left"",""left"",""left"",""right"",""left"",""left"",""left"",""right"",""right"",""right"",""right"",""left"",""left"",""left"",""left"",""right"",""right"",""right"",""right"",""right"",""right"",""right"",""right"",""right"",""right"",""right""]","[0.3310000000000173,0.5106000000238851,0.6943999999761559,1.1111000000238391,1.27800000000002,1.4443000000119355,1.578199999988101,1.7275000000000205,1.928300000011916,2.1103999999761527,2.260899999976175,2.527500000000032,2.710699999988094,2.860500000000002,3.027600000023881,3.2436999999881095,3.427500000000009,3.5446999999880973,3.7773999999761827,3.9775000000000205,4.111399999976186,4.261000000000024,4.377499999999998,4.427600000023858,4.611199999988116,4.777300000011962,4.944199999988086,5.127399999976205,5.2606999999881054,5.410800000011932,5.527399999976183,5.710800000011943,5.861100000023839,5.994000000000028,6.17719999998809,6.344300000011913,6.460699999988094,6.611000000000047,6.810800000011966,6.927899999976205,7.098500000000001,7.249600000023861,7.436199999988105,7.604199999988111,7.767500000000041]",,calibration,With Brainslug Difficult 2 With Money,15,10.9786,8.2831,22,8,0,TRUE,na,na,na,na,,,,,,,,,,,,,,,,,,,,,,,,,,,,,,,,,,0,0,0,0,1,,,,,,,,,,,,,,,,,,,,,,,
,,,,,,,,,,,,63dd3dd2593c92be97d8dbde,001,3,2025-04-15_06h06.25.173,avatar_quest_3AFC_legacy,2022.1.3,Win32,59.88023952,63dd3dd2593c92be97d8dbde,67fe37cb3bd870bba73819bd,67fe58c2afe44b41795eec52,,,,,,,,,,,,,,,,,,,,,,With Brainslug Difficult 2 With Money,12,images/assets/snowy_money.jpg,learning,20,images/assets/success_money.jpg,images/assets/gameover.jpg,,,,,,,,,,,,,0,9,9,2,1,,,,,,,,,,,,,,,,,,,,,,,,,,,,,,,,
,,,,,,,,,,,,63dd3dd2593c92be97d8dbde,001,3,2025-04-15_06h06.25.173,avatar_quest_3AFC_legacy,2022.1.3,Win32,59.88023952,63dd3dd2593c92be97d8dbde,67fe37cb3bd870bba73819bd,67fe58c2afe44b41795eec52,,,,,,,,,,,,,,,,,,,,,,No Brainslug Difficult 2 With Money,12,images/assets/snowy_money.jpg,learning,20,images/assets/success_money.jpg,images/assets/gameover.jpg,,,,,,,,,,,,,0,10,10,7,1,,,,,,,,,,,,,,,,,,,,,,,,,,,,,,,,
,,,,,,,,,,,,63dd3dd2593c92be97d8dbde,001,3,2025-04-15_06h06.25.173,avatar_quest_3AFC_legacy,2022.1.3,Win32,59.88023952,63dd3dd2593c92be97d8dbde,67fe37cb3bd870bba73819bd,67fe58c2afe44b41795eec52,,,,,,,,,,,,,,,,,,,,,,,,,,,,,,,,,,,,,,,,,,,,,,,,,,,,,,,11,0,11,0,1,,,,,,,,,,,,,,,,,,
,,,,,,,,,,,,63dd3dd2593c92be97d8dbde,001,3,2025-04-15_06h06.25.173,avatar_quest_3AFC_legacy,2022.1.3,Win32,59.88023952,63dd3dd2593c92be97d8dbde,67fe37cb3bd870bba73819bd,67fe58c2afe44b41795eec52,,,,,,,,,,,,,,,,,,,,,,,,,,,,,,,,,,,,,,,,,,,,,,,,,,,,,,,,,,,,0,0,0,0,1,1,With Brainslug Difficult 1 No Money,images/assets/With Brainslug Difficult 1 No Money.png,With Brainslug Difficult 2 No Money,images/assets/With Brainslug Difficult 2 No Money.png,With Brainslug Difficult 2 With Money,images/assets/With Brainslug Difficult 2 With Money.png,Achievement vs. money,,,,,
,,,,,,,,,,,,63dd3dd2593c92be97d8dbde,001,3,2025-04-15_06h06.25.173,avatar_quest_3AFC_legacy,2022.1.3,Win32,59.88023952,63dd3dd2593c92be97d8dbde,67fe37cb3bd870bba73819bd,67fe58c2afe44b41795eec52,,,,,,,,,,,,,,,,,,,,,,With Brainslug No Barriers No Money,0,images/assets/snowy_original.jpg,learning,10,images/assets/success.jpg,images/assets/gameover.jpg,,,,,,,,No Brainslug No Barriers No Money,No Brainslug No Barriers No Money,left,0.0006,"[""No Brainslug Difficult 1 No Money"",""No Brainslug No Barriers With Money""]",0,0,0,5,1,,,,,,,,,,,,,,,,,,,,,,,,,,,,,,,,
,,,,,,,,,,,,63dd3dd2593c92be97d8dbde,001,3,2025-04-15_06h06.25.173,avatar_quest_3AFC_legacy,2022.1.3,Win32,59.88023952,63dd3dd2593c92be97d8dbde,67fe37cb3bd870bba73819bd,67fe58c2afe44b41795eec52,,,,,,,,,,,,,,,,,,,,,,No Brainslug Difficult 1 No Money,6,images/assets/snowy_original.jpg,learning,20,images/assets/success.jpg,images/assets/gameover.jpg,,,,,,,,,,,,,0,1,1,6,1,,,,,,,,,,,,,,,,,,,,,,,,,,,,,,,,
,,,,,,,,,,,,63dd3dd2593c92be97d8dbde,001,3,2025-04-15_06h06.25.173,avatar_quest_3AFC_legacy,2022.1.3,Win32,59.88023952,63dd3dd2593c92be97d8dbde,67fe37cb3bd870bba73819bd,67fe58c2afe44b41795eec52,,,,,,,,,,,,,,,,,,,,,,With Brainslug Difficult 2 With Money,12,images/assets/snowy_money.jpg,learning,20,images/assets/success_money.jpg,images/assets/gameover.jpg,,,,,,,,,,,,,0,2,2,2,1,,,,,,,,,,,,,,,,,,,,,,,,,,,,,,,,
,,,,,,,,,,,,63dd3dd2593c92be97d8dbde,001,3,2025-04-15_06h06.25.173,avatar_quest_3AFC_legacy,2022.1.3,Win32,59.88023952,63dd3dd2593c92be97d8dbde,67fe37cb3bd870bba73819bd,67fe58c2afe44b41795eec52,,,,,,,,,,,,,,,,,,,,,,With Brainslug No Barriers With Money,0,images/assets/snowy_money.jpg,learning,10,images/assets/success_money.jpg,images/assets/gameover.jpg,,,,,,,,,,,,,0,3,3,4,1,,,,,,,,,,,,,,,,,,,,,,,,,,,,,,,,
,,,,,,,,,,,,63dd3dd2593c92be97d8dbde,001,3,2025-04-15_06h06.25.173,avatar_quest_3AFC_legacy,2022.1.3,Win32,59.88023952,63dd3dd2593c92be97d8dbde,67fe37cb3bd870bba73819bd,67fe58c2afe44b41795eec52,,,,,,,,,,,,,,,,,,,,,,No Brainslug Difficult 2 With Money,12,images/assets/snowy_money.jpg,learning,20,images/assets/success_money.jpg,images/assets/gameover.jpg,,,,,,,,,,,,,0,4,4,7,1,,,,,,,,,,,,,,,,,,,,,,,,,,,,,,,,
,,,,,,,,,,,,63dd3dd2593c92be97d8dbde,001,3,2025-04-15_06h06.25.173,avatar_quest_3AFC_legacy,2022.1.3,Win32,59.88023952,63dd3dd2593c92be97d8dbde,67fe37cb3bd870bba73819bd,67fe58c2afe44b41795eec52,"[""left"",""left"",""left"",""left"",""right"",""right"",""left"",""right"",""right"",""left"",""left"",""right"",""right"",""right"",""right"",""left""]","[0.16739999997616906,0.33850000000001046,0.5384999999999991,0.7178000000119482,0.8841999999880841,1.0671999999880768,1.386800000011931,1.9068000000119127,2.074599999964221,2.3546999999880995,2.5868000000119196,2.9068000000119127,3.971099999964224,4.134300000011933,4.634899999976142,6.4013999999761495]",,calibration,No Brainslug No Barriers No Money,16,8.78288,7.7169,14,0,136,TRUE,na,na,na,na,,,,,,,,,,,,,,,,,,,,,,,,,,,,,,,,,,0,0,0,0,1,,,,,,,,,,,,,,,,,,,,,,,
,,,,,,,,,,,,63dd3dd2593c92be97d8dbde,001,3,2025-04-15_06h06.25.173,avatar_quest_3AFC_legacy,2022.1.3,Win32,59.88023952,63dd3dd2593c92be97d8dbde,67fe37cb3bd870bba73819bd,67fe58c2afe44b41795eec52,,,,,,,,,,,,,,,,,,,,,,No Brainslug No Barriers No Money,0,images/assets/snowy_original.jpg,learning,10,images/assets/success.jpg,images/assets/gameover.jpg,,,,,,,,,,,,,0,5,5,10,1,,,,,,,,,,,,,,,,,,,,,,,,,,,,,,,,
,,,,,,,,,,,,63dd3dd2593c92be97d8dbde,001,3,2025-04-15_06h06.25.173,avatar_quest_3AFC_legacy,2022.1.3,Win32,59.88023952,63dd3dd2593c92be97d8dbde,67fe37cb3bd870bba73819bd,67fe58c2afe44b41795eec52,,,,,,,,,,,,,,,,,,,,,,With Brainslug Difficult 2 No Money,12,images/assets/snowy_original.jpg,learning,20,images/assets/success.jpg,images/assets/gameover.jpg,,,,,,,,,,,,,0,6,6,3,1,,,,,,,,,,,,,,,,,,,,,,,,,,,,,,,,
,,,,,,,,,,,,63dd3dd2593c92be97d8dbde,001,3,2025-04-15_06h06.25.173,avatar_quest_3AFC_legacy,2022.1.3,Win32,59.88023952,63dd3dd2593c92be97d8dbde,67fe37cb3bd870bba73819bd,67fe58c2afe44b41795eec52,,,,,,,,,,,,,,,,,,,,,,With Brainslug Difficult 1 No Money,6,images/assets/snowy_original.jpg,learning,20,images/assets/success.jpg,images/assets/gameover.jpg,,,,,,,,,,,,,0,7,7,1,1,,,,,,,,,,,,,,,,,,,,,,,,,,,,,,,,
,,,,,,,,,,,,63dd3dd2593c92be97d8dbde,001,3,2025-04-15_06h06.25.173,avatar_quest_3AFC_legacy,2022.1.3,Win32,59.88023952,63dd3dd2593c92be97d8dbde,67fe37cb3bd870bba73819bd,67fe58c2afe44b41795eec52,,,,,,,,,,,,,,,,,,,,,,With Brainslug Difficult 1 With Money,6,images/assets/snowy_money.jpg,learning,20,images/assets/success_money.jpg,images/assets/gameover.jpg,,,,,,,,,,,,,0,8,8,0,1,,,,,,,,,,,,,,,,,,,,,,,,,,,,,,,,
,,,,,,,,,,,,63dd3dd2593c92be97d8dbde,001,3,2025-04-15_06h06.25.173,avatar_quest_3AFC_legacy,2022.1.3,Win32,59.88023952,63dd3dd2593c92be97d8dbde,67fe37cb3bd870bba73819bd,67fe58c2afe44b41795eec52,,,,,,,,,,,,,,,,,,,,,,No Brainslug No Barriers With Money,0,images/assets/snowy_money.jpg,learning,10,images/assets/success_money.jpg,images/assets/gameover.jpg,,,,,,,,,,,,,0,9,9,9,1,,,,,,,,,,,,,,,,,,,,,,,,,,,,,,,,
,,,,,,,,,,,,63dd3dd2593c92be97d8dbde,001,3,2025-04-15_06h06.25.173,avatar_quest_3AFC_legacy,2022.1.3,Win32,59.88023952,63dd3dd2593c92be97d8dbde,67fe37cb3bd870bba73819bd,67fe58c2afe44b41795eec52,,,,,,,,,,,,,,,,,,,,,,No Brainslug Difficult 2 No Money,12,images/assets/snowy_original.jpg,learning,20,images/assets/success.jpg,images/assets/gameover.jpg,,,,,,,,,,,,,0,10,10,8,1,,,,,,,,,,,,,,,,,,,,,,,,,,,,,,,,
,,,,,,,,,,,,63dd3dd2593c92be97d8dbde,001,3,2025-04-15_06h06.25.173,avatar_quest_3AFC_legacy,2022.1.3,Win32,59.88023952,63dd3dd2593c92be97d8dbde,67fe37cb3bd870bba73819bd,67fe58c2afe44b41795eec52,,,,,,,,,,,,,,,,,,,,,,,,,,,,,,,,,,,,,,,,,,,,,,,,,,,,,,,0,0,0,0,1,,,,,,,,,,,,,,,,,,
,,,,,,,,,,,,63dd3dd2593c92be97d8dbde,001,3,2025-04-15_06h06.25.173,avatar_quest_3AFC_legacy,2022.1.3,Win32,59.88023952,63dd3dd2593c92be97d8dbde,67fe37cb3bd870bba73819bd,67fe58c2afe44b41795eec52,,,,,,,,,,,,,,,,,,,,,,No Brainslug Difficult 2 No Money,12,images/assets/snowy_original.jpg,learning,20,images/assets/success.jpg,images/assets/gameover.jpg,,,,,,,,No Brainslug No Barriers With Money,No Brainslug No Barriers No Money,right,0.9808,"[""No Brainslug No Barriers No Money"",""No Brainslug Difficult 1 No Money""]",0,0,0,8,1,,,,,,,,,,,,,,,,,,,,,,,,,,,,,,,,
,,,,,,,,,,,,63dd3dd2593c92be97d8dbde,001,3,2025-04-15_06h06.25.173,avatar_quest_3AFC_legacy,2022.1.3,Win32,59.88023952,63dd3dd2593c92be97d8dbde,67fe37cb3bd870bba73819bd,67fe58c2afe44b41795eec52,,,,,,,,,,,,,,,,,,,,,,No Brainslug No Barriers No Money,0,images/assets/snowy_original.jpg,learning,10,images/assets/success.jpg,images/assets/gameover.jpg,,,,,,,,,,,,,0,1,1,10,1,,,,,,,,,,,,,,,,,,,,,,,,,,,,,,,,
,,,,,,,,,,,,63dd3dd2593c92be97d8dbde,001,3,2025-04-15_06h06.25.173,avatar_quest_3AFC_legacy,2022.1.3,Win32,59.88023952,63dd3dd2593c92be97d8dbde,67fe37cb3bd870bba73819bd,67fe58c2afe44b41795eec52,,,,,,,,,,,,,,,,,,,,,,With Brainslug Difficult 1 With Money,6,images/assets/snowy_money.jpg,learning,20,images/assets/success_money.jpg,images/assets/gameover.jpg,,,,,,,,,,,,,0,2,2,0,1,,,,,,,,,,,,,,,,,,,,,,,,,,,,,,,,
,,,,,,,,,,,,63dd3dd2593c92be97d8dbde,001,3,2025-04-15_06h06.25.173,avatar_quest_3AFC_legacy,2022.1.3,Win32,59.88023952,63dd3dd2593c92be97d8dbde,67fe37cb3bd870bba73819bd,67fe58c2afe44b41795eec52,"[""left"",""left"",""right"",""right"",""right"",""left"",""left""]","[1.874600000023861,2.471600000023841,3.6719000000357482,4.058800000011956,4.274800000011908,4.938700000047675,5.475000000000023]",,calibration,No Brainslug No Barriers With Money,17,8.78288,6.2168,7,0,40,TRUE,na,na,na,na,,,,,,,,,,,,,,,,,,,,,,,,,,,,,,,,,,0,0,0,0,1,,,,,,,,,,,,,,,,,,,,,,,
,,,,,,,,,,,,63dd3dd2593c92be97d8dbde,001,3,2025-04-15_06h06.25.173,avatar_quest_3AFC_legacy,2022.1.3,Win32,59.88023952,63dd3dd2593c92be97d8dbde,67fe37cb3bd870bba73819bd,67fe58c2afe44b41795eec52,,,,,,,,,,,,,,,,,,,,,,No Brainslug No Barriers With Money,0,images/assets/snowy_money.jpg,learning,10,images/assets/success_money.jpg,images/assets/gameover.jpg,,,,,,,,,,,,,0,3,3,9,1,,,,,,,,,,,,,,,,,,,,,,,,,,,,,,,,
,,,,,,,,,,,,63dd3dd2593c92be97d8dbde,001,3,2025-04-15_06h06.25.173,avatar_quest_3AFC_legacy,2022.1.3,Win32,59.88023952,63dd3dd2593c92be97d8dbde,67fe37cb3bd870bba73819bd,67fe58c2afe44b41795eec52,,,,,,,,,,,,,,,,,,,,,,With Brainslug No Barriers With Money,0,images/assets/snowy_money.jpg,learning,10,images/assets/success_money.jpg,images/assets/gameover.jpg,,,,,,,,,,,,,0,4,4,4,1,,,,,,,,,,,,,,,,,,,,,,,,,,,,,,,,
,,,,,,,,,,,,63dd3dd2593c92be97d8dbde,001,3,2025-04-15_06h06.25.173,avatar_quest_3AFC_legacy,2022.1.3,Win32,59.88023952,63dd3dd2593c92be97d8dbde,67fe37cb3bd870bba73819bd,67fe58c2afe44b41795eec52,,,,,,,,,,,,,,,,,,,,,,No Brainslug Difficult 2 With Money,12,images/assets/snowy_money.jpg,learning,20,images/assets/success_money.jpg,images/assets/gameover.jpg,,,,,,,,,,,,,0,5,5,7,1,,,,,,,,,,,,,,,,,,,,,,,,,,,,,,,,
,,,,,,,,,,,,63dd3dd2593c92be97d8dbde,001,3,2025-04-15_06h06.25.173,avatar_quest_3AFC_legacy,2022.1.3,Win32,59.88023952,63dd3dd2593c92be97d8dbde,67fe37cb3bd870bba73819bd,67fe58c2afe44b41795eec52,,,,,,,,,,,,,,,,,,,,,,With Brainslug Difficult 2 No Money,12,images/assets/snowy_original.jpg,learning,20,images/assets/success.jpg,images/assets/gameover.jpg,,,,,,,,,,,,,0,6,6,3,1,,,,,,,,,,,,,,,,,,,,,,,,,,,,,,,,
,,,,,,,,,,,,63dd3dd2593c92be97d8dbde,001,3,2025-04-15_06h06.25.173,avatar_quest_3AFC_legacy,2022.1.3,Win32,59.88023952,63dd3dd2593c92be97d8dbde,67fe37cb3bd870bba73819bd,67fe58c2afe44b41795eec52,,,,,,,,,,,,,,,,,,,,,,With Brainslug Difficult 2 With Money,12,images/assets/snowy_money.jpg,learning,20,images/assets/success_money.jpg,images/assets/gameover.jpg,,,,,,,,,,,,,0,7,7,2,1,,,,,,,,,,,,,,,,,,,,,,,,,,,,,,,,
,,,,,,,,,,,,63dd3dd2593c92be97d8dbde,001,3,2025-04-15_06h06.25.173,avatar_quest_3AFC_legacy,2022.1.3,Win32,59.88023952,63dd3dd2593c92be97d8dbde,67fe37cb3bd870bba73819bd,67fe58c2afe44b41795eec52,,,,,,,,,,,,,,,,,,,,,,With Brainslug Difficult 1 No Money,6,images/assets/snowy_original.jpg,learning,20,images/assets/success.jpg,images/assets/gameover.jpg,,,,,,,,,,,,,0,8,8,1,1,,,,,,,,,,,,,,,,,,,,,,,,,,,,,,,,
,,,,,,,,,,,,63dd3dd2593c92be97d8dbde,001,3,2025-04-15_06h06.25.173,avatar_quest_3AFC_legacy,2022.1.3,Win32,59.88023952,63dd3dd2593c92be97d8dbde,67fe37cb3bd870bba73819bd,67fe58c2afe44b41795eec52,,,,,,,,,,,,,,,,,,,,,,With Brainslug No Barriers No Money,0,images/assets/snowy_original.jpg,learning,10,images/assets/success.jpg,images/assets/gameover.jpg,,,,,,,,,,,,,0,9,9,5,1,,,,,,,,,,,,,,,,,,,,,,,,,,,,,,,,
,,,,,,,,,,,,63dd3dd2593c92be97d8dbde,001,3,2025-04-15_06h06.25.173,avatar_quest_3AFC_legacy,2022.1.3,Win32,59.88023952,63dd3dd2593c92be97d8dbde,67fe37cb3bd870bba73819bd,67fe58c2afe44b41795eec52,,,,,,,,,,,,,,,,,,,,,,No Brainslug Difficult 1 No Money,6,images/assets/snowy_original.jpg,learning,20,images/assets/success.jpg,images/assets/gameover.jpg,,,,,,,,,,,,,0,10,10,6,1,,,,,,,,,,,,,,,,,,,,,,,,,,,,,,,,
,,,,,,,,,,,,63dd3dd2593c92be97d8dbde,001,3,2025-04-15_06h06.25.173,avatar_quest_3AFC_legacy,2022.1.3,Win32,59.88023952,63dd3dd2593c92be97d8dbde,67fe37cb3bd870bba73819bd,67fe58c2afe44b41795eec52,,,,,,,,,,,,,,,,,,,,,,,,,,,,,,,,,,,,,,,,,,,,,,,,,,,,,,,1,0,1,0,1,,,,,,,,,,,,,,,,,,
,,,,,,,,,,,,63dd3dd2593c92be97d8dbde,001,3,2025-04-15_06h06.25.173,avatar_quest_3AFC_legacy,2022.1.3,Win32,59.88023952,63dd3dd2593c92be97d8dbde,67fe37cb3bd870bba73819bd,67fe58c2afe44b41795eec52,,,,,,,,,,,,,,,,,,,,,,With Brainslug No Barriers No Money,0,images/assets/snowy_original.jpg,learning,10,images/assets/success.jpg,images/assets/gameover.jpg,,,,,,,,No Brainslug No Barriers With Money,No Brainslug No Barriers No Money,right,0.6391,"[""No Brainslug No Barriers No Money"",""No Brainslug Difficult 1 No Money""]",0,0,0,5,1,,,,,,,,,,,,,,,,,,,,,,,,,,,,,,,,
,,,,,,,,,,,,63dd3dd2593c92be97d8dbde,001,3,2025-04-15_06h06.25.173,avatar_quest_3AFC_legacy,2022.1.3,Win32,59.88023952,63dd3dd2593c92be97d8dbde,67fe37cb3bd870bba73819bd,67fe58c2afe44b41795eec52,"[""right"",""left"",""left"",""left"",""left"",""right"",""right"",""right""]","[0.7856999999880827,1.4687999999523527,2.190099999964275,2.451899999976206,3.0381999999880804,3.319000000000017,3.5521999999880904,4.068500000000029]",,calibration,No Brainslug No Barriers With Money,18,8.78288,5.3834,8,0,0,TRUE,na,na,na,na,,,,,,,,,,,,,,,,,,,,,,,,,,,,,,,,,,0,0,0,0,1,,,,,,,,,,,,,,,,,,,,,,,
,,,,,,,,,,,,63dd3dd2593c92be97d8dbde,001,3,2025-04-15_06h06.25.173,avatar_quest_3AFC_legacy,2022.1.3,Win32,59.88023952,63dd3dd2593c92be97d8dbde,67fe37cb3bd870bba73819bd,67fe58c2afe44b41795eec52,,,,,,,,,,,,,,,,,,,,,,No Brainslug No Barriers With Money,0,images/assets/snowy_money.jpg,learning,10,images/assets/success_money.jpg,images/assets/gameover.jpg,,,,,,,,,,,,,0,1,1,9,1,,,,,,,,,,,,,,,,,,,,,,,,,,,,,,,,
,,,,,,,,,,,,63dd3dd2593c92be97d8dbde,001,3,2025-04-15_06h06.25.173,avatar_quest_3AFC_legacy,2022.1.3,Win32,59.88023952,63dd3dd2593c92be97d8dbde,67fe37cb3bd870bba73819bd,67fe58c2afe44b41795eec52,,,,,,,,,,,,,,,,,,,,,,With Brainslug Difficult 1 No Money,6,images/assets/snowy_original.jpg,learning,20,images/assets/success.jpg,images/assets/gameover.jpg,,,,,,,,,,,,,0,2,2,1,1,,,,,,,,,,,,,,,,,,,,,,,,,,,,,,,,
,,,,,,,,,,,,63dd3dd2593c92be97d8dbde,001,3,2025-04-15_06h06.25.173,avatar_quest_3AFC_legacy,2022.1.3,Win32,59.88023952,63dd3dd2593c92be97d8dbde,67fe37cb3bd870bba73819bd,67fe58c2afe44b41795eec52,,,,,,,,,,,,,,,,,,,,,,With Brainslug Difficult 1 With Money,6,images/assets/snowy_money.jpg,learning,20,images/assets/success_money.jpg,images/assets/gameover.jpg,,,,,,,,,,,,,0,3,3,0,1,,,,,,,,,,,,,,,,,,,,,,,,,,,,,,,,
,,,,,,,,,,,,63dd3dd2593c92be97d8dbde,001,3,2025-04-15_06h06.25.173,avatar_quest_3AFC_legacy,2022.1.3,Win32,59.88023952,63dd3dd2593c92be97d8dbde,67fe37cb3bd870bba73819bd,67fe58c2afe44b41795eec52,,,,,,,,,,,,,,,,,,,,,,No Brainslug Difficult 1 No Money,6,images/assets/snowy_original.jpg,learning,20,images/assets/success.jpg,images/assets/gameover.jpg,,,,,,,,,,,,,0,4,4,6,1,,,,,,,,,,,,,,,,,,,,,,,,,,,,,,,,
,,,,,,,,,,,,63dd3dd2593c92be97d8dbde,001,3,2025-04-15_06h06.25.173,avatar_quest_3AFC_legacy,2022.1.3,Win32,59.88023952,63dd3dd2593c92be97d8dbde,67fe37cb3bd870bba73819bd,67fe58c2afe44b41795eec52,,,,,,,,,,,,,,,,,,,,,,With Brainslug Difficult 2 No Money,12,images/assets/snowy_original.jpg,learning,20,images/assets/success.jpg,images/assets/gameover.jpg,,,,,,,,,,,,,0,5,5,3,1,,,,,,,,,,,,,,,,,,,,,,,,,,,,,,,,
,,,,,,,,,,,,63dd3dd2593c92be97d8dbde,001,3,2025-04-15_06h06.25.173,avatar_quest_3AFC_legacy,2022.1.3,Win32,59.88023952,63dd3dd2593c92be97d8dbde,67fe37cb3bd870bba73819bd,67fe58c2afe44b41795eec52,,,,,,,,,,,,,,,,,,,,,,With Brainslug Difficult 2 With Money,12,images/assets/snowy_money.jpg,learning,20,images/assets/success_money.jpg,images/assets/gameover.jpg,,,,,,,,,,,,,0,6,6,2,1,,,,,,,,,,,,,,,,,,,,,,,,,,,,,,,,
