instruction_mouse.x,instruction_mouse.y,instruction_mouse.leftButton,instruction_mouse.midButton,instruction_mouse.rightButton,instruction_mouse.clicked_name,introduce_general.thisRepN,introduce_general.thisTrialN,introduce_general.thisN,introduce_general.thisIndex,introduce_general.ran,thisInstruction,participant,session,game version,date,expName,psychopyVersion,OS,frameRate,PROLIFIC PID,STUDY ID,SESSION ID,move_resp.keys,move_resp.rt,end_resp.keys,phase,condition,trial_num,time_limit,completion_time,left_right_steps,number_of_obsticle_blocks,number_of_tree_blocks,quest_complete,responsivity_summary,av_inter_brainslug_intervals,proportion_jitter,jitter_direction_proportion_right,calibration_phase.thisRepN,calibration_phase.thisTrialN,calibration_phase.thisN,calibration_phase.thisIndex,calibration_phase.ran,BlockLabel,nObsticles,backgroundImage,phaseLabel,n_side_steps,success_im,gameover_im,success_condition,introduce_learning_or_choice.thisRepN,introduce_learning_or_choice.thisTrialN,introduce_learning_or_choice.thisN,introduce_learning_or_choice.thisIndex,introduce_learning_or_choice.ran,choice_resp.keys,chosen_quest,unchosen_quest,choice_resp_3afc.keys,choice_resp_3afc.rt,unchosen_quests,forced_choice_trial.thisRepN,forced_choice_trial.thisTrialN,forced_choice_trial.thisN,forced_choice_trial.thisIndex,forced_choice_trial.ran,enjoyment_slider.response,enjoyment_slider.rt,effort_slider.response,effort_slider.rt,show_loop2.thisRepN,show_loop2.thisTrialN,show_loop2.thisN,show_loop2.thisIndex,show_loop2.ran,trials_per_block.thisRepN,trials_per_block.thisTrialN,trials_per_block.thisN,trials_per_block.thisIndex,trials_per_block.ran,decision_phase_AFC.thisRepN,decision_phase_AFC.thisTrialN,decision_phase_AFC.thisN,decision_phase_AFC.thisIndex,decision_phase_AFC.ran,blockN,BlockLabel1,questIm1,BlockLabel2,questIm2,BlockLabel3,questIm3,quest_condition,showForcedChoice.thisRepN,showForcedChoice.thisTrialN,showForcedChoice.thisN,showForcedChoice.thisIndex,showForcedChoice.ran
0.392592593,-0.40462963,1,0,0,instruction_button,0,0,0,0,1,images/instructions_part1_LSM_taskversion1/Slide1.JPG,641386b1cb9a9c1e3569d4ee,001,3,2025-04-15_11h56.20.410,avatar_quest_3AFC_legacy,2022.1.3,Win32,59.88023952,641386b1cb9a9c1e3569d4ee,67fe6e666cecbc9329ddf6d6,67fe81161a5fc274b5e8920f,,,,,,,,,,,,,,,,,,,,,,,,,,,,,,,,,,,,,,,,,,,,,,,,,,,,,,,,,,,,,,,,,,,,,,,,,,,,,
0.391666667,-0.397222222,1,0,0,instruction_button,0,1,1,1,1,images/instructions_part1_LSM_taskversion1/Slide2.JPG,641386b1cb9a9c1e3569d4ee,001,3,2025-04-15_11h56.20.410,avatar_quest_3AFC_legacy,2022.1.3,Win32,59.88023952,641386b1cb9a9c1e3569d4ee,67fe6e666cecbc9329ddf6d6,67fe81161a5fc274b5e8920f,,,,,,,,,,,,,,,,,,,,,,,,,,,,,,,,,,,,,,,,,,,,,,,,,,,,,,,,,,,,,,,,,,,,,,,,,,,,,
0.391666667,-0.397222222,1,0,0,instruction_button,0,2,2,2,1,images/instructions_part1_LSM_taskversion1/Slide3.JPG,641386b1cb9a9c1e3569d4ee,001,3,2025-04-15_11h56.20.410,avatar_quest_3AFC_legacy,2022.1.3,Win32,59.88023952,641386b1cb9a9c1e3569d4ee,67fe6e666cecbc9329ddf6d6,67fe81161a5fc274b5e8920f,,,,,,,,,,,,,,,,,,,,,,,,,,,,,,,,,,,,,,,,,,,,,,,,,,,,,,,,,,,,,,,,,,,,,,,,,,,,,
0.391666667,-0.397222222,1,0,0,instruction_button,0,3,3,3,1,images/instructions_part1_LSM_taskversion1/Slide3.5.JPG,641386b1cb9a9c1e3569d4ee,001,3,2025-04-15_11h56.20.410,avatar_quest_3AFC_legacy,2022.1.3,Win32,59.88023952,641386b1cb9a9c1e3569d4ee,67fe6e666cecbc9329ddf6d6,67fe81161a5fc274b5e8920f,,,,,,,,,,,,,,,,,,,,,,,,,,,,,,,,,,,,,,,,,,,,,,,,,,,,,,,,,,,,,,,,,,,,,,,,,,,,,
0.391666667,-0.397222222,1,0,0,instruction_button,0,4,4,4,1,images/instructions_part1_LSM_taskversion1/Slide4.JPG,641386b1cb9a9c1e3569d4ee,001,3,2025-04-15_11h56.20.410,avatar_quest_3AFC_legacy,2022.1.3,Win32,59.88023952,641386b1cb9a9c1e3569d4ee,67fe6e666cecbc9329ddf6d6,67fe81161a5fc274b5e8920f,,,,,,,,,,,,,,,,,,,,,,,,,,,,,,,,,,,,,,,,,,,,,,,,,,,,,,,,,,,,,,,,,,,,,,,,,,,,,
0.390740741,-0.397222222,1,0,0,instruction_button,0,5,5,5,1,images/instructions_part1_LSM_taskversion1/Slide6.5.JPG,641386b1cb9a9c1e3569d4ee,001,3,2025-04-15_11h56.20.410,avatar_quest_3AFC_legacy,2022.1.3,Win32,59.88023952,641386b1cb9a9c1e3569d4ee,67fe6e666cecbc9329ddf6d6,67fe81161a5fc274b5e8920f,,,,,,,,,,,,,,,,,,,,,,,,,,,,,,,,,,,,,,,,,,,,,,,,,,,,,,,,,,,,,,,,,,,,,,,,,,,,,
,,,,,,,,,,,,641386b1cb9a9c1e3569d4ee,001,3,2025-04-15_11h56.20.410,avatar_quest_3AFC_legacy,2022.1.3,Win32,59.88023952,641386b1cb9a9c1e3569d4ee,67fe6e666cecbc9329ddf6d6,67fe81161a5fc274b5e8920f,"[""right"",""right"",""right"",""right"",""down"",""down"",""down"",""left"",""left"",""left"",""right""]","[2.72380000001192,3.6241000000238373,4.923800000011916,5.157900000005959,5.523900000005959,5.724600000023834,5.924300000011918,6.123800000011919,6.274600000023845,6.723800000011913,7.256999999999998]",,calibration,No Brainslug No Barriers No Money,1,100,8.8931,5,0,202,TRUE,na,na,na,na,0,0,0,2,1,No Brainslug No Barriers No Money,0,images/assets/snowy_original.jpg,calibration,10,images/assets/success.jpg,images/assets/gameover.jpg,never,,,,,,,,,,,,,,,,,,,,,,,,,,,,,,,,,,,,,,,,,,,,,,,,
,,,,,,,,,,,,641386b1cb9a9c1e3569d4ee,001,3,2025-04-15_11h56.20.410,avatar_quest_3AFC_legacy,2022.1.3,Win32,59.88023952,641386b1cb9a9c1e3569d4ee,67fe6e666cecbc9329ddf6d6,67fe81161a5fc274b5e8920f,"[""left"",""left"",""right"",""right"",""right"",""right"",""right"",""left"",""left"",""up"",""right"",""right"",""right"",""right"",""right"",""right"",""right""]","[0.933800000011928,2.967100000023848,3.26810000002385,3.800900000005967,4.051900000005972,4.21780000001192,4.385700000017891,4.968200000017887,5.567800000011928,5.784800000011927,6.100700000017881,6.317200000017891,6.468200000017887,6.634700000017887,6.8185,6.96780000001192,7.167900000005972]",,calibration,No Brainslug No Barriers No Money,2,100,7.2804,9,0,106,TRUE,na,na,na,na,0,1,1,1,1,No Brainslug No Barriers No Money,0,images/assets/snowy_original.jpg,calibration,10,images/assets/success.jpg,images/assets/gameover.jpg,never,,,,,,,,,,,,,,,,,,,,,,,,,,,,,,,,,,,,,,,,,,,,,,,,
,,,,,,,,,,,,641386b1cb9a9c1e3569d4ee,001,3,2025-04-15_11h56.20.410,avatar_quest_3AFC_legacy,2022.1.3,Win32,59.88023952,641386b1cb9a9c1e3569d4ee,67fe6e666cecbc9329ddf6d6,67fe81161a5fc274b5e8920f,"[""right"",""down"",""right"",""right"",""right"",""right"",""left"",""left"",""left"",""up"",""right"",""right"",""right"",""right"",""right"",""up"",""up"",""left"",""left""]","[0.13390000000596558,1.21759999999405,1.5010000000000048,1.7505999999940371,1.9843000000119275,2.2010999999940424,2.4173000000119202,2.616699999988086,2.834300000011922,3.0336999999880874,3.234000000000009,3.9006999999880776,4.3338000000119195,4.517300000011929,4.750099999994049,4.967500000000001,7.450699999988089,7.9345,8.150000000000006]",,calibration,No Brainslug No Barriers No Money,3,100,9.0826,9,0,216,TRUE,na,na,na,na,0,2,2,0,1,No Brainslug No Barriers No Money,0,images/assets/snowy_original.jpg,calibration,10,images/assets/success.jpg,images/assets/gameover.jpg,never,,,,,,,,,,,,,,,,,,,,,,,,,,,,,,,,,,,,,,,,,,,,,,,,
0.389814815,-0.39537037,1,0,0,instruction_button,,,,,,images/instructions_part2_LSM_taskversion3.jpg,641386b1cb9a9c1e3569d4ee,001,3,2025-04-15_11h56.20.410,avatar_quest_3AFC_legacy,2022.1.3,Win32,59.88023952,641386b1cb9a9c1e3569d4ee,67fe6e666cecbc9329ddf6d6,67fe81161a5fc274b5e8920f,,,,,,,,,,,,,,,,,,,,,,,,,,,,,,0,0,0,0,1,,,,,,,,,,,,,,,,,,,,,,,,,,,,,,,,,,,,,,,,,,,
,,,,,,,,,,,,641386b1cb9a9c1e3569d4ee,001,3,2025-04-15_11h56.20.410,avatar_quest_3AFC_legacy,2022.1.3,Win32,59.88023952,641386b1cb9a9c1e3569d4ee,67fe6e666cecbc9329ddf6d6,67fe81161a5fc274b5e8920f,,,,,,,,,,,,,,,,,,,,,,No Brainslug No Barriers With Money,0,images/assets/snowy_money.jpg,learning,10,images/assets/success_money.jpg,images/assets/gameover.jpg,,,,,,,,With Brainslug Difficult 2 With Money,With Brainslug Difficult 1 No Money,right,2.291,"[""With Brainslug Difficult 1 No Money"",""With Brainslug Difficult 2 No Money""]",0,0,0,9,1,,,,,,,,,,,,,,,,,,,,,,,,,,,,,,,,
,,,,,,,,,,,,641386b1cb9a9c1e3569d4ee,001,3,2025-04-15_11h56.20.410,avatar_quest_3AFC_legacy,2022.1.3,Win32,59.88023952,641386b1cb9a9c1e3569d4ee,67fe6e666cecbc9329ddf6d6,67fe81161a5fc274b5e8920f,,,,,,,,,,,,,,,,,,,,,,With Brainslug Difficult 1 With Money,6,images/assets/snowy_money.jpg,learning,20,images/assets/success_money.jpg,images/assets/gameover.jpg,,,,,,,,,,,,,0,1,1,0,1,,,,,,,,,,,,,,,,,,,,,,,,,,,,,,,,
,,,,,,,,,,,,641386b1cb9a9c1e3569d4ee,001,3,2025-04-15_11h56.20.410,avatar_quest_3AFC_legacy,2022.1.3,Win32,59.88023952,641386b1cb9a9c1e3569d4ee,67fe6e666cecbc9329ddf6d6,67fe81161a5fc274b5e8920f,,,,,,,,,,,,,,,,,,,,,,No Brainslug Difficult 2 No Money,12,images/assets/snowy_original.jpg,learning,20,images/assets/success.jpg,images/assets/gameover.jpg,,,,,,,,,,,,,0,2,2,8,1,,,,,,,,,,,,,,,,,,,,,,,,,,,,,,,,
,,,,,,,,,,,,641386b1cb9a9c1e3569d4ee,001,3,2025-04-15_11h56.20.410,avatar_quest_3AFC_legacy,2022.1.3,Win32,59.88023952,641386b1cb9a9c1e3569d4ee,67fe6e666cecbc9329ddf6d6,67fe81161a5fc274b5e8920f,,,,,,,,,,,,,,,,,,,,,,No Brainslug Difficult 2 With Money,12,images/assets/snowy_money.jpg,learning,20,images/assets/success_money.jpg,images/assets/gameover.jpg,,,,,,,,,,,,,0,3,3,7,1,,,,,,,,,,,,,,,,,,,,,,,,,,,,,,,,
,,,,,,,,,,,,641386b1cb9a9c1e3569d4ee,001,3,2025-04-15_11h56.20.410,avatar_quest_3AFC_legacy,2022.1.3,Win32,59.88023952,641386b1cb9a9c1e3569d4ee,67fe6e666cecbc9329ddf6d6,67fe81161a5fc274b5e8920f,,,,,,,,,,,,,,,,,,,,,,With Brainslug No Barriers With Money,0,images/assets/snowy_money.jpg,learning,10,images/assets/success_money.jpg,images/assets/gameover.jpg,,,,,,,,,,,,,0,4,4,4,1,,,,,,,,,,,,,,,,,,,,,,,,,,,,,,,,
,,,,,,,,,,,,641386b1cb9a9c1e3569d4ee,001,3,2025-04-15_11h56.20.410,avatar_quest_3AFC_legacy,2022.1.3,Win32,59.88023952,641386b1cb9a9c1e3569d4ee,67fe6e666cecbc9329ddf6d6,67fe81161a5fc274b5e8920f,,,,,,,,,,,,,,,,,,,,,,With Brainslug Difficult 2 No Money,12,images/assets/snowy_original.jpg,learning,20,images/assets/success.jpg,images/assets/gameover.jpg,,,,,,,,,,,,,0,5,5,3,1,,,,,,,,,,,,,,,,,,,,,,,,,,,,,,,,
,,,,,,,,,,,,641386b1cb9a9c1e3569d4ee,001,3,2025-04-15_11h56.20.410,avatar_quest_3AFC_legacy,2022.1.3,Win32,59.88023952,641386b1cb9a9c1e3569d4ee,67fe6e666cecbc9329ddf6d6,67fe81161a5fc274b5e8920f,,,,,,,,,,,,,,,,,,,,,,With Brainslug No Barriers No Money,0,images/assets/snowy_original.jpg,learning,10,images/assets/success.jpg,images/assets/gameover.jpg,,,,,,,,,,,,,0,6,6,5,1,,,,,,,,,,,,,,,,,,,,,,,,,,,,,,,,
,,,,,,,,,,,,641386b1cb9a9c1e3569d4ee,001,3,2025-04-15_11h56.20.410,avatar_quest_3AFC_legacy,2022.1.3,Win32,59.88023952,641386b1cb9a9c1e3569d4ee,67fe6e666cecbc9329ddf6d6,67fe81161a5fc274b5e8920f,,,,,,,,,,,,,,,,,,,,,,No Brainslug Difficult 1 No Money,6,images/assets/snowy_original.jpg,learning,20,images/assets/success.jpg,images/assets/gameover.jpg,,,,,,,,,,,,,0,7,7,6,1,,,,,,,,,,,,,,,,,,,,,,,,,,,,,,,,
,,,,,,,,,,,,641386b1cb9a9c1e3569d4ee,001,3,2025-04-15_11h56.20.410,avatar_quest_3AFC_legacy,2022.1.3,Win32,59.88023952,641386b1cb9a9c1e3569d4ee,67fe6e666cecbc9329ddf6d6,67fe81161a5fc274b5e8920f,"[""up"",""left"",""left"",""left"",""up"",""up"",""up"",""right"",""left"",""right"",""left"",""right"",""left"",""right"",""left"",""left"",""left"",""right"",""up""]","[1.8720999999940489,2.40509999999405,2.8531999999880924,3.3028000000119278,3.586400000005966,3.902699999988087,4.1531999999880895,5.119,5.9418000000119235,6.840599999994041,7.689099999994042,8.221800000011925,8.853400000005962,9.369099999994049,9.786400000005969,10.603099999994043,11.27000000000001,11.769500000000008,12.386400000005963]",,calibration,With Brainslug Difficult 2 With Money,4,12.62805,12.6369,8,9,0,FALSE,na,na,na,na,,,,,,,,,,,,,,,,,,,,,,,,,,,,,,,,,,0,0,0,0,1,,,,,,,,,,,,,,,,,,,,,,,
,,,,,,,,,,,,641386b1cb9a9c1e3569d4ee,001,3,2025-04-15_11h56.20.410,avatar_quest_3AFC_legacy,2022.1.3,Win32,59.88023952,641386b1cb9a9c1e3569d4ee,67fe6e666cecbc9329ddf6d6,67fe81161a5fc274b5e8920f,,,,,,,,,,,,,,,,,,,,,,With Brainslug Difficult 2 With Money,12,images/assets/snowy_money.jpg,learning,20,images/assets/success_money.jpg,images/assets/gameover.jpg,,,,,,,,,,,,,0,8,8,2,1,,,,,,,,,,,,,,,,,,,,,,,,,,,,,,,,
,,,,,,,,,,,,641386b1cb9a9c1e3569d4ee,001,3,2025-04-15_11h56.20.410,avatar_quest_3AFC_legacy,2022.1.3,Win32,59.88023952,641386b1cb9a9c1e3569d4ee,67fe6e666cecbc9329ddf6d6,67fe81161a5fc274b5e8920f,,,,,,,,,,,,,,,,,,,,,,No Brainslug No Barriers No Money,0,images/assets/snowy_original.jpg,learning,10,images/assets/success.jpg,images/assets/gameover.jpg,,,,,,,,,,,,,0,9,9,10,1,,,,,,,,,,,,,,,,,,,,,,,,,,,,,,,,
,,,,,,,,,,,,641386b1cb9a9c1e3569d4ee,001,3,2025-04-15_11h56.20.410,avatar_quest_3AFC_legacy,2022.1.3,Win32,59.88023952,641386b1cb9a9c1e3569d4ee,67fe6e666cecbc9329ddf6d6,67fe81161a5fc274b5e8920f,,,,,,,,,,,,,,,,,,,,,,With Brainslug Difficult 1 No Money,6,images/assets/snowy_original.jpg,learning,20,images/assets/success.jpg,images/assets/gameover.jpg,,,,,,,,,,,,,0,10,10,1,1,,,,,,,,,,,,,,,,,,,,,,,,,,,,,,,,
,,,,,,,,,,,,641386b1cb9a9c1e3569d4ee,001,3,2025-04-15_11h56.20.410,avatar_quest_3AFC_legacy,2022.1.3,Win32,59.88023952,641386b1cb9a9c1e3569d4ee,67fe6e666cecbc9329ddf6d6,67fe81161a5fc274b5e8920f,,,,,,,,,,,,,,,,,,,,,,,,,,,,,,,,,,,,,,,,,,,,,,,,,,,,,,,0,0,0,0,1,,,,,,,,,,,,,,,,,,
,,,,,,,,,,,,641386b1cb9a9c1e3569d4ee,001,3,2025-04-15_11h56.20.410,avatar_quest_3AFC_legacy,2022.1.3,Win32,59.88023952,641386b1cb9a9c1e3569d4ee,67fe6e666cecbc9329ddf6d6,67fe81161a5fc274b5e8920f,,,,,,,,,,,,,,,,,,,,,,No Brainslug No Barriers With Money,0,images/assets/snowy_money.jpg,learning,10,images/assets/success_money.jpg,images/assets/gameover.jpg,,,,,,,,With Brainslug Difficult 2 With Money,With Brainslug Difficult 1 No Money,right,1.6002,"[""With Brainslug Difficult 1 No Money"",""With Brainslug Difficult 2 No Money""]",0,0,0,9,1,,,,,,,,,,,,,,,,,,,,,,,,,,,,,,,,
,,,,,,,,,,,,641386b1cb9a9c1e3569d4ee,001,3,2025-04-15_11h56.20.410,avatar_quest_3AFC_legacy,2022.1.3,Win32,59.88023952,641386b1cb9a9c1e3569d4ee,67fe6e666cecbc9329ddf6d6,67fe81161a5fc274b5e8920f,,,,,,,,,,,,,,,,,,,,,,No Brainslug No Barriers No Money,0,images/assets/snowy_original.jpg,learning,10,images/assets/success.jpg,images/assets/gameover.jpg,,,,,,,,,,,,,0,1,1,10,1,,,,,,,,,,,,,,,,,,,,,,,,,,,,,,,,
,,,,,,,,,,,,641386b1cb9a9c1e3569d4ee,001,3,2025-04-15_11h56.20.410,avatar_quest_3AFC_legacy,2022.1.3,Win32,59.88023952,641386b1cb9a9c1e3569d4ee,67fe6e666cecbc9329ddf6d6,67fe81161a5fc274b5e8920f,,,,,,,,,,,,,,,,,,,,,,No Brainslug Difficult 2 With Money,12,images/assets/snowy_money.jpg,learning,20,images/assets/success_money.jpg,images/assets/gameover.jpg,,,,,,,,,,,,,0,2,2,7,1,,,,,,,,,,,,,,,,,,,,,,,,,,,,,,,,
,,,,,,,,,,,,641386b1cb9a9c1e3569d4ee,001,3,2025-04-15_11h56.20.410,avatar_quest_3AFC_legacy,2022.1.3,Win32,59.88023952,641386b1cb9a9c1e3569d4ee,67fe6e666cecbc9329ddf6d6,67fe81161a5fc274b5e8920f,,,,,,,,,,,,,,,,,,,,,,No Brainslug Difficult 1 No Money,6,images/assets/snowy_original.jpg,learning,20,images/assets/success.jpg,images/assets/gameover.jpg,,,,,,,,,,,,,0,3,3,6,1,,,,,,,,,,,,,,,,,,,,,,,,,,,,,,,,
,,,,,,,,,,,,641386b1cb9a9c1e3569d4ee,001,3,2025-04-15_11h56.20.410,avatar_quest_3AFC_legacy,2022.1.3,Win32,59.88023952,641386b1cb9a9c1e3569d4ee,67fe6e666cecbc9329ddf6d6,67fe81161a5fc274b5e8920f,"[""right"",""left"",""right"",""right"",""right"",""right"",""left"",""left"",""left"",""left"",""left"",""up"",""left"",""left"",""right"",""right"",""right"",""left"",""left"",""left"",""left"",""right"",""right"",""right"",""right"",""left"",""left"",""left"",""left"",""left"",""left"",""right"",""right""]","[1.0919999999999987,1.4358000000119233,2.1340000000000003,2.9326999999880883,3.4326999999880883,3.652000000000001,4.014099999994045,4.547099999994046,4.829300000011926,5.363400000005967,5.662900000005962,5.962199999988087,6.329999999999998,6.67940000000597,6.979599999994036,7.512400000005968,7.880499999999998,8.128800000011921,8.479300000011918,8.662599999994043,8.862699999988095,9.496199999988093,9.712499999999991,9.914199999988071,10.083599999994036,10.646499999999989,10.829300000011912,10.99609999999403,11.16219999998809,11.315900000005954,11.562199999988067,12.312800000011933,12.495699999988076]",,calibration,With Brainslug Difficult 2 With Money,5,12.62805,12.6325,11,6,0,FALSE,na,na,na,na,,,,,,,,,,,,,,,,,,,,,,,,,,,,,,,,,,0,0,0,0,1,,,,,,,,,,,,,,,,,,,,,,,
,,,,,,,,,,,,641386b1cb9a9c1e3569d4ee,001,3,2025-04-15_11h56.20.410,avatar_quest_3AFC_legacy,2022.1.3,Win32,59.88023952,641386b1cb9a9c1e3569d4ee,67fe6e666cecbc9329ddf6d6,67fe81161a5fc274b5e8920f,,,,,,,,,,,,,,,,,,,,,,With Brainslug Difficult 2 With Money,12,images/assets/snowy_money.jpg,learning,20,images/assets/success_money.jpg,images/assets/gameover.jpg,,,,,,,,,,,,,0,4,4,2,1,,,,,,,,,,,,,,,,,,,,,,,,,,,,,,,,
,,,,,,,,,,,,641386b1cb9a9c1e3569d4ee,001,3,2025-04-15_11h56.20.410,avatar_quest_3AFC_legacy,2022.1.3,Win32,59.88023952,641386b1cb9a9c1e3569d4ee,67fe6e666cecbc9329ddf6d6,67fe81161a5fc274b5e8920f,,,,,,,,,,,,,,,,,,,,,,With Brainslug Difficult 2 No Money,12,images/assets/snowy_original.jpg,learning,20,images/assets/success.jpg,images/assets/gameover.jpg,,,,,,,,,,,,,0,5,5,3,1,,,,,,,,,,,,,,,,,,,,,,,,,,,,,,,,
,,,,,,,,,,,,641386b1cb9a9c1e3569d4ee,001,3,2025-04-15_11h56.20.410,avatar_quest_3AFC_legacy,2022.1.3,Win32,59.88023952,641386b1cb9a9c1e3569d4ee,67fe6e666cecbc9329ddf6d6,67fe81161a5fc274b5e8920f,,,,,,,,,,,,,,,,,,,,,,With Brainslug No Barriers No Money,0,images/assets/snowy_original.jpg,learning,10,images/assets/success.jpg,images/assets/gameover.jpg,,,,,,,,,,,,,0,6,6,5,1,,,,,,,,,,,,,,,,,,,,,,,,,,,,,,,,
,,,,,,,,,,,,641386b1cb9a9c1e3569d4ee,001,3,2025-04-15_11h56.20.410,avatar_quest_3AFC_legacy,2022.1.3,Win32,59.88023952,641386b1cb9a9c1e3569d4ee,67fe6e666cecbc9329ddf6d6,67fe81161a5fc274b5e8920f,,,,,,,,,,,,,,,,,,,,,,With Brainslug Difficult 1 With Money,6,images/assets/snowy_money.jpg,learning,20,images/assets/success_money.jpg,images/assets/gameover.jpg,,,,,,,,,,,,,0,7,7,0,1,,,,,,,,,,,,,,,,,,,,,,,,,,,,,,,,
,,,,,,,,,,,,641386b1cb9a9c1e3569d4ee,001,3,2025-04-15_11h56.20.410,avatar_quest_3AFC_legacy,2022.1.3,Win32,59.88023952,641386b1cb9a9c1e3569d4ee,67fe6e666cecbc9329ddf6d6,67fe81161a5fc274b5e8920f,,,,,,,,,,,,,,,,,,,,,,With Brainslug Difficult 1 No Money,6,images/assets/snowy_original.jpg,learning,20,images/assets/success.jpg,images/assets/gameover.jpg,,,,,,,,,,,,,0,8,8,1,1,,,,,,,,,,,,,,,,,,,,,,,,,,,,,,,,
,,,,,,,,,,,,641386b1cb9a9c1e3569d4ee,001,3,2025-04-15_11h56.20.410,avatar_quest_3AFC_legacy,2022.1.3,Win32,59.88023952,641386b1cb9a9c1e3569d4ee,67fe6e666cecbc9329ddf6d6,67fe81161a5fc274b5e8920f,,,,,,,,,,,,,,,,,,,,,,No Brainslug Difficult 2 No Money,12,images/assets/snowy_original.jpg,learning,20,images/assets/success.jpg,images/assets/gameover.jpg,,,,,,,,,,,,,0,9,9,8,1,,,,,,,,,,,,,,,,,,,,,,,,,,,,,,,,
,,,,,,,,,,,,641386b1cb9a9c1e3569d4ee,001,3,2025-04-15_11h56.20.410,avatar_quest_3AFC_legacy,2022.1.3,Win32,59.88023952,641386b1cb9a9c1e3569d4ee,67fe6e666cecbc9329ddf6d6,67fe81161a5fc274b5e8920f,,,,,,,,,,,,,,,,,,,,,,With Brainslug No Barriers With Money,0,images/assets/snowy_money.jpg,learning,10,images/assets/success_money.jpg,images/assets/gameover.jpg,,,,,,,,,,,,,0,10,10,4,1,,,,,,,,,,,,,,,,,,,,,,,,,,,,,,,,
,,,,,,,,,,,,641386b1cb9a9c1e3569d4ee,001,3,2025-04-15_11h56.20.410,avatar_quest_3AFC_legacy,2022.1.3,Win32,59.88023952,641386b1cb9a9c1e3569d4ee,67fe6e666cecbc9329ddf6d6,67fe81161a5fc274b5e8920f,,,,,,,,,,,,,,,,,,,,,,,,,,,,,,,,,,,,,,,,,,,,,,,,,,,,,,,1,0,1,0,1,,,,,,,,,,,,,,,,,,
,,,,,,,,,,,,641386b1cb9a9c1e3569d4ee,001,3,2025-04-15_11h56.20.410,avatar_quest_3AFC_legacy,2022.1.3,Win32,59.88023952,641386b1cb9a9c1e3569d4ee,67fe6e666cecbc9329ddf6d6,67fe81161a5fc274b5e8920f,,,,,,,,,,,,,,,,,,,,,,No Brainslug Difficult 2 No Money,12,images/assets/snowy_original.jpg,learning,20,images/assets/success.jpg,images/assets/gameover.jpg,,,,,,,,With Brainslug Difficult 2 With Money,With Brainslug Difficult 1 No Money,right,0.8354,"[""With Brainslug Difficult 1 No Money"",""With Brainslug Difficult 2 No Money""]",0,0,0,8,1,,,,,,,,,,,,,,,,,,,,,,,,,,,,,,,,
,,,,,,,,,,,,641386b1cb9a9c1e3569d4ee,001,3,2025-04-15_11h56.20.410,avatar_quest_3AFC_legacy,2022.1.3,Win32,59.88023952,641386b1cb9a9c1e3569d4ee,67fe6e666cecbc9329ddf6d6,67fe81161a5fc274b5e8920f,,,,,,,,,,,,,,,,,,,,,,No Brainslug No Barriers No Money,0,images/assets/snowy_original.jpg,learning,10,images/assets/success.jpg,images/assets/gameover.jpg,,,,,,,,,,,,,0,1,1,10,1,,,,,,,,,,,,,,,,,,,,,,,,,,,,,,,,
,,,,,,,,,,,,641386b1cb9a9c1e3569d4ee,001,3,2025-04-15_11h56.20.410,avatar_quest_3AFC_legacy,2022.1.3,Win32,59.88023952,641386b1cb9a9c1e3569d4ee,67fe6e666cecbc9329ddf6d6,67fe81161a5fc274b5e8920f,,,,,,,,,,,,,,,,,,,,,,With Brainslug Difficult 1 With Money,6,images/assets/snowy_money.jpg,learning,20,images/assets/success_money.jpg,images/assets/gameover.jpg,,,,,,,,,,,,,0,2,2,0,1,,,,,,,,,,,,,,,,,,,,,,,,,,,,,,,,
,,,,,,,,,,,,641386b1cb9a9c1e3569d4ee,001,3,2025-04-15_11h56.20.410,avatar_quest_3AFC_legacy,2022.1.3,Win32,59.88023952,641386b1cb9a9c1e3569d4ee,67fe6e666cecbc9329ddf6d6,67fe81161a5fc274b5e8920f,,,,,,,,,,,,,,,,,,,,,,With Brainslug No Barriers With Money,0,images/assets/snowy_money.jpg,learning,10,images/assets/success_money.jpg,images/assets/gameover.jpg,,,,,,,,,,,,,0,3,3,4,1,,,,,,,,,,,,,,,,,,,,,,,,,,,,,,,,
,,,,,,,,,,,,641386b1cb9a9c1e3569d4ee,001,3,2025-04-15_11h56.20.410,avatar_quest_3AFC_legacy,2022.1.3,Win32,59.88023952,641386b1cb9a9c1e3569d4ee,67fe6e666cecbc9329ddf6d6,67fe81161a5fc274b5e8920f,,,,,,,,,,,,,,,,,,,,,,No Brainslug No Barriers With Money,0,images/assets/snowy_money.jpg,learning,10,images/assets/success_money.jpg,images/assets/gameover.jpg,,,,,,,,,,,,,0,4,4,9,1,,,,,,,,,,,,,,,,,,,,,,,,,,,,,,,,
,,,,,,,,,,,,641386b1cb9a9c1e3569d4ee,001,3,2025-04-15_11h56.20.410,avatar_quest_3AFC_legacy,2022.1.3,Win32,59.88023952,641386b1cb9a9c1e3569d4ee,67fe6e666cecbc9329ddf6d6,67fe81161a5fc274b5e8920f,,,,,,,,,,,,,,,,,,,,,,With Brainslug Difficult 2 No Money,12,images/assets/snowy_original.jpg,learning,20,images/assets/success.jpg,images/assets/gameover.jpg,,,,,,,,,,,,,0,5,5,3,1,,,,,,,,,,,,,,,,,,,,,,,,,,,,,,,,
,,,,,,,,,,,,641386b1cb9a9c1e3569d4ee,001,3,2025-04-15_11h56.20.410,avatar_quest_3AFC_legacy,2022.1.3,Win32,59.88023952,641386b1cb9a9c1e3569d4ee,67fe6e666cecbc9329ddf6d6,67fe81161a5fc274b5e8920f,,,,,,,,,,,,,,,,,,,,,,With Brainslug Difficult 1 No Money,6,images/assets/snowy_original.jpg,learning,20,images/assets/success.jpg,images/assets/gameover.jpg,,,,,,,,,,,,,0,6,6,1,1,,,,,,,,,,,,,,,,,,,,,,,,,,,,,,,,
,,,,,,,,,,,,641386b1cb9a9c1e3569d4ee,001,3,2025-04-15_11h56.20.410,avatar_quest_3AFC_legacy,2022.1.3,Win32,59.88023952,641386b1cb9a9c1e3569d4ee,67fe6e666cecbc9329ddf6d6,67fe81161a5fc274b5e8920f,,,,,,,,,,,,,,,,,,,,,,No Brainslug Difficult 2 With Money,12,images/assets/snowy_money.jpg,learning,20,images/assets/success_money.jpg,images/assets/gameover.jpg,,,,,,,,,,,,,0,7,7,7,1,,,,,,,,,,,,,,,,,,,,,,,,,,,,,,,,
,,,,,,,,,,,,641386b1cb9a9c1e3569d4ee,001,3,2025-04-15_11h56.20.410,avatar_quest_3AFC_legacy,2022.1.3,Win32,59.88023952,641386b1cb9a9c1e3569d4ee,67fe6e666cecbc9329ddf6d6,67fe81161a5fc274b5e8920f,"[""left"",""left"",""left"",""right"",""right"",""right"",""right"",""right"",""left"",""left"",""left"",""left"",""left"",""left"",""left"",""left"",""right"",""right"",""right"",""right"",""right"",""right"",""right"",""right"",""left"",""left"",""left"",""left"",""left"",""left"",""left"",""right"",""right"",""right"",""right"",""right"",""right"",""left"",""left"",""left"",""right"",""right"",""right"",""right"",""right"",""right"",""right"",""right"",""left"",""left"",""left"",""left"",""right"",""right"",""right""]","[1.6527000000178873,2.5034000000059677,2.7358000000119205,3.0360000000000014,3.218999999999994,3.4023000000119055,3.552400000005946,3.7355999999940366,4.019300000011924,4.203400000005956,4.351900000005969,4.518499999999989,4.66930000001193,4.818999999999988,4.9858000000119205,5.119400000005953,5.268900000005971,5.435400000005956,5.569700000017889,5.735200000017869,5.885800000011926,6.051800000011923,6.201999999999998,6.3523000000119225,6.652599999994038,6.83480000001191,7.018599999994024,7.202200000017882,7.402999999999992,7.585099999994043,7.819099999994023,8.018599999994024,8.21890000000596,8.36880000001193,8.552599999994044,8.70150000000001,8.869099999994035,9.135900000005961,9.319900000005958,9.519000000000005,9.751900000005946,9.951599999994045,10.152700000017887,10.319200000017872,10.519599999994028,10.686300000011926,10.885200000017875,11.035700000017869,11.185300000011921,11.38620000001788,11.552500000000009,11.752999999999986,12.036099999994036,12.23580000001192,12.40220000001787]",,calibration,With Brainslug Difficult 2 With Money,6,12.62805,12.6335,25,10,0,FALSE,na,na,na,na,,,,,,,,,,,,,,,,,,,,,,,,,,,,,,,,,,0,0,0,0,1,,,,,,,,,,,,,,,,,,,,,,,
,,,,,,,,,,,,641386b1cb9a9c1e3569d4ee,001,3,2025-04-15_11h56.20.410,avatar_quest_3AFC_legacy,2022.1.3,Win32,59.88023952,641386b1cb9a9c1e3569d4ee,67fe6e666cecbc9329ddf6d6,67fe81161a5fc274b5e8920f,,,,,,,,,,,,,,,,,,,,,,With Brainslug Difficult 2 With Money,12,images/assets/snowy_money.jpg,learning,20,images/assets/success_money.jpg,images/assets/gameover.jpg,,,,,,,,,,,,,0,8,8,2,1,,,,,,,,,,,,,,,,,,,,,,,,,,,,,,,,
,,,,,,,,,,,,641386b1cb9a9c1e3569d4ee,001,3,2025-04-15_11h56.20.410,avatar_quest_3AFC_legacy,2022.1.3,Win32,59.88023952,641386b1cb9a9c1e3569d4ee,67fe6e666cecbc9329ddf6d6,67fe81161a5fc274b5e8920f,,,,,,,,,,,,,,,,,,,,,,No Brainslug Difficult 1 No Money,6,images/assets/snowy_original.jpg,learning,20,images/assets/success.jpg,images/assets/gameover.jpg,,,,,,,,,,,,,0,9,9,6,1,,,,,,,,,,,,,,,,,,,,,,,,,,,,,,,,
,,,,,,,,,,,,641386b1cb9a9c1e3569d4ee,001,3,2025-04-15_11h56.20.410,avatar_quest_3AFC_legacy,2022.1.3,Win32,59.88023952,641386b1cb9a9c1e3569d4ee,67fe6e666cecbc9329ddf6d6,67fe81161a5fc274b5e8920f,,,,,,,,,,,,,,,,,,,,,,With Brainslug No Barriers No Money,0,images/assets/snowy_original.jpg,learning,10,images/assets/success.jpg,images/assets/gameover.jpg,,,,,,,,,,,,,0,10,10,5,1,,,,,,,,,,,,,,,,,,,,,,,,,,,,,,,,
,,,,,,,,,,,,641386b1cb9a9c1e3569d4ee,001,3,2025-04-15_11h56.20.410,avatar_quest_3AFC_legacy,2022.1.3,Win32,59.88023952,641386b1cb9a9c1e3569d4ee,67fe6e666cecbc9329ddf6d6,67fe81161a5fc274b5e8920f,,,,,,,,,,,,,,,,,,,,,,,,,,,,,,,,,,,,,,,,,,,,,,,,,,,,,,,2,0,2,0,1,,,,,,,,,,,,,,,,,,
,,,,,,,,,,,,641386b1cb9a9c1e3569d4ee,001,3,2025-04-15_11h56.20.410,avatar_quest_3AFC_legacy,2022.1.3,Win32,59.88023952,641386b1cb9a9c1e3569d4ee,67fe6e666cecbc9329ddf6d6,67fe81161a5fc274b5e8920f,,,,,,,,,,,,,,,,,,,,,,No Brainslug Difficult 1 No Money,6,images/assets/snowy_original.jpg,learning,20,images/assets/success.jpg,images/assets/gameover.jpg,,,,,,,,With Brainslug Difficult 1 No Money,With Brainslug Difficult 1 No Money,left,0.651,"[""With Brainslug Difficult 2 No Money"",""With Brainslug Difficult 2 With Money""]",0,0,0,6,1,,,,,,,,,,,,,,,,,,,,,,,,,,,,,,,,
,,,,,,,,,,,,641386b1cb9a9c1e3569d4ee,001,3,2025-04-15_11h56.20.410,avatar_quest_3AFC_legacy,2022.1.3,Win32,59.88023952,641386b1cb9a9c1e3569d4ee,67fe6e666cecbc9329ddf6d6,67fe81161a5fc274b5e8920f,,,,,,,,,,,,,,,,,,,,,,No Brainslug Difficult 2 With Money,12,images/assets/snowy_money.jpg,learning,20,images/assets/success_money.jpg,images/assets/gameover.jpg,,,,,,,,,,,,,0,1,1,7,1,,,,,,,,,,,,,,,,,,,,,,,,,,,,,,,,
,,,,,,,,,,,,641386b1cb9a9c1e3569d4ee,001,3,2025-04-15_11h56.20.410,avatar_quest_3AFC_legacy,2022.1.3,Win32,59.88023952,641386b1cb9a9c1e3569d4ee,67fe6e666cecbc9329ddf6d6,67fe81161a5fc274b5e8920f,,,,,,,,,,,,,,,,,,,,,,No Brainslug Difficult 2 No Money,12,images/assets/snowy_original.jpg,learning,20,images/assets/success.jpg,images/assets/gameover.jpg,,,,,,,,,,,,,0,2,2,8,1,,,,,,,,,,,,,,,,,,,,,,,,,,,,,,,,
,,,,,,,,,,,,641386b1cb9a9c1e3569d4ee,001,3,2025-04-15_11h56.20.410,avatar_quest_3AFC_legacy,2022.1.3,Win32,59.88023952,641386b1cb9a9c1e3569d4ee,67fe6e666cecbc9329ddf6d6,67fe81161a5fc274b5e8920f,"[""right"",""right"",""right"",""left"",""left"",""left"",""left"",""left"",""left"",""left"",""right"",""right"",""right"",""right"",""right"",""left"",""up"",""up"",""left"",""left"",""left"",""left"",""up"",""up"",""up"",""right"",""right"",""right"",""right"",""right"",""right"",""right"",""right"",""right"",""right"",""right"",""right"",""right""]","[1.0407999999821413,1.8380000000000223,2.254699999988077,2.586400000005966,2.987099999994058,3.41840000000596,3.735299999982118,3.9671999999880825,4.284599999994043,4.533699999988102,5.1015999999940504,5.384400000005968,5.634099999994049,5.967299999982117,6.350400000005976,6.650900000005976,7.000699999988086,7.535299999982129,7.900799999982127,8.368400000005977,8.696799999982119,8.953199999988101,9.402000000000015,9.687400000005965,9.8846999999881,10.100599999994046,10.300599999994063,10.517299999982129,10.73369999998809,10.951099999994057,11.1671999999881,11.400699999988092,11.600900000005964,11.783699999988102,12.000299999982133,12.184699999988084,12.384799999982135,12.567099999994042]",,calibration,With Brainslug Difficult 1 No Money,7,12.62805,12.6338,11,3,0,FALSE,na,na,na,na,,,,,,,,,,,,,,,,,,,,,,,,,,,,,,,,,,0,0,0,0,1,,,,,,,,,,,,,,,,,,,,,,,
,,,,,,,,,,,,641386b1cb9a9c1e3569d4ee,001,3,2025-04-15_11h56.20.410,avatar_quest_3AFC_legacy,2022.1.3,Win32,59.88023952,641386b1cb9a9c1e3569d4ee,67fe6e666cecbc9329ddf6d6,67fe81161a5fc274b5e8920f,,,,,,,,,,,,,,,,,,,,,,With Brainslug Difficult 1 No Money,6,images/assets/snowy_original.jpg,learning,20,images/assets/success.jpg,images/assets/gameover.jpg,,,,,,,,,,,,,0,3,3,1,1,,,,,,,,,,,,,,,,,,,,,,,,,,,,,,,,
,,,,,,,,,,,,641386b1cb9a9c1e3569d4ee,001,3,2025-04-15_11h56.20.410,avatar_quest_3AFC_legacy,2022.1.3,Win32,59.88023952,641386b1cb9a9c1e3569d4ee,67fe6e666cecbc9329ddf6d6,67fe81161a5fc274b5e8920f,,,,,,,,,,,,,,,,,,,,,,No Brainslug No Barriers No Money,0,images/assets/snowy_original.jpg,learning,10,images/assets/success.jpg,images/assets/gameover.jpg,,,,,,,,,,,,,0,4,4,10,1,,,,,,,,,,,,,,,,,,,,,,,,,,,,,,,,
,,,,,,,,,,,,641386b1cb9a9c1e3569d4ee,001,3,2025-04-15_11h56.20.410,avatar_quest_3AFC_legacy,2022.1.3,Win32,59.88023952,641386b1cb9a9c1e3569d4ee,67fe6e666cecbc9329ddf6d6,67fe81161a5fc274b5e8920f,,,,,,,,,,,,,,,,,,,,,,With Brainslug Difficult 2 With Money,12,images/assets/snowy_money.jpg,learning,20,images/assets/success_money.jpg,images/assets/gameover.jpg,,,,,,,,,,,,,0,5,5,2,1,,,,,,,,,,,,,,,,,,,,,,,,,,,,,,,,
,,,,,,,,,,,,641386b1cb9a9c1e3569d4ee,001,3,2025-04-15_11h56.20.410,avatar_quest_3AFC_legacy,2022.1.3,Win32,59.88023952,641386b1cb9a9c1e3569d4ee,67fe6e666cecbc9329ddf6d6,67fe81161a5fc274b5e8920f,,,,,,,,,,,,,,,,,,,,,,With Brainslug No Barriers No Money,0,images/assets/snowy_original.jpg,learning,10,images/assets/success.jpg,images/assets/gameover.jpg,,,,,,,,,,,,,0,6,6,5,1,,,,,,,,,,,,,,,,,,,,,,,,,,,,,,,,
,,,,,,,,,,,,641386b1cb9a9c1e3569d4ee,001,3,2025-04-15_11h56.20.410,avatar_quest_3AFC_legacy,2022.1.3,Win32,59.88023952,641386b1cb9a9c1e3569d4ee,67fe6e666cecbc9329ddf6d6,67fe81161a5fc274b5e8920f,,,,,,,,,,,,,,,,,,,,,,With Brainslug Difficult 1 With Money,6,images/assets/snowy_money.jpg,learning,20,images/assets/success_money.jpg,images/assets/gameover.jpg,,,,,,,,,,,,,0,7,7,0,1,,,,,,,,,,,,,,,,,,,,,,,,,,,,,,,,
,,,,,,,,,,,,641386b1cb9a9c1e3569d4ee,001,3,2025-04-15_11h56.20.410,avatar_quest_3AFC_legacy,2022.1.3,Win32,59.88023952,641386b1cb9a9c1e3569d4ee,67fe6e666cecbc9329ddf6d6,67fe81161a5fc274b5e8920f,,,,,,,,,,,,,,,,,,,,,,No Brainslug No Barriers With Money,0,images/assets/snowy_money.jpg,learning,10,images/assets/success_money.jpg,images/assets/gameover.jpg,,,,,,,,,,,,,0,8,8,9,1,,,,,,,,,,,,,,,,,,,,,,,,,,,,,,,,
,,,,,,,,,,,,641386b1cb9a9c1e3569d4ee,001,3,2025-04-15_11h56.20.410,avatar_quest_3AFC_legacy,2022.1.3,Win32,59.88023952,641386b1cb9a9c1e3569d4ee,67fe6e666cecbc9329ddf6d6,67fe81161a5fc274b5e8920f,,,,,,,,,,,,,,,,,,,,,,With Brainslug No Barriers With Money,0,images/assets/snowy_money.jpg,learning,10,images/assets/success_money.jpg,images/assets/gameover.jpg,,,,,,,,,,,,,0,9,9,4,1,,,,,,,,,,,,,,,,,,,,,,,,,,,,,,,,
,,,,,,,,,,,,641386b1cb9a9c1e3569d4ee,001,3,2025-04-15_11h56.20.410,avatar_quest_3AFC_legacy,2022.1.3,Win32,59.88023952,641386b1cb9a9c1e3569d4ee,67fe6e666cecbc9329ddf6d6,67fe81161a5fc274b5e8920f,,,,,,,,,,,,,,,,,,,,,,With Brainslug Difficult 2 No Money,12,images/assets/snowy_original.jpg,learning,20,images/assets/success.jpg,images/assets/gameover.jpg,,,,,,,,,,,,,0,10,10,3,1,,,,,,,,,,,,,,,,,,,,,,,,,,,,,,,,
,,,,,,,,,,,,641386b1cb9a9c1e3569d4ee,001,3,2025-04-15_11h56.20.410,avatar_quest_3AFC_legacy,2022.1.3,Win32,59.88023952,641386b1cb9a9c1e3569d4ee,67fe6e666cecbc9329ddf6d6,67fe81161a5fc274b5e8920f,,,,,,,,,,,,,,,,,,,,,,,,,,,,,,,,,,,,,,,,,,,,,,,,,,,,,,,3,0,3,0,1,,,,,,,,,,,,,,,,,,
,,,,,,,,,,,,641386b1cb9a9c1e3569d4ee,001,3,2025-04-15_11h56.20.410,avatar_quest_3AFC_legacy,2022.1.3,Win32,59.88023952,641386b1cb9a9c1e3569d4ee,67fe6e666cecbc9329ddf6d6,67fe81161a5fc274b5e8920f,,,,,,,,,,,,,,,,,,,,,,No Brainslug Difficult 2 With Money,12,images/assets/snowy_money.jpg,learning,20,images/assets/success_money.jpg,images/assets/gameover.jpg,,,,,,,,With Brainslug Difficult 2 With Money,With Brainslug Difficult 1 No Money,right,0.1446,"[""With Brainslug Difficult 1 No Money"",""With Brainslug Difficult 2 No Money""]",0,0,0,7,1,,,,,,,,,,,,,,,,,,,,,,,,,,,,,,,,
,,,,,,,,,,,,641386b1cb9a9c1e3569d4ee,001,3,2025-04-15_11h56.20.410,avatar_quest_3AFC_legacy,2022.1.3,Win32,59.88023952,641386b1cb9a9c1e3569d4ee,67fe6e666cecbc9329ddf6d6,67fe81161a5fc274b5e8920f,"[""right"",""left"",""left"",""right"",""right"",""right"",""right"",""right"",""right"",""right"",""right"",""right"",""left"",""left"",""left"",""left"",""left"",""right"",""right"",""right"",""right"",""right"",""right"",""right"",""left"",""left"",""left"",""left"",""left"",""left"",""left"",""left"",""left"",""left"",""left"",""right"",""right"",""right"",""right"",""right"",""right"",""right""]","[1.0965000000000202,1.562700000017884,2.029300000011915,2.495400000005958,2.7624000000059823,3.229900000005955,3.8128000000119187,4.229400000005967,4.495599999994056,4.778400000005973,5.246099999994044,5.562200000017896,6.162700000017878,6.39590000000598,6.612200000017879,6.896500000000003,7.262200000017884,7.528500000000008,7.730099999994053,7.912499999999994,8.112700000017895,8.279300000011915,8.495200000017888,8.778800000011927,9.01320000001789,9.228900000005979,9.396200000017899,9.596000000000004,9.779700000017897,9.962800000011924,10.129400000005973,10.3305,10.512099999994035,10.779300000011915,11.012,11.262300000011919,11.463099999994057,11.662300000011925,11.845800000011934,12.046099999994055,12.262700000017901,12.513000000000005]",,calibration,With Brainslug Difficult 2 With Money,8,12.62805,12.6427,15,7,0,FALSE,na,na,na,na,,,,,,,,,,,,,,,,,,,,,,,,,,,,,,,,,,0,0,0,0,1,,,,,,,,,,,,,,,,,,,,,,,
,,,,,,,,,,,,641386b1cb9a9c1e3569d4ee,001,3,2025-04-15_11h56.20.410,avatar_quest_3AFC_legacy,2022.1.3,Win32,59.88023952,641386b1cb9a9c1e3569d4ee,67fe6e666cecbc9329ddf6d6,67fe81161a5fc274b5e8920f,,,,,,,,,,,,,,,,,,,,,,With Brainslug Difficult 2 With Money,12,images/assets/snowy_money.jpg,learning,20,images/assets/success_money.jpg,images/assets/gameover.jpg,,,,,,,,,,,,,0,1,1,2,1,,,,,,,,,,,,,,,,,,,,,,,,,,,,,,,,
,,,,,,,,,,,,641386b1cb9a9c1e3569d4ee,001,3,2025-04-15_11h56.20.410,avatar_quest_3AFC_legacy,2022.1.3,Win32,59.88023952,641386b1cb9a9c1e3569d4ee,67fe6e666cecbc9329ddf6d6,67fe81161a5fc274b5e8920f,,,,,,,,,,,,,,,,,,,,,,No Brainslug Difficult 1 No Money,6,images/assets/snowy_original.jpg,learning,20,images/assets/success.jpg,images/assets/gameover.jpg,,,,,,,,,,,,,0,2,2,6,1,,,,,,,,,,,,,,,,,,,,,,,,,,,,,,,,
,,,,,,,,,,,,641386b1cb9a9c1e3569d4ee,001,3,2025-04-15_11h56.20.410,avatar_quest_3AFC_legacy,2022.1.3,Win32,59.88023952,641386b1cb9a9c1e3569d4ee,67fe6e666cecbc9329ddf6d6,67fe81161a5fc274b5e8920f,,,,,,,,,,,,,,,,,,,,,,With Brainslug No Barriers With Money,0,images/assets/snowy_money.jpg,learning,10,images/assets/success_money.jpg,images/assets/gameover.jpg,,,,,,,,,,,,,0,3,3,4,1,,,,,,,,,,,,,,,,,,,,,,,,,,,,,,,,
,,,,,,,,,,,,641386b1cb9a9c1e3569d4ee,001,3,2025-04-15_11h56.20.410,avatar_quest_3AFC_legacy,2022.1.3,Win32,59.88023952,641386b1cb9a9c1e3569d4ee,67fe6e666cecbc9329ddf6d6,67fe81161a5fc274b5e8920f,,,,,,,,,,,,,,,,,,,,,,No Brainslug Difficult 2 No Money,12,images/assets/snowy_original.jpg,learning,20,images/assets/success.jpg,images/assets/gameover.jpg,,,,,,,,,,,,,0,4,4,8,1,,,,,,,,,,,,,,,,,,,,,,,,,,,,,,,,
,,,,,,,,,,,,641386b1cb9a9c1e3569d4ee,001,3,2025-04-15_11h56.20.410,avatar_quest_3AFC_legacy,2022.1.3,Win32,59.88023952,641386b1cb9a9c1e3569d4ee,67fe6e666cecbc9329ddf6d6,67fe81161a5fc274b5e8920f,,,,,,,,,,,,,,,,,,,,,,No Brainslug No Barriers With Money,0,images/assets/snowy_money.jpg,learning,10,images/assets/success_money.jpg,images/assets/gameover.jpg,,,,,,,,,,,,,0,5,5,9,1,,,,,,,,,,,,,,,,,,,,,,,,,,,,,,,,
,,,,,,,,,,,,641386b1cb9a9c1e3569d4ee,001,3,2025-04-15_11h56.20.410,avatar_quest_3AFC_legacy,2022.1.3,Win32,59.88023952,641386b1cb9a9c1e3569d4ee,67fe6e666cecbc9329ddf6d6,67fe81161a5fc274b5e8920f,,,,,,,,,,,,,,,,,,,,,,With Brainslug Difficult 1 No Money,6,images/assets/snowy_original.jpg,learning,20,images/assets/success.jpg,images/assets/gameover.jpg,,,,,,,,,,,,,0,6,6,1,1,,,,,,,,,,,,,,,,,,,,,,,,,,,,,,,,
,,,,,,,,,,,,641386b1cb9a9c1e3569d4ee,001,3,2025-04-15_11h56.20.410,avatar_quest_3AFC_legacy,2022.1.3,Win32,59.88023952,641386b1cb9a9c1e3569d4ee,67fe6e666cecbc9329ddf6d6,67fe81161a5fc274b5e8920f,,,,,,,,,,,,,,,,,,,,,,With Brainslug Difficult 1 With Money,6,images/assets/snowy_money.jpg,learning,20,images/assets/success_money.jpg,images/assets/gameover.jpg,,,,,,,,,,,,,0,7,7,0,1,,,,,,,,,,,,,,,,,,,,,,,,,,,,,,,,
,,,,,,,,,,,,641386b1cb9a9c1e3569d4ee,001,3,2025-04-15_11h56.20.410,avatar_quest_3AFC_legacy,2022.1.3,Win32,59.88023952,641386b1cb9a9c1e3569d4ee,67fe6e666cecbc9329ddf6d6,67fe81161a5fc274b5e8920f,,,,,,,,,,,,,,,,,,,,,,With Brainslug Difficult 2 No Money,12,images/assets/snowy_original.jpg,learning,20,images/assets/success.jpg,images/assets/gameover.jpg,,,,,,,,,,,,,0,8,8,3,1,,,,,,,,,,,,,,,,,,,,,,,,,,,,,,,,
,,,,,,,,,,,,641386b1cb9a9c1e3569d4ee,001,3,2025-04-15_11h56.20.410,avatar_quest_3AFC_legacy,2022.1.3,Win32,59.88023952,641386b1cb9a9c1e3569d4ee,67fe6e666cecbc9329ddf6d6,67fe81161a5fc274b5e8920f,,,,,,,,,,,,,,,,,,,,,,With Brainslug No Barriers No Money,0,images/assets/snowy_original.jpg,learning,10,images/assets/success.jpg,images/assets/gameover.jpg,,,,,,,,,,,,,0,9,9,5,1,,,,,,,,,,,,,,,,,,,,,,,,,,,,,,,,
,,,,,,,,,,,,641386b1cb9a9c1e3569d4ee,001,3,2025-04-15_11h56.20.410,avatar_quest_3AFC_legacy,2022.1.3,Win32,59.88023952,641386b1cb9a9c1e3569d4ee,67fe6e666cecbc9329ddf6d6,67fe81161a5fc274b5e8920f,,,,,,,,,,,,,,,,,,,,,,No Brainslug No Barriers No Money,0,images/assets/snowy_original.jpg,learning,10,images/assets/success.jpg,images/assets/gameover.jpg,,,,,,,,,,,,,0,10,10,10,1,,,,,,,,,,,,,,,,,,,,,,,,,,,,,,,,
,,,,,,,,,,,,641386b1cb9a9c1e3569d4ee,001,3,2025-04-15_11h56.20.410,avatar_quest_3AFC_legacy,2022.1.3,Win32,59.88023952,641386b1cb9a9c1e3569d4ee,67fe6e666cecbc9329ddf6d6,67fe81161a5fc274b5e8920f,,,,,,,,,,,,,,,,,,,,,,,,,,,,,,,,,,,,,,,,,,,,,,,,,,,,,,,4,0,4,0,1,,,,,,,,,,,,,,,,,,
,,,,,,,,,,,,641386b1cb9a9c1e3569d4ee,001,3,2025-04-15_11h56.20.410,avatar_quest_3AFC_legacy,2022.1.3,Win32,59.88023952,641386b1cb9a9c1e3569d4ee,67fe6e666cecbc9329ddf6d6,67fe81161a5fc274b5e8920f,"[""right"",""left"",""up"",""left"",""left"",""left"",""right"",""left"",""left"",""right"",""right"",""right"",""left"",""left"",""left"",""left"",""right"",""right"",""left"",""left"",""left"",""right"",""right"",""left"",""right"",""left"",""left"",""left"",""right"",""right""]","[1.5703000000119118,2.3189999999999884,3.034900000005962,3.5175999999940473,4.033199999988085,4.51630000001191,4.950400000005942,5.383800000011917,5.649800000011908,6.067000000000007,6.2995999999940295,6.567400000005961,6.800300000011902,6.983800000011911,7.150000000000006,7.334199999988073,7.567099999994042,7.766199999988061,7.984099999994044,8.183699999988079,8.332900000005964,8.533500000000004,8.76630000001191,8.966999999999985,9.199999999999989,9.349999999999994,9.517599999994047,9.69969999998807,9.866500000000002,10.099999999999994]",,calibration,With Brainslug Difficult 1 No Money,9,12.62805,10.2162,13,3,0,TRUE,na,na,na,na,,,,,,,,,,,,,,,,,,,,With Brainslug Difficult 1 No Money,With Brainslug Difficult 1 No Money,left,0.9348,"[""With Brainslug Difficult 2 No Money"",""With Brainslug Difficult 2 With Money""]",,,,,,,,,,0,0,0,0,1,,,,,,,,,,,,,,,,,,,,,,,
,,,,,,,,,,,,641386b1cb9a9c1e3569d4ee,001,3,2025-04-15_11h56.20.410,avatar_quest_3AFC_legacy,2022.1.3,Win32,59.88023952,641386b1cb9a9c1e3569d4ee,67fe6e666cecbc9329ddf6d6,67fe81161a5fc274b5e8920f,,,,,,,,,,,,,,,,,,,,,,With Brainslug Difficult 1 No Money,6,images/assets/snowy_original.jpg,learning,20,images/assets/success.jpg,images/assets/gameover.jpg,,,,,,,,,,,,,0,0,0,1,1,,,,,,,,,,,,,,,,,,,,,,,,,,,,,,,,
,,,,,,,,,,,,641386b1cb9a9c1e3569d4ee,001,3,2025-04-15_11h56.20.410,avatar_quest_3AFC_legacy,2022.1.3,Win32,59.88023952,641386b1cb9a9c1e3569d4ee,67fe6e666cecbc9329ddf6d6,67fe81161a5fc274b5e8920f,,,,,,,,,,,,,,,,,,,,,,No Brainslug Difficult 2 No Money,12,images/assets/snowy_original.jpg,learning,20,images/assets/success.jpg,images/assets/gameover.jpg,,,,,,,,,,,,,0,1,1,8,1,,,,,,,,,,,,,,,,,,,,,,,,,,,,,,,,
,,,,,,,,,,,,641386b1cb9a9c1e3569d4ee,001,3,2025-04-15_11h56.20.410,avatar_quest_3AFC_legacy,2022.1.3,Win32,59.88023952,641386b1cb9a9c1e3569d4ee,67fe6e666cecbc9329ddf6d6,67fe81161a5fc274b5e8920f,,,,,,,,,,,,,,,,,,,,,,With Brainslug Difficult 2 With Money,12,images/assets/snowy_money.jpg,learning,20,images/assets/success_money.jpg,images/assets/gameover.jpg,,,,,,,,,,,,,0,2,2,2,1,,,,,,,,,,,,,,,,,,,,,,,,,,,,,,,,
,,,,,,,,,,,,641386b1cb9a9c1e3569d4ee,001,3,2025-04-15_11h56.20.410,avatar_quest_3AFC_legacy,2022.1.3,Win32,59.88023952,641386b1cb9a9c1e3569d4ee,67fe6e666cecbc9329ddf6d6,67fe81161a5fc274b5e8920f,,,,,,,,,,,,,,,,,,,,,,No Brainslug Difficult 1 No Money,6,images/assets/snowy_original.jpg,learning,20,images/assets/success.jpg,images/assets/gameover.jpg,,,,,,,,,,,,,0,3,3,6,1,,,,,,,,,,,,,,,,,,,,,,,,,,,,,,,,
,,,,,,,,,,,,641386b1cb9a9c1e3569d4ee,001,3,2025-04-15_11h56.20.410,avatar_quest_3AFC_legacy,2022.1.3,Win32,59.88023952,641386b1cb9a9c1e3569d4ee,67fe6e666cecbc9329ddf6d6,67fe81161a5fc274b5e8920f,,,,,,,,,,,,,,,,,,,,,,With Brainslug Difficult 2 No Money,12,images/assets/snowy_original.jpg,learning,20,images/assets/success.jpg,images/assets/gameover.jpg,,,,,,,,,,,,,0,4,4,3,1,,,,,,,,,,,,,,,,,,,,,,,,,,,,,,,,
,,,,,,,,,,,,641386b1cb9a9c1e3569d4ee,001,3,2025-04-15_11h56.20.410,avatar_quest_3AFC_legacy,2022.1.3,Win32,59.88023952,641386b1cb9a9c1e3569d4ee,67fe6e666cecbc9329ddf6d6,67fe81161a5fc274b5e8920f,,,,,,,,,,,,,,,,,,,,,,With Brainslug No Barriers No Money,0,images/assets/snowy_original.jpg,learning,10,images/assets/success.jpg,images/assets/gameover.jpg,,,,,,,,,,,,,0,5,5,5,1,,,,,,,,,,,,,,,,,,,,,,,,,,,,,,,,
,,,,,,,,,,,,641386b1cb9a9c1e3569d4ee,001,3,2025-04-15_11h56.20.410,avatar_quest_3AFC_legacy,2022.1.3,Win32,59.88023952,641386b1cb9a9c1e3569d4ee,67fe6e666cecbc9329ddf6d6,67fe81161a5fc274b5e8920f,,,,,,,,,,,,,,,,,,,,,,No Brainslug No Barriers With Money,0,images/assets/snowy_money.jpg,learning,10,images/assets/success_money.jpg,images/assets/gameover.jpg,,,,,,,,,,,,,0,6,6,9,1,,,,,,,,,,,,,,,,,,,,,,,,,,,,,,,,
,,,,,,,,,,,,641386b1cb9a9c1e3569d4ee,001,3,2025-04-15_11h56.20.410,avatar_quest_3AFC_legacy,2022.1.3,Win32,59.88023952,641386b1cb9a9c1e3569d4ee,67fe6e666cecbc9329ddf6d6,67fe81161a5fc274b5e8920f,,,,,,,,,,,,,,,,,,,,,,No Brainslug Difficult 2 With Money,12,images/assets/snowy_money.jpg,learning,20,images/assets/success_money.jpg,images/assets/gameover.jpg,,,,,,,,,,,,,0,7,7,7,1,,,,,,,,,,,,,,,,,,,,,,,,,,,,,,,,
,,,,,,,,,,,,641386b1cb9a9c1e3569d4ee,001,3,2025-04-15_11h56.20.410,avatar_quest_3AFC_legacy,2022.1.3,Win32,59.88023952,641386b1cb9a9c1e3569d4ee,67fe6e666cecbc9329ddf6d6,67fe81161a5fc274b5e8920f,,,,,,,,,,,,,,,,,,,,,,With Brainslug Difficult 1 With Money,6,images/assets/snowy_money.jpg,learning,20,images/assets/success_money.jpg,images/assets/gameover.jpg,,,,,,,,,,,,,0,8,8,0,1,,,,,,,,,,,,,,,,,,,,,,,,,,,,,,,,
,,,,,,,,,,,,641386b1cb9a9c1e3569d4ee,001,3,2025-04-15_11h56.20.410,avatar_quest_3AFC_legacy,2022.1.3,Win32,59.88023952,641386b1cb9a9c1e3569d4ee,67fe6e666cecbc9329ddf6d6,67fe81161a5fc274b5e8920f,,,,,,,,,,,,,,,,,,,,,,With Brainslug No Barriers With Money,0,images/assets/snowy_money.jpg,learning,10,images/assets/success_money.jpg,images/assets/gameover.jpg,,,,,,,,,,,,,0,9,9,4,1,,,,,,,,,,,,,,,,,,,,,,,,,,,,,,,,
,,,,,,,,,,,,641386b1cb9a9c1e3569d4ee,001,3,2025-04-15_11h56.20.410,avatar_quest_3AFC_legacy,2022.1.3,Win32,59.88023952,641386b1cb9a9c1e3569d4ee,67fe6e666cecbc9329ddf6d6,67fe81161a5fc274b5e8920f,,,,,,,,,,,,,,,,,,,,,,No Brainslug No Barriers No Money,0,images/assets/snowy_original.jpg,learning,10,images/assets/success.jpg,images/assets/gameover.jpg,,,,,,,,,,,,,0,10,10,10,1,,,,,,,,,,,,,,,,,,,,,,,,,,,,,,,,
,,,,,,,,,,,,641386b1cb9a9c1e3569d4ee,001,3,2025-04-15_11h56.20.410,avatar_quest_3AFC_legacy,2022.1.3,Win32,59.88023952,641386b1cb9a9c1e3569d4ee,67fe6e666cecbc9329ddf6d6,67fe81161a5fc274b5e8920f,,,,,,,,,,,,,,,,,,,,,,,,,,,,,,,,,,,,,,,,,,,,,,,,,,,,,,,5,0,5,0,1,,,,,,,,,,,,,,,,,,
,,,,,,,,,,,,641386b1cb9a9c1e3569d4ee,001,3,2025-04-15_11h56.20.410,avatar_quest_3AFC_legacy,2022.1.3,Win32,59.88023952,641386b1cb9a9c1e3569d4ee,67fe6e666cecbc9329ddf6d6,67fe81161a5fc274b5e8920f,,,,,,,,,,,,,,,,,,,,,,No Brainslug Difficult 2 With Money,12,images/assets/snowy_money.jpg,learning,20,images/assets/success_money.jpg,images/assets/gameover.jpg,,,,,,,,With Brainslug Difficult 1 No Money,With Brainslug Difficult 1 No Money,left,0.9676,"[""With Brainslug Difficult 2 No Money"",""With Brainslug Difficult 2 With Money""]",0,0,0,7,1,,,,,,,,,,,,,,,,,,,,,,,,,,,,,,,,
,,,,,,,,,,,,641386b1cb9a9c1e3569d4ee,001,3,2025-04-15_11h56.20.410,avatar_quest_3AFC_legacy,2022.1.3,Win32,59.88023952,641386b1cb9a9c1e3569d4ee,67fe6e666cecbc9329ddf6d6,67fe81161a5fc274b5e8920f,"[""left"",""right"",""left"",""left"",""left"",""left"",""left"",""left"",""left"",""left"",""left"",""left"",""right"",""right"",""right"",""right"",""right"",""right"",""right"",""right"",""right"",""right"",""right"",""left"",""left"",""left"",""left"",""left"",""left"",""left"",""left"",""right"",""right"",""right"",""right"",""right"",""right""]","[1.2800000000000011,1.6427999999821168,2.0432999999821106,2.5095999999940375,2.742099999994025,2.9585999999940213,3.175199999988081,3.3760999999940395,3.558299999982097,3.758499999999998,3.9260999999940225,4.108699999988062,4.525699999988063,4.675199999988081,4.841699999988066,4.975400000005948,5.158599999994038,5.325699999988075,5.475299999982099,5.6084000000059575,5.758599999994033,6.025000000000006,6.19169999998806,6.341499999999996,6.508599999994033,6.692400000005961,6.892099999994031,7.0766999999880795,7.275499999999994,7.458400000005952,7.642499999999984,7.975599999994046,8.19240000000596,8.374900000005965,8.608199999988074,8.791799999982118,9.009500000000003]",,calibration,With Brainslug Difficult 1 No Money,10,12.62805,9.1339,9,4,0,TRUE,na,na,na,na,,,,,,,,,,,,,,,,,,,,,,,,,,,,,,,,,,0,0,0,0,1,,,,,,,,,,,,,,,,,,,,,,,
,,,,,,,,,,,,641386b1cb9a9c1e3569d4ee,001,3,2025-04-15_11h56.20.410,avatar_quest_3AFC_legacy,2022.1.3,Win32,59.88023952,641386b1cb9a9c1e3569d4ee,67fe6e666cecbc9329ddf6d6,67fe81161a5fc274b5e8920f,,,,,,,,,,,,,,,,,,,,,,With Brainslug Difficult 1 No Money,6,images/assets/snowy_original.jpg,learning,20,images/assets/success.jpg,images/assets/gameover.jpg,,,,,,,,,,,,,0,1,1,1,1,,,,,,,,,,,,,,,,,,,,,,,,,,,,,,,,
,,,,,,,,,,,,641386b1cb9a9c1e3569d4ee,001,3,2025-04-15_11h56.20.410,avatar_quest_3AFC_legacy,2022.1.3,Win32,59.88023952,641386b1cb9a9c1e3569d4ee,67fe6e666cecbc9329ddf6d6,67fe81161a5fc274b5e8920f,,,,,,,,,,,,,,,,,,,,,,No Brainslug Difficult 1 No Money,6,images/assets/snowy_original.jpg,learning,20,images/assets/success.jpg,images/assets/gameover.jpg,,,,,,,,,,,,,0,2,2,6,1,,,,,,,,,,,,,,,,,,,,,,,,,,,,,,,,
,,,,,,,,,,,,641386b1cb9a9c1e3569d4ee,001,3,2025-04-15_11h56.20.410,avatar_quest_3AFC_legacy,2022.1.3,Win32,59.88023952,641386b1cb9a9c1e3569d4ee,67fe6e666cecbc9329ddf6d6,67fe81161a5fc274b5e8920f,,,,,,,,,,,,,,,,,,,,,,No Brainslug No Barriers With Money,0,images/assets/snowy_money.jpg,learning,10,images/assets/success_money.jpg,images/assets/gameover.jpg,,,,,,,,,,,,,0,3,3,9,1,,,,,,,,,,,,,,,,,,,,,,,,,,,,,,,,
,,,,,,,,,,,,641386b1cb9a9c1e3569d4ee,001,3,2025-04-15_11h56.20.410,avatar_quest_3AFC_legacy,2022.1.3,Win32,59.88023952,641386b1cb9a9c1e3569d4ee,67fe6e666cecbc9329ddf6d6,67fe81161a5fc274b5e8920f,,,,,,,,,,,,,,,,,,,,,,With Brainslug Difficult 1 With Money,6,images/assets/snowy_money.jpg,learning,20,images/assets/success_money.jpg,images/assets/gameover.jpg,,,,,,,,,,,,,0,4,4,0,1,,,,,,,,,,,,,,,,,,,,,,,,,,,,,,,,
,,,,,,,,,,,,641386b1cb9a9c1e3569d4ee,001,3,2025-04-15_11h56.20.410,avatar_quest_3AFC_legacy,2022.1.3,Win32,59.88023952,641386b1cb9a9c1e3569d4ee,67fe6e666cecbc9329ddf6d6,67fe81161a5fc274b5e8920f,,,,,,,,,,,,,,,,,,,,,,With Brainslug No Barriers No Money,0,images/assets/snowy_original.jpg,learning,10,images/assets/success.jpg,images/assets/gameover.jpg,,,,,,,,,,,,,0,5,5,5,1,,,,,,,,,,,,,,,,,,,,,,,,,,,,,,,,
,,,,,,,,,,,,641386b1cb9a9c1e3569d4ee,001,3,2025-04-15_11h56.20.410,avatar_quest_3AFC_legacy,2022.1.3,Win32,59.88023952,641386b1cb9a9c1e3569d4ee,67fe6e666cecbc9329ddf6d6,67fe81161a5fc274b5e8920f,,,,,,,,,,,,,,,,,,,,,,No Brainslug No Barriers No Money,0,images/assets/snowy_original.jpg,learning,10,images/assets/success.jpg,images/assets/gameover.jpg,,,,,,,,,,,,,0,6,6,10,1,,,,,,,,,,,,,,,,,,,,,,,,,,,,,,,,
,,,,,,,,,,,,641386b1cb9a9c1e3569d4ee,001,3,2025-04-15_11h56.20.410,avatar_quest_3AFC_legacy,2022.1.3,Win32,59.88023952,641386b1cb9a9c1e3569d4ee,67fe6e666cecbc9329ddf6d6,67fe81161a5fc274b5e8920f,,,,,,,,,,,,,,,,,,,,,,No Brainslug Difficult 2 No Money,12,images/assets/snowy_original.jpg,learning,20,images/assets/success.jpg,images/assets/gameover.jpg,,,,,,,,,,,,,0,7,7,8,1,,,,,,,,,,,,,,,,,,,,,,,,,,,,,,,,
,,,,,,,,,,,,641386b1cb9a9c1e3569d4ee,001,3,2025-04-15_11h56.20.410,avatar_quest_3AFC_legacy,2022.1.3,Win32,59.88023952,641386b1cb9a9c1e3569d4ee,67fe6e666cecbc9329ddf6d6,67fe81161a5fc274b5e8920f,,,,,,,,,,,,,,,,,,,,,,With Brainslug No Barriers With Money,0,images/assets/snowy_money.jpg,learning,10,images/assets/success_money.jpg,images/assets/gameover.jpg,,,,,,,,,,,,,0,8,8,4,1,,,,,,,,,,,,,,,,,,,,,,,,,,,,,,,,
,,,,,,,,,,,,641386b1cb9a9c1e3569d4ee,001,3,2025-04-15_11h56.20.410,avatar_quest_3AFC_legacy,2022.1.3,Win32,59.88023952,641386b1cb9a9c1e3569d4ee,67fe6e666cecbc9329ddf6d6,67fe81161a5fc274b5e8920f,,,,,,,,,,,,,,,,,,,,,,With Brainslug Difficult 2 With Money,12,images/assets/snowy_money.jpg,learning,20,images/assets/success_money.jpg,images/assets/gameover.jpg,,,,,,,,,,,,,0,9,9,2,1,,,,,,,,,,,,,,,,,,,,,,,,,,,,,,,,
,,,,,,,,,,,,641386b1cb9a9c1e3569d4ee,001,3,2025-04-15_11h56.20.410,avatar_quest_3AFC_legacy,2022.1.3,Win32,59.88023952,641386b1cb9a9c1e3569d4ee,67fe6e666cecbc9329ddf6d6,67fe81161a5fc274b5e8920f,,,,,,,,,,,,,,,,,,,,,,With Brainslug Difficult 2 No Money,12,images/assets/snowy_original.jpg,learning,20,images/assets/success.jpg,images/assets/gameover.jpg,,,,,,,,,,,,,0,10,10,3,1,,,,,,,,,,,,,,,,,,,,,,,,,,,,,,,,
,,,,,,,,,,,,641386b1cb9a9c1e3569d4ee,001,3,2025-04-15_11h56.20.410,avatar_quest_3AFC_legacy,2022.1.3,Win32,59.88023952,641386b1cb9a9c1e3569d4ee,67fe6e666cecbc9329ddf6d6,67fe81161a5fc274b5e8920f,,,,,,,,,,,,,,,,,,,,,,,,,,,,,,,,,,,,,,,,,,,,,,,,,,,,,,,6,0,6,0,1,,,,,,,,,,,,,,,,,,
,,,,,,,,,,,,641386b1cb9a9c1e3569d4ee,001,3,2025-04-15_11h56.20.410,avatar_quest_3AFC_legacy,2022.1.3,Win32,59.88023952,641386b1cb9a9c1e3569d4ee,67fe6e666cecbc9329ddf6d6,67fe81161a5fc274b5e8920f,,,,,,,,,,,,,,,,,,,,,,No Brainslug No Barriers With Money,0,images/assets/snowy_money.jpg,learning,10,images/assets/success_money.jpg,images/assets/gameover.jpg,,,,,,,,With Brainslug Difficult 2 No Money,With Brainslug Difficult 1 No Money,down,1.7891,"[""With Brainslug Difficult 1 No Money"",""With Brainslug Difficult 2 With Money""]",0,0,0,9,1,,,,,,,,,,,,,,,,,,,,,,,,,,,,,,,,
,,,,,,,,,,,,641386b1cb9a9c1e3569d4ee,001,3,2025-04-15_11h56.20.410,avatar_quest_3AFC_legacy,2022.1.3,Win32,59.88023952,641386b1cb9a9c1e3569d4ee,67fe6e666cecbc9329ddf6d6,67fe81161a5fc274b5e8920f,,,,,,,,,,,,,,,,,,,,,,With Brainslug Difficult 1 No Money,6,images/assets/snowy_original.jpg,learning,20,images/assets/success.jpg,images/assets/gameover.jpg,,,,,,,,,,,,,0,1,1,1,1,,,,,,,,,,,,,,,,,,,,,,,,,,,,,,,,
,,,,,,,,,,,,641386b1cb9a9c1e3569d4ee,001,3,2025-04-15_11h56.20.410,avatar_quest_3AFC_legacy,2022.1.3,Win32,59.88023952,641386b1cb9a9c1e3569d4ee,67fe6e666cecbc9329ddf6d6,67fe81161a5fc274b5e8920f,,,,,,,,,,,,,,,,,,,,,,No Brainslug Difficult 2 No Money,12,images/assets/snowy_original.jpg,learning,20,images/assets/success.jpg,images/assets/gameover.jpg,,,,,,,,,,,,,0,2,2,8,1,,,,,,,,,,,,,,,,,,,,,,,,,,,,,,,,
,,,,,,,,,,,,641386b1cb9a9c1e3569d4ee,001,3,2025-04-15_11h56.20.410,avatar_quest_3AFC_legacy,2022.1.3,Win32,59.88023952,641386b1cb9a9c1e3569d4ee,67fe6e666cecbc9329ddf6d6,67fe81161a5fc274b5e8920f,"[""up"",""right"",""left"",""left"",""left"",""left"",""left"",""right"",""right"",""right"",""right"",""left"",""left"",""left"",""left"",""left"",""left"",""left"",""left"",""right"",""right"",""right"",""right"",""right"",""right"",""right"",""right"",""right"",""right"",""left"",""left"",""left"",""left"",""right"",""right"",""right"",""right"",""right"",""left"",""left"",""left"",""left"",""left"",""left"",""left"",""left"",""left"",""right"",""right"",""right"",""right"",""right"",""right"",""right"",""right"",""right""]","[0.8119000000059771,1.2593000000119332,1.4743000000119366,1.659699999988078,1.839800000011934,2.0059000000059655,2.1563000000119246,2.453900000005973,2.61990000000597,2.7699000000059755,3.035599999994048,3.2515000000000214,3.4036999999880777,3.584300000011922,3.883800000011945,4.050099999994046,4.2195999999940454,4.416500000000013,4.60359999999406,4.864400000005986,5.08359999999405,5.2970000000000255,5.532000000000011,5.763400000005987,5.9796999999880995,6.244300000011947,6.4610999999940475,6.693699999988098,6.927500000000009,7.1440000000000055,7.32740000000598,7.5269000000059805,7.744400000005982,8.043800000011942,8.244500000000016,8.444300000011935,8.643699999988087,8.87790000000598,8.993500000000012,9.193400000005965,9.360500000000002,9.543900000005976,9.726699999988085,10.060900000005972,10.260199999988089,10.477199999988102,10.710300000011927,10.927699999988079,11.127099999994044,11.32740000000598,11.52709999999405,11.727099999994039,11.927099999994056,12.127099999994044,12.34359999999404,12.544000000000011]",,calibration,With Brainslug Difficult 2 No Money,11,12.62805,12.6351,25,8,0,FALSE,na,na,na,na,,,,,,,,,,,,,,,,,,,,,,,,,,,,,,,,,,0,0,0,0,1,,,,,,,,,,,,,,,,,,,,,,,
,,,,,,,,,,,,641386b1cb9a9c1e3569d4ee,001,3,2025-04-15_11h56.20.410,avatar_quest_3AFC_legacy,2022.1.3,Win32,59.88023952,641386b1cb9a9c1e3569d4ee,67fe6e666cecbc9329ddf6d6,67fe81161a5fc274b5e8920f,,,,,,,,,,,,,,,,,,,,,,With Brainslug Difficult 2 No Money,12,images/assets/snowy_original.jpg,learning,20,images/assets/success.jpg,images/assets/gameover.jpg,,,,,,,,,,,,,0,3,3,3,1,,,,,,,,,,,,,,,,,,,,,,,,,,,,,,,,
,,,,,,,,,,,,641386b1cb9a9c1e3569d4ee,001,3,2025-04-15_11h56.20.410,avatar_quest_3AFC_legacy,2022.1.3,Win32,59.88023952,641386b1cb9a9c1e3569d4ee,67fe6e666cecbc9329ddf6d6,67fe81161a5fc274b5e8920f,,,,,,,,,,,,,,,,,,,,,,No Brainslug Difficult 1 No Money,6,images/assets/snowy_original.jpg,learning,20,images/assets/success.jpg,images/assets/gameover.jpg,,,,,,,,,,,,,0,4,4,6,1,,,,,,,,,,,,,,,,,,,,,,,,,,,,,,,,
,,,,,,,,,,,,641386b1cb9a9c1e3569d4ee,001,3,2025-04-15_11h56.20.410,avatar_quest_3AFC_legacy,2022.1.3,Win32,59.88023952,641386b1cb9a9c1e3569d4ee,67fe6e666cecbc9329ddf6d6,67fe81161a5fc274b5e8920f,,,,,,,,,,,,,,,,,,,,,,No Brainslug Difficult 2 With Money,12,images/assets/snowy_money.jpg,learning,20,images/assets/success_money.jpg,images/assets/gameover.jpg,,,,,,,,,,,,,0,5,5,7,1,,,,,,,,,,,,,,,,,,,,,,,,,,,,,,,,
,,,,,,,,,,,,641386b1cb9a9c1e3569d4ee,001,3,2025-04-15_11h56.20.410,avatar_quest_3AFC_legacy,2022.1.3,Win32,59.88023952,641386b1cb9a9c1e3569d4ee,67fe6e666cecbc9329ddf6d6,67fe81161a5fc274b5e8920f,,,,,,,,,,,,,,,,,,,,,,No Brainslug No Barriers No Money,0,images/assets/snowy_original.jpg,learning,10,images/assets/success.jpg,images/assets/gameover.jpg,,,,,,,,,,,,,0,6,6,10,1,,,,,,,,,,,,,,,,,,,,,,,,,,,,,,,,
,,,,,,,,,,,,641386b1cb9a9c1e3569d4ee,001,3,2025-04-15_11h56.20.410,avatar_quest_3AFC_legacy,2022.1.3,Win32,59.88023952,641386b1cb9a9c1e3569d4ee,67fe6e666cecbc9329ddf6d6,67fe81161a5fc274b5e8920f,,,,,,,,,,,,,,,,,,,,,,With Brainslug No Barriers No Money,0,images/assets/snowy_original.jpg,learning,10,images/assets/success.jpg,images/assets/gameover.jpg,,,,,,,,,,,,,0,7,7,5,1,,,,,,,,,,,,,,,,,,,,,,,,,,,,,,,,
,,,,,,,,,,,,641386b1cb9a9c1e3569d4ee,001,3,2025-04-15_11h56.20.410,avatar_quest_3AFC_legacy,2022.1.3,Win32,59.88023952,641386b1cb9a9c1e3569d4ee,67fe6e666cecbc9329ddf6d6,67fe81161a5fc274b5e8920f,,,,,,,,,,,,,,,,,,,,,,With Brainslug Difficult 1 With Money,6,images/assets/snowy_money.jpg,learning,20,images/assets/success_money.jpg,images/assets/gameover.jpg,,,,,,,,,,,,,0,8,8,0,1,,,,,,,,,,,,,,,,,,,,,,,,,,,,,,,,
,,,,,,,,,,,,641386b1cb9a9c1e3569d4ee,001,3,2025-04-15_11h56.20.410,avatar_quest_3AFC_legacy,2022.1.3,Win32,59.88023952,641386b1cb9a9c1e3569d4ee,67fe6e666cecbc9329ddf6d6,67fe81161a5fc274b5e8920f,,,,,,,,,,,,,,,,,,,,,,With Brainslug Difficult 2 With Money,12,images/assets/snowy_money.jpg,learning,20,images/assets/success_money.jpg,images/assets/gameover.jpg,,,,,,,,,,,,,0,9,9,2,1,,,,,,,,,,,,,,,,,,,,,,,,,,,,,,,,
,,,,,,,,,,,,641386b1cb9a9c1e3569d4ee,001,3,2025-04-15_11h56.20.410,avatar_quest_3AFC_legacy,2022.1.3,Win32,59.88023952,641386b1cb9a9c1e3569d4ee,67fe6e666cecbc9329ddf6d6,67fe81161a5fc274b5e8920f,,,,,,,,,,,,,,,,,,,,,,With Brainslug No Barriers With Money,0,images/assets/snowy_money.jpg,learning,10,images/assets/success_money.jpg,images/assets/gameover.jpg,,,,,,,,,,,,,0,10,10,4,1,,,,,,,,,,,,,,,,,,,,,,,,,,,,,,,,
,,,,,,,,,,,,641386b1cb9a9c1e3569d4ee,001,3,2025-04-15_11h56.20.410,avatar_quest_3AFC_legacy,2022.1.3,Win32,59.88023952,641386b1cb9a9c1e3569d4ee,67fe6e666cecbc9329ddf6d6,67fe81161a5fc274b5e8920f,,,,,,,,,,,,,,,,,,,,,,,,,,,,,,,,,,,,,,,,,,,,,,,,,,,,,,,7,0,7,0,1,,,,,,,,,,,,,,,,,,
,,,,,,,,,,,,641386b1cb9a9c1e3569d4ee,001,3,2025-04-15_11h56.20.410,avatar_quest_3AFC_legacy,2022.1.3,Win32,59.88023952,641386b1cb9a9c1e3569d4ee,67fe6e666cecbc9329ddf6d6,67fe81161a5fc274b5e8920f,,,,,,,,,,,,,,,,,,,,,,With Brainslug Difficult 2 With Money,12,images/assets/snowy_money.jpg,learning,20,images/assets/success_money.jpg,images/assets/gameover.jpg,,,,,,,,With Brainslug Difficult 1 No Money,With Brainslug Difficult 1 No Money,left,0.534,"[""With Brainslug Difficult 2 No Money"",""With Brainslug Difficult 2 With Money""]",0,0,0,2,1,,,,,,,,,,,,,,,,,,,,,,,,,,,,,,,,
,,,,,,,,,,,,641386b1cb9a9c1e3569d4ee,001,3,2025-04-15_11h56.20.410,avatar_quest_3AFC_legacy,2022.1.3,Win32,59.88023952,641386b1cb9a9c1e3569d4ee,67fe6e666cecbc9329ddf6d6,67fe81161a5fc274b5e8920f,,,,,,,,,,,,,,,,,,,,,,With Brainslug Difficult 1 With Money,6,images/assets/snowy_money.jpg,learning,20,images/assets/success_money.jpg,images/assets/gameover.jpg,,,,,,,,,,,,,0,1,1,0,1,,,,,,,,,,,,,,,,,,,,,,,,,,,,,,,,
,,,,,,,,,,,,641386b1cb9a9c1e3569d4ee,001,3,2025-04-15_11h56.20.410,avatar_quest_3AFC_legacy,2022.1.3,Win32,59.88023952,641386b1cb9a9c1e3569d4ee,67fe6e666cecbc9329ddf6d6,67fe81161a5fc274b5e8920f,,,,,,,,,,,,,,,,,,,,,,No Brainslug Difficult 1 No Money,6,images/assets/snowy_original.jpg,learning,20,images/assets/success.jpg,images/assets/gameover.jpg,,,,,,,,,,,,,0,2,2,6,1,,,,,,,,,,,,,,,,,,,,,,,,,,,,,,,,
,,,,,,,,,,,,641386b1cb9a9c1e3569d4ee,001,3,2025-04-15_11h56.20.410,avatar_quest_3AFC_legacy,2022.1.3,Win32,59.88023952,641386b1cb9a9c1e3569d4ee,67fe6e666cecbc9329ddf6d6,67fe81161a5fc274b5e8920f,,,,,,,,,,,,,,,,,,,,,,With Brainslug No Barriers With Money,0,images/assets/snowy_money.jpg,learning,10,images/assets/success_money.jpg,images/assets/gameover.jpg,,,,,,,,,,,,,0,3,3,4,1,,,,,,,,,,,,,,,,,,,,,,,,,,,,,,,,
,,,,,,,,,,,,641386b1cb9a9c1e3569d4ee,001,3,2025-04-15_11h56.20.410,avatar_quest_3AFC_legacy,2022.1.3,Win32,59.88023952,641386b1cb9a9c1e3569d4ee,67fe6e666cecbc9329ddf6d6,67fe81161a5fc274b5e8920f,,,,,,,,,,,,,,,,,,,,,,No Brainslug No Barriers No Money,0,images/assets/snowy_original.jpg,learning,10,images/assets/success.jpg,images/assets/gameover.jpg,,,,,,,,,,,,,0,4,4,10,1,,,,,,,,,,,,,,,,,,,,,,,,,,,,,,,,
,,,,,,,,,,,,641386b1cb9a9c1e3569d4ee,001,3,2025-04-15_11h56.20.410,avatar_quest_3AFC_legacy,2022.1.3,Win32,59.88023952,641386b1cb9a9c1e3569d4ee,67fe6e666cecbc9329ddf6d6,67fe81161a5fc274b5e8920f,"[""left"",""right"",""left"",""left"",""left"",""left"",""left"",""right"",""right"",""right"",""right"",""up"",""up"",""left"",""left"",""left"",""left"",""left"",""left"",""left"",""left"",""left"",""left"",""right"",""right"",""right"",""right"",""right"",""right"",""left"",""left"",""left"",""left"",""left"",""left"",""right"",""right""]","[0.5111000000238448,1.6269000000059464,2.093300000011908,2.3601000000238344,2.643499999999989,2.8771000000238303,3.1103000000119323,3.427400000005946,3.6437000000178728,3.8771000000238303,4.110600000023851,4.344100000023843,4.59370000001789,4.793700000017878,4.976800000011934,5.177999999999997,5.36099999999999,5.543900000005948,5.726900000005969,5.960100000023829,6.210400000005961,6.494700000017872,6.7605000000000075,7.010700000017891,7.227499999999992,7.476900000005969,7.71070000001788,7.943600000023849,8.176999999999992,8.427500000000009,8.709900000005973,8.976900000005969,9.309900000005968,9.727100000023853,10.177100000023842,10.677800000011928,12.310300000011921]",,calibration,With Brainslug Difficult 1 No Money,12,12.62805,12.6361,7,3,0,FALSE,na,na,na,na,,,,,,,,,,,,,,,,,,,,,,,,,,,,,,,,,,0,0,0,0,1,,,,,,,,,,,,,,,,,,,,,,,
,,,,,,,,,,,,641386b1cb9a9c1e3569d4ee,001,3,2025-04-15_11h56.20.410,avatar_quest_3AFC_legacy,2022.1.3,Win32,59.88023952,641386b1cb9a9c1e3569d4ee,67fe6e666cecbc9329ddf6d6,67fe81161a5fc274b5e8920f,,,,,,,,,,,,,,,,,,,,,,With Brainslug Difficult 1 No Money,6,images/assets/snowy_original.jpg,learning,20,images/assets/success.jpg,images/assets/gameover.jpg,,,,,,,,,,,,,0,5,5,1,1,,,,,,,,,,,,,,,,,,,,,,,,,,,,,,,,
,,,,,,,,,,,,641386b1cb9a9c1e3569d4ee,001,3,2025-04-15_11h56.20.410,avatar_quest_3AFC_legacy,2022.1.3,Win32,59.88023952,641386b1cb9a9c1e3569d4ee,67fe6e666cecbc9329ddf6d6,67fe81161a5fc274b5e8920f,,,,,,,,,,,,,,,,,,,,,,No Brainslug Difficult 2 With Money,12,images/assets/snowy_money.jpg,learning,20,images/assets/success_money.jpg,images/assets/gameover.jpg,,,,,,,,,,,,,0,6,6,7,1,,,,,,,,,,,,,,,,,,,,,,,,,,,,,,,,
,,,,,,,,,,,,641386b1cb9a9c1e3569d4ee,001,3,2025-04-15_11h56.20.410,avatar_quest_3AFC_legacy,2022.1.3,Win32,59.88023952,641386b1cb9a9c1e3569d4ee,67fe6e666cecbc9329ddf6d6,67fe81161a5fc274b5e8920f,,,,,,,,,,,,,,,,,,,,,,With Brainslug No Barriers No Money,0,images/assets/snowy_original.jpg,learning,10,images/assets/success.jpg,images/assets/gameover.jpg,,,,,,,,,,,,,0,7,7,5,1,,,,,,,,,,,,,,,,,,,,,,,,,,,,,,,,
,,,,,,,,,,,,641386b1cb9a9c1e3569d4ee,001,3,2025-04-15_11h56.20.410,avatar_quest_3AFC_legacy,2022.1.3,Win32,59.88023952,641386b1cb9a9c1e3569d4ee,67fe6e666cecbc9329ddf6d6,67fe81161a5fc274b5e8920f,,,,,,,,,,,,,,,,,,,,,,No Brainslug Difficult 2 No Money,12,images/assets/snowy_original.jpg,learning,20,images/assets/success.jpg,images/assets/gameover.jpg,,,,,,,,,,,,,0,8,8,8,1,,,,,,,,,,,,,,,,,,,,,,,,,,,,,,,,
,,,,,,,,,,,,641386b1cb9a9c1e3569d4ee,001,3,2025-04-15_11h56.20.410,avatar_quest_3AFC_legacy,2022.1.3,Win32,59.88023952,641386b1cb9a9c1e3569d4ee,67fe6e666cecbc9329ddf6d6,67fe81161a5fc274b5e8920f,,,,,,,,,,,,,,,,,,,,,,No Brainslug No Barriers With Money,0,images/assets/snowy_money.jpg,learning,10,images/assets/success_money.jpg,images/assets/gameover.jpg,,,,,,,,,,,,,0,9,9,9,1,,,,,,,,,,,,,,,,,,,,,,,,,,,,,,,,
,,,,,,,,,,,,641386b1cb9a9c1e3569d4ee,001,3,2025-04-15_11h56.20.410,avatar_quest_3AFC_legacy,2022.1.3,Win32,59.88023952,641386b1cb9a9c1e3569d4ee,67fe6e666cecbc9329ddf6d6,67fe81161a5fc274b5e8920f,,,,,,,,,,,,,,,,,,,,,,With Brainslug Difficult 2 No Money,12,images/assets/snowy_original.jpg,learning,20,images/assets/success.jpg,images/assets/gameover.jpg,,,,,,,,,,,,,0,10,10,3,1,,,,,,,,,,,,,,,,,,,,,,,,,,,,,,,,
,,,,,,,,,,,,641386b1cb9a9c1e3569d4ee,001,3,2025-04-15_11h56.20.410,avatar_quest_3AFC_legacy,2022.1.3,Win32,59.88023952,641386b1cb9a9c1e3569d4ee,67fe6e666cecbc9329ddf6d6,67fe81161a5fc274b5e8920f,,,,,,,,,,,,,,,,,,,,,,,,,,,,,,,,,,,,,,,,,,,,,,,,,,,,,,,8,0,8,0,1,,,,,,,,,,,,,,,,,,
,,,,,,,,,,,,641386b1cb9a9c1e3569d4ee,001,3,2025-04-15_11h56.20.410,avatar_quest_3AFC_legacy,2022.1.3,Win32,59.88023952,641386b1cb9a9c1e3569d4ee,67fe6e666cecbc9329ddf6d6,67fe81161a5fc274b5e8920f,,,,,,,,,,,,,,,,,,,,,,No Brainslug Difficult 2 No Money,12,images/assets/snowy_original.jpg,learning,20,images/assets/success.jpg,images/assets/gameover.jpg,,,,,,,,With Brainslug Difficult 2 With Money,With Brainslug Difficult 1 No Money,right,0.0103,"[""With Brainslug Difficult 1 No Money"",""With Brainslug Difficult 2 No Money""]",0,0,0,8,1,,,,,,,,,,,,,,,,,,,,,,,,,,,,,,,,
,,,,,,,,,,,,641386b1cb9a9c1e3569d4ee,001,3,2025-04-15_11h56.20.410,avatar_quest_3AFC_legacy,2022.1.3,Win32,59.88023952,641386b1cb9a9c1e3569d4ee,67fe6e666cecbc9329ddf6d6,67fe81161a5fc274b5e8920f,,,,,,,,,,,,,,,,,,,,,,With Brainslug No Barriers With Money,0,images/assets/snowy_money.jpg,learning,10,images/assets/success_money.jpg,images/assets/gameover.jpg,,,,,,,,,,,,,0,1,1,4,1,,,,,,,,,,,,,,,,,,,,,,,,,,,,,,,,
,,,,,,,,,,,,641386b1cb9a9c1e3569d4ee,001,3,2025-04-15_11h56.20.410,avatar_quest_3AFC_legacy,2022.1.3,Win32,59.88023952,641386b1cb9a9c1e3569d4ee,67fe6e666cecbc9329ddf6d6,67fe81161a5fc274b5e8920f,,,,,,,,,,,,,,,,,,,,,,With Brainslug Difficult 1 No Money,6,images/assets/snowy_original.jpg,learning,20,images/assets/success.jpg,images/assets/gameover.jpg,,,,,,,,,,,,,0,2,2,1,1,,,,,,,,,,,,,,,,,,,,,,,,,,,,,,,,
,,,,,,,,,,,,641386b1cb9a9c1e3569d4ee,001,3,2025-04-15_11h56.20.410,avatar_quest_3AFC_legacy,2022.1.3,Win32,59.88023952,641386b1cb9a9c1e3569d4ee,67fe6e666cecbc9329ddf6d6,67fe81161a5fc274b5e8920f,"[""left"",""right"",""right"",""right"",""left"",""left"",""right"",""right"",""right"",""right"",""right"",""right"",""left"",""left"",""left"",""left"",""left"",""right"",""right"",""right"",""left"",""left"",""left"",""right"",""right"",""right"",""right"",""right"",""right"",""left"",""left"",""left"",""left"",""left"",""right"",""right"",""right"",""right"",""right"",""left"",""left"",""left"",""left"",""left"",""left"",""right"",""right"",""right"",""right"",""left"",""left"",""left"",""left"",""left"",""right"",""right"",""right"",""right""]","[0.345699999988085,0.7961999999880902,1.0627999999821327,1.297900000005967,1.5282999999821243,1.729900000005955,2.012500000000017,2.2286999999880948,2.4620000000000175,2.7119000000059543,2.9634000000059757,3.1956999999880793,3.378699999988072,3.545000000000016,3.728499999999997,3.8954000000059636,4.028500000000008,4.377900000005951,4.5955000000000155,4.795400000005969,4.995199999988074,5.195400000005975,5.361999999999995,5.577699999988084,5.811799999982128,6.045400000005969,6.261500000000012,6.495299999982137,6.712400000005971,6.962699999988075,7.145599999994033,7.378199999988084,7.578099999994038,7.795699999988074,8.012299999982133,8.19550000000001,8.42829999998213,8.628699999988072,8.828799999982124,9.044799999982132,9.245299999982137,9.428500000000014,9.629799999982112,9.862500000000011,10.079199999988077,10.231299999982127,10.427900000005963,10.630400000005977,10.845299999982132,11.061599999994058,11.228900000005979,11.378199999988084,11.561900000005977,11.761599999994047,11.978099999994043,12.19550000000001,12.394799999982126,12.579299999982112]",,calibration,With Brainslug Difficult 2 With Money,13,12.62805,12.6435,24,10,0,FALSE,na,na,na,na,,,,,,,,,,,,,,,,,,,,,,,,,,,,,,,,,,0,0,0,0,1,,,,,,,,,,,,,,,,,,,,,,,
,,,,,,,,,,,,641386b1cb9a9c1e3569d4ee,001,3,2025-04-15_11h56.20.410,avatar_quest_3AFC_legacy,2022.1.3,Win32,59.88023952,641386b1cb9a9c1e3569d4ee,67fe6e666cecbc9329ddf6d6,67fe81161a5fc274b5e8920f,,,,,,,,,,,,,,,,,,,,,,With Brainslug Difficult 2 With Money,12,images/assets/snowy_money.jpg,learning,20,images/assets/success_money.jpg,images/assets/gameover.jpg,,,,,,,,,,,,,0,3,3,2,1,,,,,,,,,,,,,,,,,,,,,,,,,,,,,,,,
,,,,,,,,,,,,641386b1cb9a9c1e3569d4ee,001,3,2025-04-15_11h56.20.410,avatar_quest_3AFC_legacy,2022.1.3,Win32,59.88023952,641386b1cb9a9c1e3569d4ee,67fe6e666cecbc9329ddf6d6,67fe81161a5fc274b5e8920f,,,,,,,,,,,,,,,,,,,,,,No Brainslug No Barriers With Money,0,images/assets/snowy_money.jpg,learning,10,images/assets/success_money.jpg,images/assets/gameover.jpg,,,,,,,,,,,,,0,4,4,9,1,,,,,,,,,,,,,,,,,,,,,,,,,,,,,,,,
,,,,,,,,,,,,641386b1cb9a9c1e3569d4ee,001,3,2025-04-15_11h56.20.410,avatar_quest_3AFC_legacy,2022.1.3,Win32,59.88023952,641386b1cb9a9c1e3569d4ee,67fe6e666cecbc9329ddf6d6,67fe81161a5fc274b5e8920f,,,,,,,,,,,,,,,,,,,,,,No Brainslug Difficult 1 No Money,6,images/assets/snowy_original.jpg,learning,20,images/assets/success.jpg,images/assets/gameover.jpg,,,,,,,,,,,,,0,5,5,6,1,,,,,,,,,,,,,,,,,,,,,,,,,,,,,,,,
,,,,,,,,,,,,641386b1cb9a9c1e3569d4ee,001,3,2025-04-15_11h56.20.410,avatar_quest_3AFC_legacy,2022.1.3,Win32,59.88023952,641386b1cb9a9c1e3569d4ee,67fe6e666cecbc9329ddf6d6,67fe81161a5fc274b5e8920f,,,,,,,,,,,,,,,,,,,,,,With Brainslug Difficult 2 No Money,12,images/assets/snowy_original.jpg,learning,20,images/assets/success.jpg,images/assets/gameover.jpg,,,,,,,,,,,,,0,6,6,3,1,,,,,,,,,,,,,,,,,,,,,,,,,,,,,,,,
,,,,,,,,,,,,641386b1cb9a9c1e3569d4ee,001,3,2025-04-15_11h56.20.410,avatar_quest_3AFC_legacy,2022.1.3,Win32,59.88023952,641386b1cb9a9c1e3569d4ee,67fe6e666cecbc9329ddf6d6,67fe81161a5fc274b5e8920f,,,,,,,,,,,,,,,,,,,,,,With Brainslug Difficult 1 With Money,6,images/assets/snowy_money.jpg,learning,20,images/assets/success_money.jpg,images/assets/gameover.jpg,,,,,,,,,,,,,0,7,7,0,1,,,,,,,,,,,,,,,,,,,,,,,,,,,,,,,,
,,,,,,,,,,,,641386b1cb9a9c1e3569d4ee,001,3,2025-04-15_11h56.20.410,avatar_quest_3AFC_legacy,2022.1.3,Win32,59.88023952,641386b1cb9a9c1e3569d4ee,67fe6e666cecbc9329ddf6d6,67fe81161a5fc274b5e8920f,,,,,,,,,,,,,,,,,,,,,,No Brainslug Difficult 2 With Money,12,images/assets/snowy_money.jpg,learning,20,images/assets/success_money.jpg,images/assets/gameover.jpg,,,,,,,,,,,,,0,8,8,7,1,,,,,,,,,,,,,,,,,,,,,,,,,,,,,,,,
,,,,,,,,,,,,641386b1cb9a9c1e3569d4ee,001,3,2025-04-15_11h56.20.410,avatar_quest_3AFC_legacy,2022.1.3,Win32,59.88023952,641386b1cb9a9c1e3569d4ee,67fe6e666cecbc9329ddf6d6,67fe81161a5fc274b5e8920f,,,,,,,,,,,,,,,,,,,,,,With Brainslug No Barriers No Money,0,images/assets/snowy_original.jpg,learning,10,images/assets/success.jpg,images/assets/gameover.jpg,,,,,,,,,,,,,0,9,9,5,1,,,,,,,,,,,,,,,,,,,,,,,,,,,,,,,,
,,,,,,,,,,,,641386b1cb9a9c1e3569d4ee,001,3,2025-04-15_11h56.20.410,avatar_quest_3AFC_legacy,2022.1.3,Win32,59.88023952,641386b1cb9a9c1e3569d4ee,67fe6e666cecbc9329ddf6d6,67fe81161a5fc274b5e8920f,,,,,,,,,,,,,,,,,,,,,,No Brainslug No Barriers No Money,0,images/assets/snowy_original.jpg,learning,10,images/assets/success.jpg,images/assets/gameover.jpg,,,,,,,,,,,,,0,10,10,10,1,,,,,,,,,,,,,,,,,,,,,,,,,,,,,,,,
,,,,,,,,,,,,641386b1cb9a9c1e3569d4ee,001,3,2025-04-15_11h56.20.410,avatar_quest_3AFC_legacy,2022.1.3,Win32,59.88023952,641386b1cb9a9c1e3569d4ee,67fe6e666cecbc9329ddf6d6,67fe81161a5fc274b5e8920f,,,,,,,,,,,,,,,,,,,,,,,,,,,,,,,,,,,,,,,,,,,,,,,,,,,,,,,9,0,9,0,1,,,,,,,,,,,,,,,,,,
,,,,,,,,,,,,641386b1cb9a9c1e3569d4ee,001,3,2025-04-15_11h56.20.410,avatar_quest_3AFC_legacy,2022.1.3,Win32,59.88023952,641386b1cb9a9c1e3569d4ee,67fe6e666cecbc9329ddf6d6,67fe81161a5fc274b5e8920f,,,,,,,,,,,,,,,,,,,,,,No Brainslug No Barriers No Money,0,images/assets/snowy_original.jpg,learning,10,images/assets/success.jpg,images/assets/gameover.jpg,,,,,,,,With Brainslug Difficult 1 No Money,With Brainslug Difficult 1 No Money,left,0.5006,"[""With Brainslug Difficult 2 No Money"",""With Brainslug Difficult 2 With Money""]",0,0,0,10,1,,,,,,,,,,,,,,,,,,,,,,,,,,,,,,,,
,,,,,,,,,,,,641386b1cb9a9c1e3569d4ee,001,3,2025-04-15_11h56.20.410,avatar_quest_3AFC_legacy,2022.1.3,Win32,59.88023952,641386b1cb9a9c1e3569d4ee,67fe6e666cecbc9329ddf6d6,67fe81161a5fc274b5e8920f,,,,,,,,,,,,,,,,,,,,,,With Brainslug Difficult 2 No Money,12,images/assets/snowy_original.jpg,learning,20,images/assets/success.jpg,images/assets/gameover.jpg,,,,,,,,,,,,,0,1,1,3,1,,,,,,,,,,,,,,,,,,,,,,,,,,,,,,,,
,,,,,,,,,,,,641386b1cb9a9c1e3569d4ee,001,3,2025-04-15_11h56.20.410,avatar_quest_3AFC_legacy,2022.1.3,Win32,59.88023952,641386b1cb9a9c1e3569d4ee,67fe6e666cecbc9329ddf6d6,67fe81161a5fc274b5e8920f,"[""right"",""right"",""right"",""right"",""left"",""left"",""right"",""right"",""left"",""left"",""left"",""left"",""right"",""right"",""right"",""right"",""right"",""left"",""left"",""left"",""right"",""right"",""left"",""left"",""right"",""left"",""right"",""left"",""right"",""left"",""right"",""left"",""right"",""left"",""right"",""left"",""right"",""left"",""right"",""left"",""right"",""left"",""right"",""left"",""right"",""left"",""right"",""left"",""right"",""left"",""right"",""left""]","[0.38750000000001705,1.0195999999940568,1.293299999982139,1.5344000000059737,1.7166999999880659,1.9336999999881073,2.281499999999994,2.5155999999940377,2.7317999999821154,2.915599999994072,3.1137999999821204,3.3000000000000114,3.579099999994071,3.7956999999880736,4.0120000000000005,4.229099999994048,4.362400000005948,4.562599999994063,4.778799999982141,4.996299999982114,5.211799999982134,5.411900000005971,5.6461999999880845,5.828799999982152,6.0625,6.245299999982137,6.412000000000035,6.545299999982149,6.644799999982126,6.779400000005978,6.895400000005964,6.96169999998807,7.129199999988089,7.212500000000034,7.395599999994033,7.445500000000038,7.628799999982107,7.695400000005975,7.879099999994025,7.962099999994052,8.128900000005956,8.245599999994056,8.428400000005979,8.495199999988046,9.012099999994035,9.145799999982131,9.79509999999405,9.92859999999402,10.162000000000006,10.262599999994023,10.47819999998805,10.67949999999999]",,calibration,With Brainslug Difficult 1 No Money,14,12.62805,10.9335,16,3,0,TRUE,na,na,na,na,,,,,,,,,,,,,,,,,,,,,,,,,,,,,,,,,,0,0,0,0,1,,,,,,,,,,,,,,,,,,,,,,,
,,,,,,,,,,,,641386b1cb9a9c1e3569d4ee,001,3,2025-04-15_11h56.20.410,avatar_quest_3AFC_legacy,2022.1.3,Win32,59.88023952,641386b1cb9a9c1e3569d4ee,67fe6e666cecbc9329ddf6d6,67fe81161a5fc274b5e8920f,,,,,,,,,,,,,,,,,,,,,,With Brainslug Difficult 1 No Money,6,images/assets/snowy_original.jpg,learning,20,images/assets/success.jpg,images/assets/gameover.jpg,,,,,,,,,,,,,0,2,2,1,1,,,,,,,,,,,,,,,,,,,,,,,,,,,,,,,,
,,,,,,,,,,,,641386b1cb9a9c1e3569d4ee,001,3,2025-04-15_11h56.20.410,avatar_quest_3AFC_legacy,2022.1.3,Win32,59.88023952,641386b1cb9a9c1e3569d4ee,67fe6e666cecbc9329ddf6d6,67fe81161a5fc274b5e8920f,,,,,,,,,,,,,,,,,,,,,,No Brainslug Difficult 2 With Money,12,images/assets/snowy_money.jpg,learning,20,images/assets/success_money.jpg,images/assets/gameover.jpg,,,,,,,,,,,,,0,3,3,7,1,,,,,,,,,,,,,,,,,,,,,,,,,,,,,,,,
,,,,,,,,,,,,641386b1cb9a9c1e3569d4ee,001,3,2025-04-15_11h56.20.410,avatar_quest_3AFC_legacy,2022.1.3,Win32,59.88023952,641386b1cb9a9c1e3569d4ee,67fe6e666cecbc9329ddf6d6,67fe81161a5fc274b5e8920f,,,,,,,,,,,,,,,,,,,,,,With Brainslug No Barriers With Money,0,images/assets/snowy_money.jpg,learning,10,images/assets/success_money.jpg,images/assets/gameover.jpg,,,,,,,,,,,,,0,4,4,4,1,,,,,,,,,,,,,,,,,,,,,,,,,,,,,,,,
,,,,,,,,,,,,641386b1cb9a9c1e3569d4ee,001,3,2025-04-15_11h56.20.410,avatar_quest_3AFC_legacy,2022.1.3,Win32,59.88023952,641386b1cb9a9c1e3569d4ee,67fe6e666cecbc9329ddf6d6,67fe81161a5fc274b5e8920f,,,,,,,,,,,,,,,,,,,,,,With Brainslug Difficult 2 With Money,12,images/assets/snowy_money.jpg,learning,20,images/assets/success_money.jpg,images/assets/gameover.jpg,,,,,,,,,,,,,0,5,5,2,1,,,,,,,,,,,,,,,,,,,,,,,,,,,,,,,,
,,,,,,,,,,,,641386b1cb9a9c1e3569d4ee,001,3,2025-04-15_11h56.20.410,avatar_quest_3AFC_legacy,2022.1.3,Win32,59.88023952,641386b1cb9a9c1e3569d4ee,67fe6e666cecbc9329ddf6d6,67fe81161a5fc274b5e8920f,,,,,,,,,,,,,,,,,,,,,,No Brainslug Difficult 1 No Money,6,images/assets/snowy_original.jpg,learning,20,images/assets/success.jpg,images/assets/gameover.jpg,,,,,,,,,,,,,0,6,6,6,1,,,,,,,,,,,,,,,,,,,,,,,,,,,,,,,,
,,,,,,,,,,,,641386b1cb9a9c1e3569d4ee,001,3,2025-04-15_11h56.20.410,avatar_quest_3AFC_legacy,2022.1.3,Win32,59.88023952,641386b1cb9a9c1e3569d4ee,67fe6e666cecbc9329ddf6d6,67fe81161a5fc274b5e8920f,,,,,,,,,,,,,,,,,,,,,,With Brainslug No Barriers No Money,0,images/assets/snowy_original.jpg,learning,10,images/assets/success.jpg,images/assets/gameover.jpg,,,,,,,,,,,,,0,7,7,5,1,,,,,,,,,,,,,,,,,,,,,,,,,,,,,,,,
,,,,,,,,,,,,641386b1cb9a9c1e3569d4ee,001,3,2025-04-15_11h56.20.410,avatar_quest_3AFC_legacy,2022.1.3,Win32,59.88023952,641386b1cb9a9c1e3569d4ee,67fe6e666cecbc9329ddf6d6,67fe81161a5fc274b5e8920f,,,,,,,,,,,,,,,,,,,,,,No Brainslug Difficult 2 No Money,12,images/assets/snowy_original.jpg,learning,20,images/assets/success.jpg,images/assets/gameover.jpg,,,,,,,,,,,,,0,8,8,8,1,,,,,,,,,,,,,,,,,,,,,,,,,,,,,,,,
,,,,,,,,,,,,641386b1cb9a9c1e3569d4ee,001,3,2025-04-15_11h56.20.410,avatar_quest_3AFC_legacy,2022.1.3,Win32,59.88023952,641386b1cb9a9c1e3569d4ee,67fe6e666cecbc9329ddf6d6,67fe81161a5fc274b5e8920f,,,,,,,,,,,,,,,,,,,,,,With Brainslug Difficult 1 With Money,6,images/assets/snowy_money.jpg,learning,20,images/assets/success_money.jpg,images/assets/gameover.jpg,,,,,,,,,,,,,0,9,9,0,1,,,,,,,,,,,,,,,,,,,,,,,,,,,,,,,,
,,,,,,,,,,,,641386b1cb9a9c1e3569d4ee,001,3,2025-04-15_11h56.20.410,avatar_quest_3AFC_legacy,2022.1.3,Win32,59.88023952,641386b1cb9a9c1e3569d4ee,67fe6e666cecbc9329ddf6d6,67fe81161a5fc274b5e8920f,,,,,,,,,,,,,,,,,,,,,,No Brainslug No Barriers With Money,0,images/assets/snowy_money.jpg,learning,10,images/assets/success_money.jpg,images/assets/gameover.jpg,,,,,,,,,,,,,0,10,10,9,1,,,,,,,,,,,,,,,,,,,,,,,,,,,,,,,,
,,,,,,,,,,,,641386b1cb9a9c1e3569d4ee,001,3,2025-04-15_11h56.20.410,avatar_quest_3AFC_legacy,2022.1.3,Win32,59.88023952,641386b1cb9a9c1e3569d4ee,67fe6e666cecbc9329ddf6d6,67fe81161a5fc274b5e8920f,,,,,,,,,,,,,,,,,,,,,,,,,,,,,,,,,,,,,,,,,,,,,,,,,,,,,,,10,0,10,0,1,,,,,,,,,,,,,,,,,,
,,,,,,,,,,,,641386b1cb9a9c1e3569d4ee,001,3,2025-04-15_11h56.20.410,avatar_quest_3AFC_legacy,2022.1.3,Win32,59.88023952,641386b1cb9a9c1e3569d4ee,67fe6e666cecbc9329ddf6d6,67fe81161a5fc274b5e8920f,,,,,,,,,,,,,,,,,,,,,,With Brainslug Difficult 2 With Money,12,images/assets/snowy_money.jpg,learning,20,images/assets/success_money.jpg,images/assets/gameover.jpg,,,,,,,,With Brainslug Difficult 1 No Money,With Brainslug Difficult 1 No Money,left,0.5341,"[""With Brainslug Difficult 2 No Money"",""With Brainslug Difficult 2 With Money""]",0,0,0,2,1,,,,,,,,,,,,,,,,,,,,,,,,,,,,,,,,
,,,,,,,,,,,,641386b1cb9a9c1e3569d4ee,001,3,2025-04-15_11h56.20.410,avatar_quest_3AFC_legacy,2022.1.3,Win32,59.88023952,641386b1cb9a9c1e3569d4ee,67fe6e666cecbc9329ddf6d6,67fe81161a5fc274b5e8920f,,,,,,,,,,,,,,,,,,,,,,No Brainslug Difficult 1 No Money,6,images/assets/snowy_original.jpg,learning,20,images/assets/success.jpg,images/assets/gameover.jpg,,,,,,,,,,,,,0,1,1,6,1,,,,,,,,,,,,,,,,,,,,,,,,,,,,,,,,
,,,,,,,,,,,,641386b1cb9a9c1e3569d4ee,001,3,2025-04-15_11h56.20.410,avatar_quest_3AFC_legacy,2022.1.3,Win32,59.88023952,641386b1cb9a9c1e3569d4ee,67fe6e666cecbc9329ddf6d6,67fe81161a5fc274b5e8920f,"[""right"",""right"",""right"",""right"",""left"",""left"",""left"",""right"",""right"",""left"",""left"",""left"",""left"",""left"",""right"",""right"",""right"",""right"",""right"",""right"",""right"",""right"",""right"",""right"",""right"",""right"",""left"",""left"",""left"",""left"",""left"",""left"",""left"",""left""]","[0.39940000000598275,0.6166000000238796,0.832200000017906,1.032400000005964,1.2163000000119268,1.3643000000119514,1.5628000000119755,1.8128000000119755,2.0449000000060096,2.2292000000178973,2.4285000000000423,2.662700000017935,2.8618000000119537,3.061700000017936,3.2620000000000005,3.4456000000238873,3.628200000017898,3.8293000000119264,4.0296000000238905,4.245900000005975,4.428300000011973,4.629000000000019,4.811700000017936,5.012400000005982,5.195600000023887,5.395900000006009,5.579100000023857,5.794600000023877,5.962500000000034,6.195100000023842,6.629200000017931,6.8119000000060055,7.011700000017925,7.229000000000042]",,calibration,With Brainslug Difficult 1 No Money,15,12.62805,7.3564,11,2,0,TRUE,na,na,na,na,,,,,,,,,,,,,,,,,,,,,,,,,,,,,,,,,,0,0,0,0,1,,,,,,,,,,,,,,,,,,,,,,,
,,,,,,,,,,,,641386b1cb9a9c1e3569d4ee,001,3,2025-04-15_11h56.20.410,avatar_quest_3AFC_legacy,2022.1.3,Win32,59.88023952,641386b1cb9a9c1e3569d4ee,67fe6e666cecbc9329ddf6d6,67fe81161a5fc274b5e8920f,,,,,,,,,,,,,,,,,,,,,,With Brainslug Difficult 1 No Money,6,images/assets/snowy_original.jpg,learning,20,images/assets/success.jpg,images/assets/gameover.jpg,,,,,,,,,,,,,0,2,2,1,1,,,,,,,,,,,,,,,,,,,,,,,,,,,,,,,,
,,,,,,,,,,,,641386b1cb9a9c1e3569d4ee,001,3,2025-04-15_11h56.20.410,avatar_quest_3AFC_legacy,2022.1.3,Win32,59.88023952,641386b1cb9a9c1e3569d4ee,67fe6e666cecbc9329ddf6d6,67fe81161a5fc274b5e8920f,,,,,,,,,,,,,,,,,,,,,,With Brainslug No Barriers With Money,0,images/assets/snowy_money.jpg,learning,10,images/assets/success_money.jpg,images/assets/gameover.jpg,,,,,,,,,,,,,0,3,3,4,1,,,,,,,,,,,,,,,,,,,,,,,,,,,,,,,,
,,,,,,,,,,,,641386b1cb9a9c1e3569d4ee,001,3,2025-04-15_11h56.20.410,avatar_quest_3AFC_legacy,2022.1.3,Win32,59.88023952,641386b1cb9a9c1e3569d4ee,67fe6e666cecbc9329ddf6d6,67fe81161a5fc274b5e8920f,,,,,,,,,,,,,,,,,,,,,,No Brainslug Difficult 2 With Money,12,images/assets/snowy_money.jpg,learning,20,images/assets/success_money.jpg,images/assets/gameover.jpg,,,,,,,,,,,,,0,4,4,7,1,,,,,,,,,,,,,,,,,,,,,,,,,,,,,,,,
,,,,,,,,,,,,641386b1cb9a9c1e3569d4ee,001,3,2025-04-15_11h56.20.410,avatar_quest_3AFC_legacy,2022.1.3,Win32,59.88023952,641386b1cb9a9c1e3569d4ee,67fe6e666cecbc9329ddf6d6,67fe81161a5fc274b5e8920f,,,,,,,,,,,,,,,,,,,,,,With Brainslug Difficult 1 With Money,6,images/assets/snowy_money.jpg,learning,20,images/assets/success_money.jpg,images/assets/gameover.jpg,,,,,,,,,,,,,0,5,5,0,1,,,,,,,,,,,,,,,,,,,,,,,,,,,,,,,,
,,,,,,,,,,,,641386b1cb9a9c1e3569d4ee,001,3,2025-04-15_11h56.20.410,avatar_quest_3AFC_legacy,2022.1.3,Win32,59.88023952,641386b1cb9a9c1e3569d4ee,67fe6e666cecbc9329ddf6d6,67fe81161a5fc274b5e8920f,,,,,,,,,,,,,,,,,,,,,,With Brainslug Difficult 2 No Money,12,images/assets/snowy_original.jpg,learning,20,images/assets/success.jpg,images/assets/gameover.jpg,,,,,,,,,,,,,0,6,6,3,1,,,,,,,,,,,,,,,,,,,,,,,,,,,,,,,,
,,,,,,,,,,,,641386b1cb9a9c1e3569d4ee,001,3,2025-04-15_11h56.20.410,avatar_quest_3AFC_legacy,2022.1.3,Win32,59.88023952,641386b1cb9a9c1e3569d4ee,67fe6e666cecbc9329ddf6d6,67fe81161a5fc274b5e8920f,,,,,,,,,,,,,,,,,,,,,,No Brainslug No Barriers With Money,0,images/assets/snowy_money.jpg,learning,10,images/assets/success_money.jpg,images/assets/gameover.jpg,,,,,,,,,,,,,0,7,7,9,1,,,,,,,,,,,,,,,,,,,,,,,,,,,,,,,,
,,,,,,,,,,,,641386b1cb9a9c1e3569d4ee,001,3,2025-04-15_11h56.20.410,avatar_quest_3AFC_legacy,2022.1.3,Win32,59.88023952,641386b1cb9a9c1e3569d4ee,67fe6e666cecbc9329ddf6d6,67fe81161a5fc274b5e8920f,,,,,,,,,,,,,,,,,,,,,,No Brainslug No Barriers No Money,0,images/assets/snowy_original.jpg,learning,10,images/assets/success.jpg,images/assets/gameover.jpg,,,,,,,,,,,,,0,8,8,10,1,,,,,,,,,,,,,,,,,,,,,,,,,,,,,,,,
,,,,,,,,,,,,641386b1cb9a9c1e3569d4ee,001,3,2025-04-15_11h56.20.410,avatar_quest_3AFC_legacy,2022.1.3,Win32,59.88023952,641386b1cb9a9c1e3569d4ee,67fe6e666cecbc9329ddf6d6,67fe81161a5fc274b5e8920f,,,,,,,,,,,,,,,,,,,,,,No Brainslug Difficult 2 No Money,12,images/assets/snowy_original.jpg,learning,20,images/assets/success.jpg,images/assets/gameover.jpg,,,,,,,,,,,,,0,9,9,8,1,,,,,,,,,,,,,,,,,,,,,,,,,,,,,,,,
,,,,,,,,,,,,641386b1cb9a9c1e3569d4ee,001,3,2025-04-15_11h56.20.410,avatar_quest_3AFC_legacy,2022.1.3,Win32,59.88023952,641386b1cb9a9c1e3569d4ee,67fe6e666cecbc9329ddf6d6,67fe81161a5fc274b5e8920f,,,,,,,,,,,,,,,,,,,,,,With Brainslug No Barriers No Money,0,images/assets/snowy_original.jpg,learning,10,images/assets/success.jpg,images/assets/gameover.jpg,,,,,,,,,,,,,0,10,10,5,1,,,,,,,,,,,,,,,,,,,,,,,,,,,,,,,,
,,,,,,,,,,,,641386b1cb9a9c1e3569d4ee,001,3,2025-04-15_11h56.20.410,avatar_quest_3AFC_legacy,2022.1.3,Win32,59.88023952,641386b1cb9a9c1e3569d4ee,67fe6e666cecbc9329ddf6d6,67fe81161a5fc274b5e8920f,,,,,,,,,,,,,,,,,,,,,,,,,,,,,,,,,,,,,,,,,,,,,,,,,,,,,,,11,0,11,0,1,,,,,,,,,,,,,,,,,,
,,,,,,,,,,,,641386b1cb9a9c1e3569d4ee,001,3,2025-04-15_11h56.20.410,avatar_quest_3AFC_legacy,2022.1.3,Win32,59.88023952,641386b1cb9a9c1e3569d4ee,67fe6e666cecbc9329ddf6d6,67fe81161a5fc274b5e8920f,,,,,,,,,,,,,,,,,,,,,,,,,,,,,,,,,,,,,,,,,,,,,,,,,,,,,,,,,,,,0,0,0,0,1,1,With Brainslug Difficult 1 No Money,images/assets/With Brainslug Difficult 1 No Money.png,With Brainslug Difficult 2 No Money,images/assets/With Brainslug Difficult 2 No Money.png,With Brainslug Difficult 2 With Money,images/assets/With Brainslug Difficult 2 With Money.png,Achievement vs. money,,,,,
,,,,,,,,,,,,641386b1cb9a9c1e3569d4ee,001,3,2025-04-15_11h56.20.410,avatar_quest_3AFC_legacy,2022.1.3,Win32,59.88023952,641386b1cb9a9c1e3569d4ee,67fe6e666cecbc9329ddf6d6,67fe81161a5fc274b5e8920f,,,,,,,,,,,,,,,,,,,,,,No Brainslug No Barriers With Money,0,images/assets/snowy_money.jpg,learning,10,images/assets/success_money.jpg,images/assets/gameover.jpg,,,,,,,,No Brainslug No Barriers No Money,No Brainslug No Barriers No Money,left,1.3042,"[""No Brainslug Difficult 1 No Money"",""No Brainslug No Barriers With Money""]",0,0,0,9,1,,,,,,,,,,,,,,,,,,,,,,,,,,,,,,,,
,,,,,,,,,,,,641386b1cb9a9c1e3569d4ee,001,3,2025-04-15_11h56.20.410,avatar_quest_3AFC_legacy,2022.1.3,Win32,59.88023952,641386b1cb9a9c1e3569d4ee,67fe6e666cecbc9329ddf6d6,67fe81161a5fc274b5e8920f,,,,,,,,,,,,,,,,,,,,,,With Brainslug No Barriers No Money,0,images/assets/snowy_original.jpg,learning,10,images/assets/success.jpg,images/assets/gameover.jpg,,,,,,,,,,,,,0,1,1,5,1,,,,,,,,,,,,,,,,,,,,,,,,,,,,,,,,
,,,,,,,,,,,,641386b1cb9a9c1e3569d4ee,001,3,2025-04-15_11h56.20.410,avatar_quest_3AFC_legacy,2022.1.3,Win32,59.88023952,641386b1cb9a9c1e3569d4ee,67fe6e666cecbc9329ddf6d6,67fe81161a5fc274b5e8920f,,,,,,,,,,,,,,,,,,,,,,No Brainslug Difficult 1 No Money,6,images/assets/snowy_original.jpg,learning,20,images/assets/success.jpg,images/assets/gameover.jpg,,,,,,,,,,,,,0,2,2,6,1,,,,,,,,,,,,,,,,,,,,,,,,,,,,,,,,
,,,,,,,,,,,,641386b1cb9a9c1e3569d4ee,001,3,2025-04-15_11h56.20.410,avatar_quest_3AFC_legacy,2022.1.3,Win32,59.88023952,641386b1cb9a9c1e3569d4ee,67fe6e666cecbc9329ddf6d6,67fe81161a5fc274b5e8920f,"[""left"",""left"",""left"",""left"",""left"",""left"",""left"",""left"",""left"",""left"",""left"",""left"",""left"",""left"",""left"",""left"",""left"",""left"",""left"",""left"",""left"",""left"",""left"",""left"",""left"",""left"",""left""]","[0.3147999999820854,0.5002999999821327,0.6968999999761536,0.8686999999880527,1.0791999999880773,1.2680999999940354,1.4790999999940482,1.6840999999940323,1.895099999994045,2.1002999999820986,2.2786999999880777,2.462399999976128,2.6453999999761777,2.845599999994022,3.028799999982084,3.2454999999999927,3.4284999999999854,3.6123999999761622,3.7960999999940555,3.9954999999999927,4.1797999999820945,4.378699999988044,4.596899999976131,4.795799999982137,4.995199999988074,5.195199999988063,5.412899999976162]",,calibration,No Brainslug No Barriers No Money,16,10.10244,5.5375,3,0,0,TRUE,na,na,na,na,,,,,,,,,,,,,,,,,,,,,,,,,,,,,,,,,,0,0,0,0,1,,,,,,,,,,,,,,,,,,,,,,,
,,,,,,,,,,,,641386b1cb9a9c1e3569d4ee,001,3,2025-04-15_11h56.20.410,avatar_quest_3AFC_legacy,2022.1.3,Win32,59.88023952,641386b1cb9a9c1e3569d4ee,67fe6e666cecbc9329ddf6d6,67fe81161a5fc274b5e8920f,,,,,,,,,,,,,,,,,,,,,,No Brainslug No Barriers No Money,0,images/assets/snowy_original.jpg,learning,10,images/assets/success.jpg,images/assets/gameover.jpg,,,,,,,,,,,,,0,3,3,10,1,,,,,,,,,,,,,,,,,,,,,,,,,,,,,,,,
,,,,,,,,,,,,641386b1cb9a9c1e3569d4ee,001,3,2025-04-15_11h56.20.410,avatar_quest_3AFC_legacy,2022.1.3,Win32,59.88023952,641386b1cb9a9c1e3569d4ee,67fe6e666cecbc9329ddf6d6,67fe81161a5fc274b5e8920f,,,,,,,,,,,,,,,,,,,,,,No Brainslug Difficult 2 No Money,12,images/assets/snowy_original.jpg,learning,20,images/assets/success.jpg,images/assets/gameover.jpg,,,,,,,,,,,,,0,4,4,8,1,,,,,,,,,,,,,,,,,,,,,,,,,,,,,,,,
,,,,,,,,,,,,641386b1cb9a9c1e3569d4ee,001,3,2025-04-15_11h56.20.410,avatar_quest_3AFC_legacy,2022.1.3,Win32,59.88023952,641386b1cb9a9c1e3569d4ee,67fe6e666cecbc9329ddf6d6,67fe81161a5fc274b5e8920f,,,,,,,,,,,,,,,,,,,,,,With Brainslug Difficult 2 No Money,12,images/assets/snowy_original.jpg,learning,20,images/assets/success.jpg,images/assets/gameover.jpg,,,,,,,,,,,,,0,5,5,3,1,,,,,,,,,,,,,,,,,,,,,,,,,,,,,,,,
,,,,,,,,,,,,641386b1cb9a9c1e3569d4ee,001,3,2025-04-15_11h56.20.410,avatar_quest_3AFC_legacy,2022.1.3,Win32,59.88023952,641386b1cb9a9c1e3569d4ee,67fe6e666cecbc9329ddf6d6,67fe81161a5fc274b5e8920f,,,,,,,,,,,,,,,,,,,,,,No Brainslug Difficult 2 With Money,12,images/assets/snowy_money.jpg,learning,20,images/assets/success_money.jpg,images/assets/gameover.jpg,,,,,,,,,,,,,0,6,6,7,1,,,,,,,,,,,,,,,,,,,,,,,,,,,,,,,,
,,,,,,,,,,,,641386b1cb9a9c1e3569d4ee,001,3,2025-04-15_11h56.20.410,avatar_quest_3AFC_legacy,2022.1.3,Win32,59.88023952,641386b1cb9a9c1e3569d4ee,67fe6e666cecbc9329ddf6d6,67fe81161a5fc274b5e8920f,,,,,,,,,,,,,,,,,,,,,,With Brainslug Difficult 2 With Money,12,images/assets/snowy_money.jpg,learning,20,images/assets/success_money.jpg,images/assets/gameover.jpg,,,,,,,,,,,,,0,7,7,2,1,,,,,,,,,,,,,,,,,,,,,,,,,,,,,,,,
,,,,,,,,,,,,641386b1cb9a9c1e3569d4ee,001,3,2025-04-15_11h56.20.410,avatar_quest_3AFC_legacy,2022.1.3,Win32,59.88023952,641386b1cb9a9c1e3569d4ee,67fe6e666cecbc9329ddf6d6,67fe81161a5fc274b5e8920f,,,,,,,,,,,,,,,,,,,,,,With Brainslug No Barriers With Money,0,images/assets/snowy_money.jpg,learning,10,images/assets/success_money.jpg,images/assets/gameover.jpg,,,,,,,,,,,,,0,8,8,4,1,,,,,,,,,,,,,,,,,,,,,,,,,,,,,,,,
,,,,,,,,,,,,641386b1cb9a9c1e3569d4ee,001,3,2025-04-15_11h56.20.410,avatar_quest_3AFC_legacy,2022.1.3,Win32,59.88023952,641386b1cb9a9c1e3569d4ee,67fe6e666cecbc9329ddf6d6,67fe81161a5fc274b5e8920f,,,,,,,,,,,,,,,,,,,,,,With Brainslug Difficult 1 No Money,6,images/assets/snowy_original.jpg,learning,20,images/assets/success.jpg,images/assets/gameover.jpg,,,,,,,,,,,,,0,9,9,1,1,,,,,,,,,,,,,,,,,,,,,,,,,,,,,,,,
,,,,,,,,,,,,641386b1cb9a9c1e3569d4ee,001,3,2025-04-15_11h56.20.410,avatar_quest_3AFC_legacy,2022.1.3,Win32,59.88023952,641386b1cb9a9c1e3569d4ee,67fe6e666cecbc9329ddf6d6,67fe81161a5fc274b5e8920f,,,,,,,,,,,,,,,,,,,,,,With Brainslug Difficult 1 With Money,6,images/assets/snowy_money.jpg,learning,20,images/assets/success_money.jpg,images/assets/gameover.jpg,,,,,,,,,,,,,0,10,10,0,1,,,,,,,,,,,,,,,,,,,,,,,,,,,,,,,,
,,,,,,,,,,,,641386b1cb9a9c1e3569d4ee,001,3,2025-04-15_11h56.20.410,avatar_quest_3AFC_legacy,2022.1.3,Win32,59.88023952,641386b1cb9a9c1e3569d4ee,67fe6e666cecbc9329ddf6d6,67fe81161a5fc274b5e8920f,,,,,,,,,,,,,,,,,,,,,,,,,,,,,,,,,,,,,,,,,,,,,,,,,,,,,,,0,0,0,0,1,,,,,,,,,,,,,,,,,,
,,,,,,,,,,,,641386b1cb9a9c1e3569d4ee,001,3,2025-04-15_11h56.20.410,avatar_quest_3AFC_legacy,2022.1.3,Win32,59.88023952,641386b1cb9a9c1e3569d4ee,67fe6e666cecbc9329ddf6d6,67fe81161a5fc274b5e8920f,,,,,,,,,,,,,,,,,,,,,,No Brainslug Difficult 1 No Money,6,images/assets/snowy_original.jpg,learning,20,images/assets/success.jpg,images/assets/gameover.jpg,,,,,,,,No Brainslug No Barriers No Money,No Brainslug No Barriers No Money,left,0.0668,"[""No Brainslug Difficult 1 No Money"",""No Brainslug No Barriers With Money""]",0,0,0,6,1,,,,,,,,,,,,,,,,,,,,,,,,,,,,,,,,
,,,,,,,,,,,,641386b1cb9a9c1e3569d4ee,001,3,2025-04-15_11h56.20.410,avatar_quest_3AFC_legacy,2022.1.3,Win32,59.88023952,641386b1cb9a9c1e3569d4ee,67fe6e666cecbc9329ddf6d6,67fe81161a5fc274b5e8920f,,,,,,,,,,,,,,,,,,,,,,With Brainslug Difficult 1 With Money,6,images/assets/snowy_money.jpg,learning,20,images/assets/success_money.jpg,images/assets/gameover.jpg,,,,,,,,,,,,,0,1,1,0,1,,,,,,,,,,,,,,,,,,,,,,,,,,,,,,,,
,,,,,,,,,,,,641386b1cb9a9c1e3569d4ee,001,3,2025-04-15_11h56.20.410,avatar_quest_3AFC_legacy,2022.1.3,Win32,59.88023952,641386b1cb9a9c1e3569d4ee,67fe6e666cecbc9329ddf6d6,67fe81161a5fc274b5e8920f,,,,,,,,,,,,,,,,,,,,,,With Brainslug Difficult 2 With Money,12,images/assets/snowy_money.jpg,learning,20,images/assets/success_money.jpg,images/assets/gameover.jpg,,,,,,,,,,,,,0,2,2,2,1,,,,,,,,,,,,,,,,,,,,,,,,,,,,,,,,
,,,,,,,,,,,,641386b1cb9a9c1e3569d4ee,001,3,2025-04-15_11h56.20.410,avatar_quest_3AFC_legacy,2022.1.3,Win32,59.88023952,641386b1cb9a9c1e3569d4ee,67fe6e666cecbc9329ddf6d6,67fe81161a5fc274b5e8920f,,,,,,,,,,,,,,,,,,,,,,No Brainslug Difficult 2 With Money,12,images/assets/snowy_money.jpg,learning,20,images/assets/success_money.jpg,images/assets/gameover.jpg,,,,,,,,,,,,,0,3,3,7,1,,,,,,,,,,,,,,,,,,,,,,,,,,,,,,,,
,,,,,,,,,,,,641386b1cb9a9c1e3569d4ee,001,3,2025-04-15_11h56.20.410,avatar_quest_3AFC_legacy,2022.1.3,Win32,59.88023952,641386b1cb9a9c1e3569d4ee,67fe6e666cecbc9329ddf6d6,67fe81161a5fc274b5e8920f,"[""left"",""left"",""left"",""left"",""left"",""left"",""left"",""left"",""left"",""left"",""left"",""left"",""left"",""left"",""left"",""left"",""left"",""left"",""left"",""left"",""left"",""left"",""left"",""left"",""left"",""left""]","[0.3835999999940327,0.5840000000000032,0.7669000000059327,0.9674000000059664,1.150400000005959,1.333500000000015,1.5010999999940395,1.683499999999981,1.8674000000059436,2.066900000005944,2.233900000005974,2.4334000000059746,2.6340000000000146,2.83299999999997,3.0330000000000155,3.2505999999940514,3.466900000005978,3.7007999999821095,3.900400000005959,4.134099999994021,4.333099999994033,4.5334000000059405,4.733199999988074,4.967499999999973,5.15029999998211,5.383599999994033]",,calibration,No Brainslug No Barriers No Money,17,10.10244,5.4415,3,0,0,TRUE,na,na,na,na,,,,,,,,,,,,,,,,,,,,,,,,,,,,,,,,,,0,0,0,0,1,,,,,,,,,,,,,,,,,,,,,,,
,,,,,,,,,,,,641386b1cb9a9c1e3569d4ee,001,3,2025-04-15_11h56.20.410,avatar_quest_3AFC_legacy,2022.1.3,Win32,59.88023952,641386b1cb9a9c1e3569d4ee,67fe6e666cecbc9329ddf6d6,67fe81161a5fc274b5e8920f,,,,,,,,,,,,,,,,,,,,,,No Brainslug No Barriers No Money,0,images/assets/snowy_original.jpg,learning,10,images/assets/success.jpg,images/assets/gameover.jpg,,,,,,,,,,,,,0,4,4,10,1,,,,,,,,,,,,,,,,,,,,,,,,,,,,,,,,
,,,,,,,,,,,,641386b1cb9a9c1e3569d4ee,001,3,2025-04-15_11h56.20.410,avatar_quest_3AFC_legacy,2022.1.3,Win32,59.88023952,641386b1cb9a9c1e3569d4ee,67fe6e666cecbc9329ddf6d6,67fe81161a5fc274b5e8920f,,,,,,,,,,,,,,,,,,,,,,With Brainslug No Barriers No Money,0,images/assets/snowy_original.jpg,learning,10,images/assets/success.jpg,images/assets/gameover.jpg,,,,,,,,,,,,,0,5,5,5,1,,,,,,,,,,,,,,,,,,,,,,,,,,,,,,,,
,,,,,,,,,,,,641386b1cb9a9c1e3569d4ee,001,3,2025-04-15_11h56.20.410,avatar_quest_3AFC_legacy,2022.1.3,Win32,59.88023952,641386b1cb9a9c1e3569d4ee,67fe6e666cecbc9329ddf6d6,67fe81161a5fc274b5e8920f,,,,,,,,,,,,,,,,,,,,,,No Brainslug Difficult 2 No Money,12,images/assets/snowy_original.jpg,learning,20,images/assets/success.jpg,images/assets/gameover.jpg,,,,,,,,,,,,,0,6,6,8,1,,,,,,,,,,,,,,,,,,,,,,,,,,,,,,,,
,,,,,,,,,,,,641386b1cb9a9c1e3569d4ee,001,3,2025-04-15_11h56.20.410,avatar_quest_3AFC_legacy,2022.1.3,Win32,59.88023952,641386b1cb9a9c1e3569d4ee,67fe6e666cecbc9329ddf6d6,67fe81161a5fc274b5e8920f,,,,,,,,,,,,,,,,,,,,,,No Brainslug No Barriers With Money,0,images/assets/snowy_money.jpg,learning,10,images/assets/success_money.jpg,images/assets/gameover.jpg,,,,,,,,,,,,,0,7,7,9,1,,,,,,,,,,,,,,,,,,,,,,,,,,,,,,,,
,,,,,,,,,,,,641386b1cb9a9c1e3569d4ee,001,3,2025-04-15_11h56.20.410,avatar_quest_3AFC_legacy,2022.1.3,Win32,59.88023952,641386b1cb9a9c1e3569d4ee,67fe6e666cecbc9329ddf6d6,67fe81161a5fc274b5e8920f,,,,,,,,,,,,,,,,,,,,,,With Brainslug No Barriers With Money,0,images/assets/snowy_money.jpg,learning,10,images/assets/success_money.jpg,images/assets/gameover.jpg,,,,,,,,,,,,,0,8,8,4,1,,,,,,,,,,,,,,,,,,,,,,,,,,,,,,,,
,,,,,,,,,,,,641386b1cb9a9c1e3569d4ee,001,3,2025-04-15_11h56.20.410,avatar_quest_3AFC_legacy,2022.1.3,Win32,59.88023952,641386b1cb9a9c1e3569d4ee,67fe6e666cecbc9329ddf6d6,67fe81161a5fc274b5e8920f,,,,,,,,,,,,,,,,,,,,,,With Brainslug Difficult 1 No Money,6,images/assets/snowy_original.jpg,learning,20,images/assets/success.jpg,images/assets/gameover.jpg,,,,,,,,,,,,,0,9,9,1,1,,,,,,,,,,,,,,,,,,,,,,,,,,,,,,,,
,,,,,,,,,,,,641386b1cb9a9c1e3569d4ee,001,3,2025-04-15_11h56.20.410,avatar_quest_3AFC_legacy,2022.1.3,Win32,59.88023952,641386b1cb9a9c1e3569d4ee,67fe6e666cecbc9329ddf6d6,67fe81161a5fc274b5e8920f,,,,,,,,,,,,,,,,,,,,,,With Brainslug Difficult 2 No Money,12,images/assets/snowy_original.jpg,learning,20,images/assets/success.jpg,images/assets/gameover.jpg,,,,,,,,,,,,,0,10,10,3,1,,,,,,,,,,,,,,,,,,,,,,,,,,,,,,,,
,,,,,,,,,,,,641386b1cb9a9c1e3569d4ee,001,3,2025-04-15_11h56.20.410,avatar_quest_3AFC_legacy,2022.1.3,Win32,59.88023952,641386b1cb9a9c1e3569d4ee,67fe6e666cecbc9329ddf6d6,67fe81161a5fc274b5e8920f,,,,,,,,,,,,,,,,,,,,,,,,,,,,,,,,,,,,,,,,,,,,,,,,,,,,,,,1,0,1,0,1,,,,,,,,,,,,,,,,,,
,,,,,,,,,,,,641386b1cb9a9c1e3569d4ee,001,3,2025-04-15_11h56.20.410,avatar_quest_3AFC_legacy,2022.1.3,Win32,59.88023952,641386b1cb9a9c1e3569d4ee,67fe6e666cecbc9329ddf6d6,67fe81161a5fc274b5e8920f,,,,,,,,,,,,,,,,,,,,,,With Brainslug No Barriers With Money,0,images/assets/snowy_money.jpg,learning,10,images/assets/success_money.jpg,images/assets/gameover.jpg,,,,,,,,No Brainslug No Barriers No Money,No Brainslug No Barriers No Money,left,0.2012,"[""No Brainslug Difficult 1 No Money"",""No Brainslug No Barriers With Money""]",0,0,0,4,1,,,,,,,,,,,,,,,,,,,,,,,,,,,,,,,,
,,,,,,,,,,,,641386b1cb9a9c1e3569d4ee,001,3,2025-04-15_11h56.20.410,avatar_quest_3AFC_legacy,2022.1.3,Win32,59.88023952,641386b1cb9a9c1e3569d4ee,67fe6e666cecbc9329ddf6d6,67fe81161a5fc274b5e8920f,,,,,,,,,,,,,,,,,,,,,,With Brainslug Difficult 2 With Money,12,images/assets/snowy_money.jpg,learning,20,images/assets/success_money.jpg,images/assets/gameover.jpg,,,,,,,,,,,,,0,1,1,2,1,,,,,,,,,,,,,,,,,,,,,,,,,,,,,,,,
,,,,,,,,,,,,641386b1cb9a9c1e3569d4ee,001,3,2025-04-15_11h56.20.410,avatar_quest_3AFC_legacy,2022.1.3,Win32,59.88023952,641386b1cb9a9c1e3569d4ee,67fe6e666cecbc9329ddf6d6,67fe81161a5fc274b5e8920f,,,,,,,,,,,,,,,,,,,,,,With Brainslug Difficult 1 With Money,6,images/assets/snowy_money.jpg,learning,20,images/assets/success_money.jpg,images/assets/gameover.jpg,,,,,,,,,,,,,0,2,2,0,1,,,,,,,,,,,,,,,,,,,,,,,,,,,,,,,,
,,,,,,,,,,,,641386b1cb9a9c1e3569d4ee,001,3,2025-04-15_11h56.20.410,avatar_quest_3AFC_legacy,2022.1.3,Win32,59.88023952,641386b1cb9a9c1e3569d4ee,67fe6e666cecbc9329ddf6d6,67fe81161a5fc274b5e8920f,,,,,,,,,,,,,,,,,,,,,,With Brainslug Difficult 1 No Money,6,images/assets/snowy_original.jpg,learning,20,images/assets/success.jpg,images/assets/gameover.jpg,,,,,,,,,,,,,0,3,3,1,1,,,,,,,,,,,,,,,,,,,,,,,,,,,,,,,,
,,,,,,,,,,,,641386b1cb9a9c1e3569d4ee,001,3,2025-04-15_11h56.20.410,avatar_quest_3AFC_legacy,2022.1.3,Win32,59.88023952,641386b1cb9a9c1e3569d4ee,67fe6e666cecbc9329ddf6d6,67fe81161a5fc274b5e8920f,,,,,,,,,,,,,,,,,,,,,,No Brainslug No Barriers With Money,0,images/assets/snowy_money.jpg,learning,10,images/assets/success_money.jpg,images/assets/gameover.jpg,,,,,,,,,,,,,0,4,4,9,1,,,,,,,,,,,,,,,,,,,,,,,,,,,,,,,,
,,,,,,,,,,,,641386b1cb9a9c1e3569d4ee,001,3,2025-04-15_11h56.20.410,avatar_quest_3AFC_legacy,2022.1.3,Win32,59.88023952,641386b1cb9a9c1e3569d4ee,67fe6e666cecbc9329ddf6d6,67fe81161a5fc274b5e8920f,,,,,,,,,,,,,,,,,,,,,,No Brainslug Difficult 1 No Money,6,images/assets/snowy_original.jpg,learning,20,images/assets/success.jpg,images/assets/gameover.jpg,,,,,,,,,,,,,0,5,5,6,1,,,,,,,,,,,,,,,,,,,,,,,,,,,,,,,,
,,,,,,,,,,,,641386b1cb9a9c1e3569d4ee,001,3,2025-04-15_11h56.20.410,avatar_quest_3AFC_legacy,2022.1.3,Win32,59.88023952,641386b1cb9a9c1e3569d4ee,67fe6e666cecbc9329ddf6d6,67fe81161a5fc274b5e8920f,,,,,,,,,,,,,,,,,,,,,,With Brainslug No Barriers No Money,0,images/assets/snowy_original.jpg,learning,10,images/assets/success.jpg,images/assets/gameover.jpg,,,,,,,,,,,,,0,6,6,5,1,,,,,,,,,,,,,,,,,,,,,,,,,,,,,,,,
