instruction_mouse.x,instruction_mouse.y,instruction_mouse.leftButton,instruction_mouse.midButton,instruction_mouse.rightButton,instruction_mouse.clicked_name,introduce_general.thisRepN,introduce_general.thisTrialN,introduce_general.thisN,introduce_general.thisIndex,introduce_general.ran,thisInstruction,participant,session,game version,date,expName,psychopyVersion,OS,frameRate,PROLIFIC PID,STUDY ID,SESSION ID,move_resp.keys,move_resp.rt,end_resp.keys,phase,condition,trial_num,time_limit,completion_time,left_right_steps,number_of_obsticle_blocks,number_of_tree_blocks,quest_complete,responsivity_summary,av_inter_brainslug_intervals,proportion_jitter,jitter_direction_proportion_right,calibration_phase.thisRepN,calibration_phase.thisTrialN,calibration_phase.thisN,calibration_phase.thisIndex,calibration_phase.ran,BlockLabel,nObsticles,backgroundImage,phaseLabel,n_side_steps,success_im,gameover_im,success_condition,introduce_learning_or_choice.thisRepN,introduce_learning_or_choice.thisTrialN,introduce_learning_or_choice.thisN,introduce_learning_or_choice.thisIndex,introduce_learning_or_choice.ran,choice_resp.keys,chosen_quest,unchosen_quest,choice_resp_3afc.keys,choice_resp_3afc.rt,unchosen_quests,forced_choice_trial.thisRepN,forced_choice_trial.thisTrialN,forced_choice_trial.thisN,forced_choice_trial.thisIndex,forced_choice_trial.ran,enjoyment_slider.response,enjoyment_slider.rt,effort_slider.response,effort_slider.rt,show_loop2.thisRepN,show_loop2.thisTrialN,show_loop2.thisN,show_loop2.thisIndex,show_loop2.ran,trials_per_block.thisRepN,trials_per_block.thisTrialN,trials_per_block.thisN,trials_per_block.thisIndex,trials_per_block.ran,decision_phase_AFC.thisRepN,decision_phase_AFC.thisTrialN,decision_phase_AFC.thisN,decision_phase_AFC.thisIndex,decision_phase_AFC.ran,blockN,BlockLabel1,questIm1,BlockLabel2,questIm2,BlockLabel3,questIm3,quest_condition,showForcedChoice.thisRepN,showForcedChoice.thisTrialN,showForcedChoice.thisN,showForcedChoice.thisIndex,showForcedChoice.ran
0.372322998,-0.399326443,1,0,0,instruction_button,0,0,0,0,1,images/instructions_part1_LSM_taskversion1/Slide1.JPG,665dad37740a458b78ae5c71,001,3,2024-10-09_11h47.58.062,avatar_quest_3AFC_legacy,2022.1.3,MacIntel,61.34969325,665dad37740a458b78ae5c71,62bca317d87d479cda00ba3d,6706a345501df0179e2b95a0,,,,,,,,,,,,,,,,,,,,,,,,,,,,,,,,,,,,,,,,,,,,,,,,,,,,,,,,,,,,,,,,,,,,,,,,,,,,,
0.372322998,-0.399326443,1,0,0,instruction_button,0,1,1,1,1,images/instructions_part1_LSM_taskversion1/Slide2.JPG,665dad37740a458b78ae5c71,001,3,2024-10-09_11h47.58.062,avatar_quest_3AFC_legacy,2022.1.3,MacIntel,61.34969325,665dad37740a458b78ae5c71,62bca317d87d479cda00ba3d,6706a345501df0179e2b95a0,,,,,,,,,,,,,,,,,,,,,,,,,,,,,,,,,,,,,,,,,,,,,,,,,,,,,,,,,,,,,,,,,,,,,,,,,,,,,
0.372322998,-0.399326443,1,0,0,instruction_button,0,2,2,2,1,images/instructions_part1_LSM_taskversion1/Slide3.JPG,665dad37740a458b78ae5c71,001,3,2024-10-09_11h47.58.062,avatar_quest_3AFC_legacy,2022.1.3,MacIntel,61.34969325,665dad37740a458b78ae5c71,62bca317d87d479cda00ba3d,6706a345501df0179e2b95a0,,,,,,,,,,,,,,,,,,,,,,,,,,,,,,,,,,,,,,,,,,,,,,,,,,,,,,,,,,,,,,,,,,,,,,,,,,,,,
0.372322998,-0.399326443,1,0,0,instruction_button,0,3,3,3,1,images/instructions_part1_LSM_taskversion1/Slide3.5.JPG,665dad37740a458b78ae5c71,001,3,2024-10-09_11h47.58.062,avatar_quest_3AFC_legacy,2022.1.3,MacIntel,61.34969325,665dad37740a458b78ae5c71,62bca317d87d479cda00ba3d,6706a345501df0179e2b95a0,,,,,,,,,,,,,,,,,,,,,,,,,,,,,,,,,,,,,,,,,,,,,,,,,,,,,,,,,,,,,,,,,,,,,,,,,,,,,
0.372322998,-0.399326443,1,0,0,instruction_button,0,4,4,4,1,images/instructions_part1_LSM_taskversion1/Slide4.JPG,665dad37740a458b78ae5c71,001,3,2024-10-09_11h47.58.062,avatar_quest_3AFC_legacy,2022.1.3,MacIntel,61.34969325,665dad37740a458b78ae5c71,62bca317d87d479cda00ba3d,6706a345501df0179e2b95a0,,,,,,,,,,,,,,,,,,,,,,,,,,,,,,,,,,,,,,,,,,,,,,,,,,,,,,,,,,,,,,,,,,,,,,,,,,,,,
0.372322998,-0.399326443,1,0,0,instruction_button,0,5,5,5,1,images/instructions_part1_LSM_taskversion1/Slide6.5.JPG,665dad37740a458b78ae5c71,001,3,2024-10-09_11h47.58.062,avatar_quest_3AFC_legacy,2022.1.3,MacIntel,61.34969325,665dad37740a458b78ae5c71,62bca317d87d479cda00ba3d,6706a345501df0179e2b95a0,,,,,,,,,,,,,,,,,,,,,,,,,,,,,,,,,,,,,,,,,,,,,,,,,,,,,,,,,,,,,,,,,,,,,,,,,,,,,
,,,,,,,,,,,,665dad37740a458b78ae5c71,001,3,2024-10-09_11h47.58.062,avatar_quest_3AFC_legacy,2022.1.3,MacIntel,61.34969325,665dad37740a458b78ae5c71,62bca317d87d479cda00ba3d,6706a345501df0179e2b95a0,"[""left"",""left"",""right"",""right"",""right"",""right"",""right"",""right"",""right""]","[2.659700000002971,3.270100000008938,4.018400000005954,4.2254999999999825,4.603400000005962,4.726700000002978,4.924100000008934,5.091100000008936,5.293600000008922]",,calibration,No Brainslug No Barriers No Money,1,100,5.478,5,0,0,TRUE,na,na,na,na,0,0,0,0,1,No Brainslug No Barriers No Money,0,images/assets/snowy_original.jpg,calibration,10,images/assets/success.jpg,images/assets/gameover.jpg,never,,,,,,,,,,,,,,,,,,,,,,,,,,,,,,,,,,,,,,,,,,,,,,,,
,,,,,,,,,,,,665dad37740a458b78ae5c71,001,3,2024-10-09_11h47.58.062,avatar_quest_3AFC_legacy,2022.1.3,MacIntel,61.34969325,665dad37740a458b78ae5c71,62bca317d87d479cda00ba3d,6706a345501df0179e2b95a0,"[""right"",""left"",""left"",""left"",""left"",""left"",""left"",""left"",""left"",""left"",""left"",""left"",""left"",""left"",""left"",""left""]","[0.000799999997013856,1.103799999996994,1.9060999999940407,2.4039999999999964,2.7532999999970116,2.9939999999999998,3.169700000002962,3.369400000005953,3.56159999999403,3.7737000000029752,3.9924000000059436,4.235700000002964,4.635400000005944,4.889799999996995,5.092700000002964,5.2712000000029775]",,calibration,No Brainslug No Barriers No Money,2,100,5.4788,5,0,0,TRUE,na,na,na,na,0,1,1,2,1,No Brainslug No Barriers No Money,0,images/assets/snowy_original.jpg,calibration,10,images/assets/success.jpg,images/assets/gameover.jpg,never,,,,,,,,,,,,,,,,,,,,,,,,,,,,,,,,,,,,,,,,,,,,,,,,
,,,,,,,,,,,,665dad37740a458b78ae5c71,001,3,2024-10-09_11h47.58.062,avatar_quest_3AFC_legacy,2022.1.3,MacIntel,61.34969325,665dad37740a458b78ae5c71,62bca317d87d479cda00ba3d,6706a345501df0179e2b95a0,"[""left"",""left"",""left"",""left"",""left"",""left"",""left"",""left"",""left"",""left"",""left"",""left"",""left"",""right"",""right"",""right"",""right"",""right"",""right"",""right"",""right"",""right"",""right"",""left"",""left"",""right"",""right"",""right"",""right"",""right"",""right""]","[0.0004000000059534159,0.2382999999969968,0.6714000000059457,0.8551000000089175,1.0551000000089346,1.2441000000089275,1.6394999999999982,1.9377000000029625,2.2957999999970014,2.469799999997008,2.745400000005958,2.979200000002976,3.2217999999970175,3.4626000000089334,3.6714999999999804,3.8961000000089143,4.038299999997008,4.16279999999702,4.294400000005936,4.420799999997001,4.555900000005948,4.67710000000892,5.721700000002954,6.144600000008921,6.905200000002964,7.528900000005962,7.737900000005936,7.9222000000029595,8.171600000008937,8.36229999999702,8.57120000000296]",,calibration,No Brainslug No Barriers No Money,3,100,8.6084,11,0,181,TRUE,na,na,na,na,0,2,2,1,1,No Brainslug No Barriers No Money,0,images/assets/snowy_original.jpg,calibration,10,images/assets/success.jpg,images/assets/gameover.jpg,never,,,,,,,,,,,,,,,,,,,,,,,,,,,,,,,,,,,,,,,,,,,,,,,,
0.386162381,-0.395227865,1,0,0,instruction_button,,,,,,images/instructions_part2_LSM_taskversion3.jpg,665dad37740a458b78ae5c71,001,3,2024-10-09_11h47.58.062,avatar_quest_3AFC_legacy,2022.1.3,MacIntel,61.34969325,665dad37740a458b78ae5c71,62bca317d87d479cda00ba3d,6706a345501df0179e2b95a0,,,,,,,,,,,,,,,,,,,,,,,,,,,,,,0,0,0,0,1,,,,,,,,,,,,,,,,,,,,,,,,,,,,,,,,,,,,,,,,,,,
,,,,,,,,,,,,665dad37740a458b78ae5c71,001,3,2024-10-09_11h47.58.062,avatar_quest_3AFC_legacy,2022.1.3,MacIntel,61.34969325,665dad37740a458b78ae5c71,62bca317d87d479cda00ba3d,6706a345501df0179e2b95a0,,,,,,,,,,,,,,,,,,,,,,With Brainslug No Barriers No Money,0,images/assets/snowy_original.jpg,learning,10,images/assets/success.jpg,images/assets/gameover.jpg,,,,,,,,With Brainslug Difficult 2 With Money,With Brainslug Difficult 1 No Money,right,0.868,"[""With Brainslug Difficult 1 No Money"",""With Brainslug Difficult 2 No Money""]",0,0,0,5,1,,,,,,,,,,,,,,,,,,,,,,,,,,,,,,,,
,,,,,,,,,,,,665dad37740a458b78ae5c71,001,3,2024-10-09_11h47.58.062,avatar_quest_3AFC_legacy,2022.1.3,MacIntel,61.34969325,665dad37740a458b78ae5c71,62bca317d87d479cda00ba3d,6706a345501df0179e2b95a0,,,,,,,,,,,,,,,,,,,,,,No Brainslug Difficult 2 No Money,12,images/assets/snowy_original.jpg,learning,20,images/assets/success.jpg,images/assets/gameover.jpg,,,,,,,,,,,,,0,1,1,8,1,,,,,,,,,,,,,,,,,,,,,,,,,,,,,,,,
,,,,,,,,,,,,665dad37740a458b78ae5c71,001,3,2024-10-09_11h47.58.062,avatar_quest_3AFC_legacy,2022.1.3,MacIntel,61.34969325,665dad37740a458b78ae5c71,62bca317d87d479cda00ba3d,6706a345501df0179e2b95a0,,,,,,,,,,,,,,,,,,,,,,With Brainslug Difficult 1 With Money,6,images/assets/snowy_money.jpg,learning,20,images/assets/success_money.jpg,images/assets/gameover.jpg,,,,,,,,,,,,,0,2,2,0,1,,,,,,,,,,,,,,,,,,,,,,,,,,,,,,,,
,,,,,,,,,,,,665dad37740a458b78ae5c71,001,3,2024-10-09_11h47.58.062,avatar_quest_3AFC_legacy,2022.1.3,MacIntel,61.34969325,665dad37740a458b78ae5c71,62bca317d87d479cda00ba3d,6706a345501df0179e2b95a0,,,,,,,,,,,,,,,,,,,,,,No Brainslug Difficult 1 No Money,6,images/assets/snowy_original.jpg,learning,20,images/assets/success.jpg,images/assets/gameover.jpg,,,,,,,,,,,,,0,3,3,6,1,,,,,,,,,,,,,,,,,,,,,,,,,,,,,,,,
,,,,,,,,,,,,665dad37740a458b78ae5c71,001,3,2024-10-09_11h47.58.062,avatar_quest_3AFC_legacy,2022.1.3,MacIntel,61.34969325,665dad37740a458b78ae5c71,62bca317d87d479cda00ba3d,6706a345501df0179e2b95a0,,,,,,,,,,,,,,,,,,,,,,No Brainslug No Barriers No Money,0,images/assets/snowy_original.jpg,learning,10,images/assets/success.jpg,images/assets/gameover.jpg,,,,,,,,,,,,,0,4,4,10,1,,,,,,,,,,,,,,,,,,,,,,,,,,,,,,,,
,,,,,,,,,,,,665dad37740a458b78ae5c71,001,3,2024-10-09_11h47.58.062,avatar_quest_3AFC_legacy,2022.1.3,MacIntel,61.34969325,665dad37740a458b78ae5c71,62bca317d87d479cda00ba3d,6706a345501df0179e2b95a0,,,,,,,,,,,,,,,,,,,,,,With Brainslug No Barriers With Money,0,images/assets/snowy_money.jpg,learning,10,images/assets/success_money.jpg,images/assets/gameover.jpg,,,,,,,,,,,,,0,5,5,4,1,,,,,,,,,,,,,,,,,,,,,,,,,,,,,,,,
,,,,,,,,,,,,665dad37740a458b78ae5c71,001,3,2024-10-09_11h47.58.062,avatar_quest_3AFC_legacy,2022.1.3,MacIntel,61.34969325,665dad37740a458b78ae5c71,62bca317d87d479cda00ba3d,6706a345501df0179e2b95a0,,,,,,,,,,,,,,,,,,,,,,With Brainslug Difficult 1 No Money,6,images/assets/snowy_original.jpg,learning,20,images/assets/success.jpg,images/assets/gameover.jpg,,,,,,,,,,,,,0,6,6,1,1,,,,,,,,,,,,,,,,,,,,,,,,,,,,,,,,
,,,,,,,,,,,,665dad37740a458b78ae5c71,001,3,2024-10-09_11h47.58.062,avatar_quest_3AFC_legacy,2022.1.3,MacIntel,61.34969325,665dad37740a458b78ae5c71,62bca317d87d479cda00ba3d,6706a345501df0179e2b95a0,"[""right"",""left"",""left"",""left"",""left"",""left"",""right"",""right"",""right"",""right"",""right"",""left"",""left"",""left"",""right"",""right"",""right"",""right"",""right"",""right"",""left"",""left""]","[1.1812999999970089,2.415099999994027,2.693399999991044,3.1645999999940386,3.3630999999940343,3.947700000002982,4.215299999997001,4.412899999991055,4.496099999994044,4.947200000002965,5.346700000002983,5.613299999997025,5.798000000000002,6.013499999999993,6.614299999997002,7.014099999994045,7.712700000002968,7.9325000000000045,8.432899999991065,8.626999999999981,9.373999999999995,9.662999999999982]",,calibration,With Brainslug Difficult 2 With Money,4,9.7826,9.7908,8,6,0,FALSE,na,na,na,na,,,,,,,,,,,,,,,,,,,,,,,,,,,,,,,,,,0,0,0,0,1,,,,,,,,,,,,,,,,,,,,,,,
,,,,,,,,,,,,665dad37740a458b78ae5c71,001,3,2024-10-09_11h47.58.062,avatar_quest_3AFC_legacy,2022.1.3,MacIntel,61.34969325,665dad37740a458b78ae5c71,62bca317d87d479cda00ba3d,6706a345501df0179e2b95a0,,,,,,,,,,,,,,,,,,,,,,With Brainslug Difficult 2 With Money,12,images/assets/snowy_money.jpg,learning,20,images/assets/success_money.jpg,images/assets/gameover.jpg,,,,,,,,,,,,,0,7,7,2,1,,,,,,,,,,,,,,,,,,,,,,,,,,,,,,,,
,,,,,,,,,,,,665dad37740a458b78ae5c71,001,3,2024-10-09_11h47.58.062,avatar_quest_3AFC_legacy,2022.1.3,MacIntel,61.34969325,665dad37740a458b78ae5c71,62bca317d87d479cda00ba3d,6706a345501df0179e2b95a0,,,,,,,,,,,,,,,,,,,,,,No Brainslug Difficult 2 With Money,12,images/assets/snowy_money.jpg,learning,20,images/assets/success_money.jpg,images/assets/gameover.jpg,,,,,,,,,,,,,0,8,8,7,1,,,,,,,,,,,,,,,,,,,,,,,,,,,,,,,,
,,,,,,,,,,,,665dad37740a458b78ae5c71,001,3,2024-10-09_11h47.58.062,avatar_quest_3AFC_legacy,2022.1.3,MacIntel,61.34969325,665dad37740a458b78ae5c71,62bca317d87d479cda00ba3d,6706a345501df0179e2b95a0,,,,,,,,,,,,,,,,,,,,,,With Brainslug Difficult 2 No Money,12,images/assets/snowy_original.jpg,learning,20,images/assets/success.jpg,images/assets/gameover.jpg,,,,,,,,,,,,,0,9,9,3,1,,,,,,,,,,,,,,,,,,,,,,,,,,,,,,,,
,,,,,,,,,,,,665dad37740a458b78ae5c71,001,3,2024-10-09_11h47.58.062,avatar_quest_3AFC_legacy,2022.1.3,MacIntel,61.34969325,665dad37740a458b78ae5c71,62bca317d87d479cda00ba3d,6706a345501df0179e2b95a0,,,,,,,,,,,,,,,,,,,,,,No Brainslug No Barriers With Money,0,images/assets/snowy_money.jpg,learning,10,images/assets/success_money.jpg,images/assets/gameover.jpg,,,,,,,,,,,,,0,10,10,9,1,,,,,,,,,,,,,,,,,,,,,,,,,,,,,,,,
,,,,,,,,,,,,665dad37740a458b78ae5c71,001,3,2024-10-09_11h47.58.062,avatar_quest_3AFC_legacy,2022.1.3,MacIntel,61.34969325,665dad37740a458b78ae5c71,62bca317d87d479cda00ba3d,6706a345501df0179e2b95a0,,,,,,,,,,,,,,,,,,,,,,,,,,,,,,,,,,,,,,,,,,,,,,,,,,,,,,,0,0,0,0,1,,,,,,,,,,,,,,,,,,
,,,,,,,,,,,,665dad37740a458b78ae5c71,001,3,2024-10-09_11h47.58.062,avatar_quest_3AFC_legacy,2022.1.3,MacIntel,61.34969325,665dad37740a458b78ae5c71,62bca317d87d479cda00ba3d,6706a345501df0179e2b95a0,,,,,,,,,,,,,,,,,,,,,,No Brainslug Difficult 1 No Money,6,images/assets/snowy_original.jpg,learning,20,images/assets/success.jpg,images/assets/gameover.jpg,,,,,,,,With Brainslug Difficult 2 With Money,With Brainslug Difficult 1 No Money,right,2.0829,"[""With Brainslug Difficult 1 No Money"",""With Brainslug Difficult 2 No Money""]",0,0,0,6,1,,,,,,,,,,,,,,,,,,,,,,,,,,,,,,,,
,,,,,,,,,,,,665dad37740a458b78ae5c71,001,3,2024-10-09_11h47.58.062,avatar_quest_3AFC_legacy,2022.1.3,MacIntel,61.34969325,665dad37740a458b78ae5c71,62bca317d87d479cda00ba3d,6706a345501df0179e2b95a0,,,,,,,,,,,,,,,,,,,,,,With Brainslug No Barriers With Money,0,images/assets/snowy_money.jpg,learning,10,images/assets/success_money.jpg,images/assets/gameover.jpg,,,,,,,,,,,,,0,1,1,4,1,,,,,,,,,,,,,,,,,,,,,,,,,,,,,,,,
,,,,,,,,,,,,665dad37740a458b78ae5c71,001,3,2024-10-09_11h47.58.062,avatar_quest_3AFC_legacy,2022.1.3,MacIntel,61.34969325,665dad37740a458b78ae5c71,62bca317d87d479cda00ba3d,6706a345501df0179e2b95a0,,,,,,,,,,,,,,,,,,,,,,No Brainslug Difficult 2 With Money,12,images/assets/snowy_money.jpg,learning,20,images/assets/success_money.jpg,images/assets/gameover.jpg,,,,,,,,,,,,,0,2,2,7,1,,,,,,,,,,,,,,,,,,,,,,,,,,,,,,,,
,,,,,,,,,,,,665dad37740a458b78ae5c71,001,3,2024-10-09_11h47.58.062,avatar_quest_3AFC_legacy,2022.1.3,MacIntel,61.34969325,665dad37740a458b78ae5c71,62bca317d87d479cda00ba3d,6706a345501df0179e2b95a0,,,,,,,,,,,,,,,,,,,,,,With Brainslug Difficult 1 No Money,6,images/assets/snowy_original.jpg,learning,20,images/assets/success.jpg,images/assets/gameover.jpg,,,,,,,,,,,,,0,3,3,1,1,,,,,,,,,,,,,,,,,,,,,,,,,,,,,,,,
,,,,,,,,,,,,665dad37740a458b78ae5c71,001,3,2024-10-09_11h47.58.062,avatar_quest_3AFC_legacy,2022.1.3,MacIntel,61.34969325,665dad37740a458b78ae5c71,62bca317d87d479cda00ba3d,6706a345501df0179e2b95a0,,,,,,,,,,,,,,,,,,,,,,With Brainslug No Barriers No Money,0,images/assets/snowy_original.jpg,learning,10,images/assets/success.jpg,images/assets/gameover.jpg,,,,,,,,,,,,,0,4,4,5,1,,,,,,,,,,,,,,,,,,,,,,,,,,,,,,,,
,,,,,,,,,,,,665dad37740a458b78ae5c71,001,3,2024-10-09_11h47.58.062,avatar_quest_3AFC_legacy,2022.1.3,MacIntel,61.34969325,665dad37740a458b78ae5c71,62bca317d87d479cda00ba3d,6706a345501df0179e2b95a0,,,,,,,,,,,,,,,,,,,,,,No Brainslug No Barriers With Money,0,images/assets/snowy_money.jpg,learning,10,images/assets/success_money.jpg,images/assets/gameover.jpg,,,,,,,,,,,,,0,5,5,9,1,,,,,,,,,,,,,,,,,,,,,,,,,,,,,,,,
,,,,,,,,,,,,665dad37740a458b78ae5c71,001,3,2024-10-09_11h47.58.062,avatar_quest_3AFC_legacy,2022.1.3,MacIntel,61.34969325,665dad37740a458b78ae5c71,62bca317d87d479cda00ba3d,6706a345501df0179e2b95a0,,,,,,,,,,,,,,,,,,,,,,With Brainslug Difficult 1 With Money,6,images/assets/snowy_money.jpg,learning,20,images/assets/success_money.jpg,images/assets/gameover.jpg,,,,,,,,,,,,,0,6,6,0,1,,,,,,,,,,,,,,,,,,,,,,,,,,,,,,,,
,,,,,,,,,,,,665dad37740a458b78ae5c71,001,3,2024-10-09_11h47.58.062,avatar_quest_3AFC_legacy,2022.1.3,MacIntel,61.34969325,665dad37740a458b78ae5c71,62bca317d87d479cda00ba3d,6706a345501df0179e2b95a0,,,,,,,,,,,,,,,,,,,,,,No Brainslug No Barriers No Money,0,images/assets/snowy_original.jpg,learning,10,images/assets/success.jpg,images/assets/gameover.jpg,,,,,,,,,,,,,0,7,7,10,1,,,,,,,,,,,,,,,,,,,,,,,,,,,,,,,,
,,,,,,,,,,,,665dad37740a458b78ae5c71,001,3,2024-10-09_11h47.58.062,avatar_quest_3AFC_legacy,2022.1.3,MacIntel,61.34969325,665dad37740a458b78ae5c71,62bca317d87d479cda00ba3d,6706a345501df0179e2b95a0,"[""right"",""right"",""left"",""left"",""left"",""right"",""left"",""left"",""up"",""right"",""up"",""down"",""left"",""left"",""left""]","[0.6857999999970161,1.2214999999999918,3.085799999997022,3.2966999999880784,3.5216999999880727,4.16789999999105,4.734999999999985,5.216799999997022,6.034699999988078,6.150299999997031,7.5187999999970145,8.184499999999986,8.718099999994052,9.031499999999994,9.46839999999105]",,calibration,With Brainslug Difficult 2 With Money,5,9.7826,9.7863,5,3,0,FALSE,na,na,na,na,,,,,,,,,,,,,,,,,,,,,,,,,,,,,,,,,,0,0,0,0,1,,,,,,,,,,,,,,,,,,,,,,,
,,,,,,,,,,,,665dad37740a458b78ae5c71,001,3,2024-10-09_11h47.58.062,avatar_quest_3AFC_legacy,2022.1.3,MacIntel,61.34969325,665dad37740a458b78ae5c71,62bca317d87d479cda00ba3d,6706a345501df0179e2b95a0,,,,,,,,,,,,,,,,,,,,,,With Brainslug Difficult 2 With Money,12,images/assets/snowy_money.jpg,learning,20,images/assets/success_money.jpg,images/assets/gameover.jpg,,,,,,,,,,,,,0,8,8,2,1,,,,,,,,,,,,,,,,,,,,,,,,,,,,,,,,
,,,,,,,,,,,,665dad37740a458b78ae5c71,001,3,2024-10-09_11h47.58.062,avatar_quest_3AFC_legacy,2022.1.3,MacIntel,61.34969325,665dad37740a458b78ae5c71,62bca317d87d479cda00ba3d,6706a345501df0179e2b95a0,,,,,,,,,,,,,,,,,,,,,,With Brainslug Difficult 2 No Money,12,images/assets/snowy_original.jpg,learning,20,images/assets/success.jpg,images/assets/gameover.jpg,,,,,,,,,,,,,0,9,9,3,1,,,,,,,,,,,,,,,,,,,,,,,,,,,,,,,,
,,,,,,,,,,,,665dad37740a458b78ae5c71,001,3,2024-10-09_11h47.58.062,avatar_quest_3AFC_legacy,2022.1.3,MacIntel,61.34969325,665dad37740a458b78ae5c71,62bca317d87d479cda00ba3d,6706a345501df0179e2b95a0,,,,,,,,,,,,,,,,,,,,,,No Brainslug Difficult 2 No Money,12,images/assets/snowy_original.jpg,learning,20,images/assets/success.jpg,images/assets/gameover.jpg,,,,,,,,,,,,,0,10,10,8,1,,,,,,,,,,,,,,,,,,,,,,,,,,,,,,,,
,,,,,,,,,,,,665dad37740a458b78ae5c71,001,3,2024-10-09_11h47.58.062,avatar_quest_3AFC_legacy,2022.1.3,MacIntel,61.34969325,665dad37740a458b78ae5c71,62bca317d87d479cda00ba3d,6706a345501df0179e2b95a0,,,,,,,,,,,,,,,,,,,,,,,,,,,,,,,,,,,,,,,,,,,,,,,,,,,,,,,1,0,1,0,1,,,,,,,,,,,,,,,,,,
,,,,,,,,,,,,665dad37740a458b78ae5c71,001,3,2024-10-09_11h47.58.062,avatar_quest_3AFC_legacy,2022.1.3,MacIntel,61.34969325,665dad37740a458b78ae5c71,62bca317d87d479cda00ba3d,6706a345501df0179e2b95a0,,,,,,,,,,,,,,,,,,,,,,No Brainslug No Barriers No Money,0,images/assets/snowy_original.jpg,learning,10,images/assets/success.jpg,images/assets/gameover.jpg,,,,,,,,With Brainslug Difficult 2 With Money,With Brainslug Difficult 1 No Money,right,1.1668,"[""With Brainslug Difficult 1 No Money"",""With Brainslug Difficult 2 No Money""]",0,0,0,10,1,,,,,,,,,,,,,,,,,,,,,,,,,,,,,,,,
,,,,,,,,,,,,665dad37740a458b78ae5c71,001,3,2024-10-09_11h47.58.062,avatar_quest_3AFC_legacy,2022.1.3,MacIntel,61.34969325,665dad37740a458b78ae5c71,62bca317d87d479cda00ba3d,6706a345501df0179e2b95a0,,,,,,,,,,,,,,,,,,,,,,No Brainslug Difficult 2 With Money,12,images/assets/snowy_money.jpg,learning,20,images/assets/success_money.jpg,images/assets/gameover.jpg,,,,,,,,,,,,,0,1,1,7,1,,,,,,,,,,,,,,,,,,,,,,,,,,,,,,,,
,,,,,,,,,,,,665dad37740a458b78ae5c71,001,3,2024-10-09_11h47.58.062,avatar_quest_3AFC_legacy,2022.1.3,MacIntel,61.34969325,665dad37740a458b78ae5c71,62bca317d87d479cda00ba3d,6706a345501df0179e2b95a0,,,,,,,,,,,,,,,,,,,,,,With Brainslug Difficult 1 With Money,6,images/assets/snowy_money.jpg,learning,20,images/assets/success_money.jpg,images/assets/gameover.jpg,,,,,,,,,,,,,0,2,2,0,1,,,,,,,,,,,,,,,,,,,,,,,,,,,,,,,,
,,,,,,,,,,,,665dad37740a458b78ae5c71,001,3,2024-10-09_11h47.58.062,avatar_quest_3AFC_legacy,2022.1.3,MacIntel,61.34969325,665dad37740a458b78ae5c71,62bca317d87d479cda00ba3d,6706a345501df0179e2b95a0,"[""right"",""right"",""right"",""right"",""right"",""right"",""left"",""left"",""left"",""left"",""left"",""right"",""right"",""right"",""right"",""right"",""left"",""left"",""right"",""left"",""left"",""right"",""right"",""right"",""right"",""right"",""right"",""right"",""right"",""right"",""left"",""left"",""right"",""right"",""left""]","[0.31379999999700203,0.6672000000029641,0.8837000000029605,1.0828999999910423,1.4022999999970125,1.597899999991057,1.9672999999970102,2.131799999997014,2.3150999999940325,2.6004999999999825,2.999599999994018,3.600200000002957,3.780099999994036,4.294399999991043,4.483399999991036,4.6839999999999975,5.263399999991037,5.466799999996994,6.099700000002969,6.584099999994038,6.763200000002968,7.146599999994038,7.250499999999988,7.39970000000298,7.8467999999970175,8.032399999991071,8.183799999997007,8.447700000002953,8.596399999991036,8.746599999994032,8.799799999996992,8.981099999994,9.250399999991032,9.433799999997007,9.717599999994036]",,calibration,With Brainslug Difficult 2 With Money,6,9.7826,9.7905,10,7,0,FALSE,na,na,na,na,,,,,,,,,,,,,,,,,,,,,,,,,,,,,,,,,,0,0,0,0,1,,,,,,,,,,,,,,,,,,,,,,,
,,,,,,,,,,,,665dad37740a458b78ae5c71,001,3,2024-10-09_11h47.58.062,avatar_quest_3AFC_legacy,2022.1.3,MacIntel,61.34969325,665dad37740a458b78ae5c71,62bca317d87d479cda00ba3d,6706a345501df0179e2b95a0,,,,,,,,,,,,,,,,,,,,,,With Brainslug Difficult 2 With Money,12,images/assets/snowy_money.jpg,learning,20,images/assets/success_money.jpg,images/assets/gameover.jpg,,,,,,,,,,,,,0,3,3,2,1,,,,,,,,,,,,,,,,,,,,,,,,,,,,,,,,
,,,,,,,,,,,,665dad37740a458b78ae5c71,001,3,2024-10-09_11h47.58.062,avatar_quest_3AFC_legacy,2022.1.3,MacIntel,61.34969325,665dad37740a458b78ae5c71,62bca317d87d479cda00ba3d,6706a345501df0179e2b95a0,,,,,,,,,,,,,,,,,,,,,,No Brainslug No Barriers With Money,0,images/assets/snowy_money.jpg,learning,10,images/assets/success_money.jpg,images/assets/gameover.jpg,,,,,,,,,,,,,0,4,4,9,1,,,,,,,,,,,,,,,,,,,,,,,,,,,,,,,,
,,,,,,,,,,,,665dad37740a458b78ae5c71,001,3,2024-10-09_11h47.58.062,avatar_quest_3AFC_legacy,2022.1.3,MacIntel,61.34969325,665dad37740a458b78ae5c71,62bca317d87d479cda00ba3d,6706a345501df0179e2b95a0,,,,,,,,,,,,,,,,,,,,,,With Brainslug Difficult 2 No Money,12,images/assets/snowy_original.jpg,learning,20,images/assets/success.jpg,images/assets/gameover.jpg,,,,,,,,,,,,,0,5,5,3,1,,,,,,,,,,,,,,,,,,,,,,,,,,,,,,,,
,,,,,,,,,,,,665dad37740a458b78ae5c71,001,3,2024-10-09_11h47.58.062,avatar_quest_3AFC_legacy,2022.1.3,MacIntel,61.34969325,665dad37740a458b78ae5c71,62bca317d87d479cda00ba3d,6706a345501df0179e2b95a0,,,,,,,,,,,,,,,,,,,,,,With Brainslug Difficult 1 No Money,6,images/assets/snowy_original.jpg,learning,20,images/assets/success.jpg,images/assets/gameover.jpg,,,,,,,,,,,,,0,6,6,1,1,,,,,,,,,,,,,,,,,,,,,,,,,,,,,,,,
,,,,,,,,,,,,665dad37740a458b78ae5c71,001,3,2024-10-09_11h47.58.062,avatar_quest_3AFC_legacy,2022.1.3,MacIntel,61.34969325,665dad37740a458b78ae5c71,62bca317d87d479cda00ba3d,6706a345501df0179e2b95a0,,,,,,,,,,,,,,,,,,,,,,With Brainslug No Barriers No Money,0,images/assets/snowy_original.jpg,learning,10,images/assets/success.jpg,images/assets/gameover.jpg,,,,,,,,,,,,,0,7,7,5,1,,,,,,,,,,,,,,,,,,,,,,,,,,,,,,,,
,,,,,,,,,,,,665dad37740a458b78ae5c71,001,3,2024-10-09_11h47.58.062,avatar_quest_3AFC_legacy,2022.1.3,MacIntel,61.34969325,665dad37740a458b78ae5c71,62bca317d87d479cda00ba3d,6706a345501df0179e2b95a0,,,,,,,,,,,,,,,,,,,,,,No Brainslug Difficult 1 No Money,6,images/assets/snowy_original.jpg,learning,20,images/assets/success.jpg,images/assets/gameover.jpg,,,,,,,,,,,,,0,8,8,6,1,,,,,,,,,,,,,,,,,,,,,,,,,,,,,,,,
,,,,,,,,,,,,665dad37740a458b78ae5c71,001,3,2024-10-09_11h47.58.062,avatar_quest_3AFC_legacy,2022.1.3,MacIntel,61.34969325,665dad37740a458b78ae5c71,62bca317d87d479cda00ba3d,6706a345501df0179e2b95a0,,,,,,,,,,,,,,,,,,,,,,No Brainslug Difficult 2 No Money,12,images/assets/snowy_original.jpg,learning,20,images/assets/success.jpg,images/assets/gameover.jpg,,,,,,,,,,,,,0,9,9,8,1,,,,,,,,,,,,,,,,,,,,,,,,,,,,,,,,
,,,,,,,,,,,,665dad37740a458b78ae5c71,001,3,2024-10-09_11h47.58.062,avatar_quest_3AFC_legacy,2022.1.3,MacIntel,61.34969325,665dad37740a458b78ae5c71,62bca317d87d479cda00ba3d,6706a345501df0179e2b95a0,,,,,,,,,,,,,,,,,,,,,,With Brainslug No Barriers With Money,0,images/assets/snowy_money.jpg,learning,10,images/assets/success_money.jpg,images/assets/gameover.jpg,,,,,,,,,,,,,0,10,10,4,1,,,,,,,,,,,,,,,,,,,,,,,,,,,,,,,,
,,,,,,,,,,,,665dad37740a458b78ae5c71,001,3,2024-10-09_11h47.58.062,avatar_quest_3AFC_legacy,2022.1.3,MacIntel,61.34969325,665dad37740a458b78ae5c71,62bca317d87d479cda00ba3d,6706a345501df0179e2b95a0,,,,,,,,,,,,,,,,,,,,,,,,,,,,,,,,,,,,,,,,,,,,,,,,,,,,,,,2,0,2,0,1,,,,,,,,,,,,,,,,,,
,,,,,,,,,,,,665dad37740a458b78ae5c71,001,3,2024-10-09_11h47.58.062,avatar_quest_3AFC_legacy,2022.1.3,MacIntel,61.34969325,665dad37740a458b78ae5c71,62bca317d87d479cda00ba3d,6706a345501df0179e2b95a0,,,,,,,,,,,,,,,,,,,,,,With Brainslug Difficult 1 With Money,6,images/assets/snowy_money.jpg,learning,20,images/assets/success_money.jpg,images/assets/gameover.jpg,,,,,,,,With Brainslug Difficult 2 With Money,With Brainslug Difficult 1 No Money,right,1.6372,"[""With Brainslug Difficult 1 No Money"",""With Brainslug Difficult 2 No Money""]",0,0,0,0,1,,,,,,,,,,,,,,,,,,,,,,,,,,,,,,,,
,,,,,,,,,,,,665dad37740a458b78ae5c71,001,3,2024-10-09_11h47.58.062,avatar_quest_3AFC_legacy,2022.1.3,MacIntel,61.34969325,665dad37740a458b78ae5c71,62bca317d87d479cda00ba3d,6706a345501df0179e2b95a0,,,,,,,,,,,,,,,,,,,,,,No Brainslug No Barriers With Money,0,images/assets/snowy_money.jpg,learning,10,images/assets/success_money.jpg,images/assets/gameover.jpg,,,,,,,,,,,,,0,1,1,9,1,,,,,,,,,,,,,,,,,,,,,,,,,,,,,,,,
,,,,,,,,,,,,665dad37740a458b78ae5c71,001,3,2024-10-09_11h47.58.062,avatar_quest_3AFC_legacy,2022.1.3,MacIntel,61.34969325,665dad37740a458b78ae5c71,62bca317d87d479cda00ba3d,6706a345501df0179e2b95a0,,,,,,,,,,,,,,,,,,,,,,No Brainslug Difficult 2 No Money,12,images/assets/snowy_original.jpg,learning,20,images/assets/success.jpg,images/assets/gameover.jpg,,,,,,,,,,,,,0,2,2,8,1,,,,,,,,,,,,,,,,,,,,,,,,,,,,,,,,
,,,,,,,,,,,,665dad37740a458b78ae5c71,001,3,2024-10-09_11h47.58.062,avatar_quest_3AFC_legacy,2022.1.3,MacIntel,61.34969325,665dad37740a458b78ae5c71,62bca317d87d479cda00ba3d,6706a345501df0179e2b95a0,,,,,,,,,,,,,,,,,,,,,,No Brainslug Difficult 1 No Money,6,images/assets/snowy_original.jpg,learning,20,images/assets/success.jpg,images/assets/gameover.jpg,,,,,,,,,,,,,0,3,3,6,1,,,,,,,,,,,,,,,,,,,,,,,,,,,,,,,,
,,,,,,,,,,,,665dad37740a458b78ae5c71,001,3,2024-10-09_11h47.58.062,avatar_quest_3AFC_legacy,2022.1.3,MacIntel,61.34969325,665dad37740a458b78ae5c71,62bca317d87d479cda00ba3d,6706a345501df0179e2b95a0,"[""right"",""right"",""right"",""right"",""left"",""left"",""left"",""left"",""left"",""right"",""right"",""left"",""left"",""left"",""left"",""left"",""left"",""left"",""right"",""right"",""right"",""right"",""right"",""right"",""left"",""left"",""right"",""right"",""right"",""right"",""right"",""right"",""left""]","[0.4971000000089134,0.6972000000029652,0.9139999999999873,1.0626000000089562,1.2484000000059723,1.4304000000059318,1.547200000002988,1.7962000000029548,2.0112000000029866,2.597400000005962,2.7812000000029684,2.9295000000000186,3.196600000008914,3.4971000000089134,3.697100000008959,3.8807999999970093,4.296100000008948,4.512299999997026,4.84699999999998,5.025100000008933,5.312100000008911,5.528900000005933,6.213100000008922,6.764299999997036,7.079900000005978,7.278900000005933,7.973799999997027,8.14060000000893,8.576000000000022,8.77810000000892,9.00849999999997,9.206500000000005,9.493700000002946]",,calibration,With Brainslug Difficult 2 With Money,7,9.7826,9.7905,13,7,0,FALSE,na,na,na,na,,,,,,,,,,,,,,,,,,,,,,,,,,,,,,,,,,0,0,0,0,1,,,,,,,,,,,,,,,,,,,,,,,
,,,,,,,,,,,,665dad37740a458b78ae5c71,001,3,2024-10-09_11h47.58.062,avatar_quest_3AFC_legacy,2022.1.3,MacIntel,61.34969325,665dad37740a458b78ae5c71,62bca317d87d479cda00ba3d,6706a345501df0179e2b95a0,,,,,,,,,,,,,,,,,,,,,,With Brainslug Difficult 2 With Money,12,images/assets/snowy_money.jpg,learning,20,images/assets/success_money.jpg,images/assets/gameover.jpg,,,,,,,,,,,,,0,4,4,2,1,,,,,,,,,,,,,,,,,,,,,,,,,,,,,,,,
,,,,,,,,,,,,665dad37740a458b78ae5c71,001,3,2024-10-09_11h47.58.062,avatar_quest_3AFC_legacy,2022.1.3,MacIntel,61.34969325,665dad37740a458b78ae5c71,62bca317d87d479cda00ba3d,6706a345501df0179e2b95a0,,,,,,,,,,,,,,,,,,,,,,With Brainslug No Barriers No Money,0,images/assets/snowy_original.jpg,learning,10,images/assets/success.jpg,images/assets/gameover.jpg,,,,,,,,,,,,,0,5,5,5,1,,,,,,,,,,,,,,,,,,,,,,,,,,,,,,,,
,,,,,,,,,,,,665dad37740a458b78ae5c71,001,3,2024-10-09_11h47.58.062,avatar_quest_3AFC_legacy,2022.1.3,MacIntel,61.34969325,665dad37740a458b78ae5c71,62bca317d87d479cda00ba3d,6706a345501df0179e2b95a0,,,,,,,,,,,,,,,,,,,,,,No Brainslug Difficult 2 With Money,12,images/assets/snowy_money.jpg,learning,20,images/assets/success_money.jpg,images/assets/gameover.jpg,,,,,,,,,,,,,0,6,6,7,1,,,,,,,,,,,,,,,,,,,,,,,,,,,,,,,,
,,,,,,,,,,,,665dad37740a458b78ae5c71,001,3,2024-10-09_11h47.58.062,avatar_quest_3AFC_legacy,2022.1.3,MacIntel,61.34969325,665dad37740a458b78ae5c71,62bca317d87d479cda00ba3d,6706a345501df0179e2b95a0,,,,,,,,,,,,,,,,,,,,,,With Brainslug No Barriers With Money,0,images/assets/snowy_money.jpg,learning,10,images/assets/success_money.jpg,images/assets/gameover.jpg,,,,,,,,,,,,,0,7,7,4,1,,,,,,,,,,,,,,,,,,,,,,,,,,,,,,,,
,,,,,,,,,,,,665dad37740a458b78ae5c71,001,3,2024-10-09_11h47.58.062,avatar_quest_3AFC_legacy,2022.1.3,MacIntel,61.34969325,665dad37740a458b78ae5c71,62bca317d87d479cda00ba3d,6706a345501df0179e2b95a0,,,,,,,,,,,,,,,,,,,,,,With Brainslug Difficult 1 No Money,6,images/assets/snowy_original.jpg,learning,20,images/assets/success.jpg,images/assets/gameover.jpg,,,,,,,,,,,,,0,8,8,1,1,,,,,,,,,,,,,,,,,,,,,,,,,,,,,,,,
,,,,,,,,,,,,665dad37740a458b78ae5c71,001,3,2024-10-09_11h47.58.062,avatar_quest_3AFC_legacy,2022.1.3,MacIntel,61.34969325,665dad37740a458b78ae5c71,62bca317d87d479cda00ba3d,6706a345501df0179e2b95a0,,,,,,,,,,,,,,,,,,,,,,With Brainslug Difficult 2 No Money,12,images/assets/snowy_original.jpg,learning,20,images/assets/success.jpg,images/assets/gameover.jpg,,,,,,,,,,,,,0,9,9,3,1,,,,,,,,,,,,,,,,,,,,,,,,,,,,,,,,
,,,,,,,,,,,,665dad37740a458b78ae5c71,001,3,2024-10-09_11h47.58.062,avatar_quest_3AFC_legacy,2022.1.3,MacIntel,61.34969325,665dad37740a458b78ae5c71,62bca317d87d479cda00ba3d,6706a345501df0179e2b95a0,,,,,,,,,,,,,,,,,,,,,,No Brainslug No Barriers No Money,0,images/assets/snowy_original.jpg,learning,10,images/assets/success.jpg,images/assets/gameover.jpg,,,,,,,,,,,,,0,10,10,10,1,,,,,,,,,,,,,,,,,,,,,,,,,,,,,,,,
,,,,,,,,,,,,665dad37740a458b78ae5c71,001,3,2024-10-09_11h47.58.062,avatar_quest_3AFC_legacy,2022.1.3,MacIntel,61.34969325,665dad37740a458b78ae5c71,62bca317d87d479cda00ba3d,6706a345501df0179e2b95a0,,,,,,,,,,,,,,,,,,,,,,,,,,,,,,,,,,,,,,,,,,,,,,,,,,,,,,,3,0,3,0,1,,,,,,,,,,,,,,,,,,
,,,,,,,,,,,,665dad37740a458b78ae5c71,001,3,2024-10-09_11h47.58.062,avatar_quest_3AFC_legacy,2022.1.3,MacIntel,61.34969325,665dad37740a458b78ae5c71,62bca317d87d479cda00ba3d,6706a345501df0179e2b95a0,,,,,,,,,,,,,,,,,,,,,,No Brainslug No Barriers No Money,0,images/assets/snowy_original.jpg,learning,10,images/assets/success.jpg,images/assets/gameover.jpg,,,,,,,,With Brainslug Difficult 2 With Money,With Brainslug Difficult 1 No Money,right,5.6718,"[""With Brainslug Difficult 1 No Money"",""With Brainslug Difficult 2 No Money""]",0,0,0,10,1,,,,,,,,,,,,,,,,,,,,,,,,,,,,,,,,
,,,,,,,,,,,,665dad37740a458b78ae5c71,001,3,2024-10-09_11h47.58.062,avatar_quest_3AFC_legacy,2022.1.3,MacIntel,61.34969325,665dad37740a458b78ae5c71,62bca317d87d479cda00ba3d,6706a345501df0179e2b95a0,,,,,,,,,,,,,,,,,,,,,,No Brainslug Difficult 1 No Money,6,images/assets/snowy_original.jpg,learning,20,images/assets/success.jpg,images/assets/gameover.jpg,,,,,,,,,,,,,0,1,1,6,1,,,,,,,,,,,,,,,,,,,,,,,,,,,,,,,,
,,,,,,,,,,,,665dad37740a458b78ae5c71,001,3,2024-10-09_11h47.58.062,avatar_quest_3AFC_legacy,2022.1.3,MacIntel,61.34969325,665dad37740a458b78ae5c71,62bca317d87d479cda00ba3d,6706a345501df0179e2b95a0,,,,,,,,,,,,,,,,,,,,,,No Brainslug Difficult 2 With Money,12,images/assets/snowy_money.jpg,learning,20,images/assets/success_money.jpg,images/assets/gameover.jpg,,,,,,,,,,,,,0,2,2,7,1,,,,,,,,,,,,,,,,,,,,,,,,,,,,,,,,
,,,,,,,,,,,,665dad37740a458b78ae5c71,001,3,2024-10-09_11h47.58.062,avatar_quest_3AFC_legacy,2022.1.3,MacIntel,61.34969325,665dad37740a458b78ae5c71,62bca317d87d479cda00ba3d,6706a345501df0179e2b95a0,,,,,,,,,,,,,,,,,,,,,,With Brainslug No Barriers No Money,0,images/assets/snowy_original.jpg,learning,10,images/assets/success.jpg,images/assets/gameover.jpg,,,,,,,,,,,,,0,3,3,5,1,,,,,,,,,,,,,,,,,,,,,,,,,,,,,,,,
,,,,,,,,,,,,665dad37740a458b78ae5c71,001,3,2024-10-09_11h47.58.062,avatar_quest_3AFC_legacy,2022.1.3,MacIntel,61.34969325,665dad37740a458b78ae5c71,62bca317d87d479cda00ba3d,6706a345501df0179e2b95a0,,,,,,,,,,,,,,,,,,,,,,With Brainslug Difficult 2 No Money,12,images/assets/snowy_original.jpg,learning,20,images/assets/success.jpg,images/assets/gameover.jpg,,,,,,,,,,,,,0,4,4,3,1,,,,,,,,,,,,,,,,,,,,,,,,,,,,,,,,
,,,,,,,,,,,,665dad37740a458b78ae5c71,001,3,2024-10-09_11h47.58.062,avatar_quest_3AFC_legacy,2022.1.3,MacIntel,61.34969325,665dad37740a458b78ae5c71,62bca317d87d479cda00ba3d,6706a345501df0179e2b95a0,,,,,,,,,,,,,,,,,,,,,,No Brainslug No Barriers With Money,0,images/assets/snowy_money.jpg,learning,10,images/assets/success_money.jpg,images/assets/gameover.jpg,,,,,,,,,,,,,0,5,5,9,1,,,,,,,,,,,,,,,,,,,,,,,,,,,,,,,,
,,,,,,,,,,,,665dad37740a458b78ae5c71,001,3,2024-10-09_11h47.58.062,avatar_quest_3AFC_legacy,2022.1.3,MacIntel,61.34969325,665dad37740a458b78ae5c71,62bca317d87d479cda00ba3d,6706a345501df0179e2b95a0,,,,,,,,,,,,,,,,,,,,,,With Brainslug No Barriers With Money,0,images/assets/snowy_money.jpg,learning,10,images/assets/success_money.jpg,images/assets/gameover.jpg,,,,,,,,,,,,,0,6,6,4,1,,,,,,,,,,,,,,,,,,,,,,,,,,,,,,,,
,,,,,,,,,,,,665dad37740a458b78ae5c71,001,3,2024-10-09_11h47.58.062,avatar_quest_3AFC_legacy,2022.1.3,MacIntel,61.34969325,665dad37740a458b78ae5c71,62bca317d87d479cda00ba3d,6706a345501df0179e2b95a0,,,,,,,,,,,,,,,,,,,,,,With Brainslug Difficult 1 With Money,6,images/assets/snowy_money.jpg,learning,20,images/assets/success_money.jpg,images/assets/gameover.jpg,,,,,,,,,,,,,0,7,7,0,1,,,,,,,,,,,,,,,,,,,,,,,,,,,,,,,,
,,,,,,,,,,,,665dad37740a458b78ae5c71,001,3,2024-10-09_11h47.58.062,avatar_quest_3AFC_legacy,2022.1.3,MacIntel,61.34969325,665dad37740a458b78ae5c71,62bca317d87d479cda00ba3d,6706a345501df0179e2b95a0,"[""down"",""down"",""down"",""down"",""down"",""down"",""down"",""down"",""down"",""left"",""down"",""left"",""left"",""down"",""right"",""left"",""down"",""left"",""down"",""left"",""down"",""left"",""down"",""down"",""down"",""down"",""down"",""down"",""down"",""down"",""down"",""down"",""down"",""down"",""down"",""down"",""down"",""right"",""right"",""right"",""right"",""left"",""left"",""left"",""left"",""right"",""right"",""right"",""right"",""right"",""up"",""down"",""right"",""right"",""left""]","[0.030500000000017735,0.16290000000594773,0.31290000000598184,0.4279000000059341,0.5782000000029939,0.7386000000089439,0.9116000000089457,1.0614000000059605,1.2262000000029616,1.3259000000059586,1.6265000000000214,1.7789000000059332,1.9923000000119373,2.1283000000119046,2.1952000000029557,2.2624000000059823,2.341000000000008,2.4429999999999836,2.509200000002977,2.6286000000089302,2.7414000000059673,2.842600000008929,2.8944000000059873,3.1625000000000227,3.428700000003005,3.492100000008918,3.6282000000030052,3.8123000000119305,3.9588000000119337,4.093000000000018,4.206800000011924,4.374900000005937,4.512200000002963,4.644800000011912,4.791900000005967,5.028600000008964,5.209400000005985,5.329100000008964,5.5120000000000005,5.682700000002967,5.8910000000000196,6.011600000008912,6.174500000000023,6.392800000011903,6.628300000011905,6.975999999999999,7.161900000005971,7.377600000008954,7.627300000011928,8.044600000008927,8.361300000011909,8.806800000011947,8.893900000005942,9.074700000002963,9.645200000003001]",,calibration,With Brainslug Difficult 2 With Money,8,9.7826,9.7895,14,5,0,FALSE,na,na,na,na,,,,,,,,,,,,,,,,,,,,,,,,,,,,,,,,,,0,0,0,0,1,,,,,,,,,,,,,,,,,,,,,,,
,,,,,,,,,,,,665dad37740a458b78ae5c71,001,3,2024-10-09_11h47.58.062,avatar_quest_3AFC_legacy,2022.1.3,MacIntel,61.34969325,665dad37740a458b78ae5c71,62bca317d87d479cda00ba3d,6706a345501df0179e2b95a0,,,,,,,,,,,,,,,,,,,,,,With Brainslug Difficult 2 With Money,12,images/assets/snowy_money.jpg,learning,20,images/assets/success_money.jpg,images/assets/gameover.jpg,,,,,,,,,,,,,0,8,8,2,1,,,,,,,,,,,,,,,,,,,,,,,,,,,,,,,,
,,,,,,,,,,,,665dad37740a458b78ae5c71,001,3,2024-10-09_11h47.58.062,avatar_quest_3AFC_legacy,2022.1.3,MacIntel,61.34969325,665dad37740a458b78ae5c71,62bca317d87d479cda00ba3d,6706a345501df0179e2b95a0,,,,,,,,,,,,,,,,,,,,,,With Brainslug Difficult 1 No Money,6,images/assets/snowy_original.jpg,learning,20,images/assets/success.jpg,images/assets/gameover.jpg,,,,,,,,,,,,,0,9,9,1,1,,,,,,,,,,,,,,,,,,,,,,,,,,,,,,,,
,,,,,,,,,,,,665dad37740a458b78ae5c71,001,3,2024-10-09_11h47.58.062,avatar_quest_3AFC_legacy,2022.1.3,MacIntel,61.34969325,665dad37740a458b78ae5c71,62bca317d87d479cda00ba3d,6706a345501df0179e2b95a0,,,,,,,,,,,,,,,,,,,,,,No Brainslug Difficult 2 No Money,12,images/assets/snowy_original.jpg,learning,20,images/assets/success.jpg,images/assets/gameover.jpg,,,,,,,,,,,,,0,10,10,8,1,,,,,,,,,,,,,,,,,,,,,,,,,,,,,,,,
,,,,,,,,,,,,665dad37740a458b78ae5c71,001,3,2024-10-09_11h47.58.062,avatar_quest_3AFC_legacy,2022.1.3,MacIntel,61.34969325,665dad37740a458b78ae5c71,62bca317d87d479cda00ba3d,6706a345501df0179e2b95a0,,,,,,,,,,,,,,,,,,,,,,,,,,,,,,,,,,,,,,,,,,,,,,,,,,,,,,,4,0,4,0,1,,,,,,,,,,,,,,,,,,
,,,,,,,,,,,,665dad37740a458b78ae5c71,001,3,2024-10-09_11h47.58.062,avatar_quest_3AFC_legacy,2022.1.3,MacIntel,61.34969325,665dad37740a458b78ae5c71,62bca317d87d479cda00ba3d,6706a345501df0179e2b95a0,,,,,,,,,,,,,,,,,,,,,,With Brainslug No Barriers With Money,0,images/assets/snowy_money.jpg,learning,10,images/assets/success_money.jpg,images/assets/gameover.jpg,,,,,,,,With Brainslug Difficult 2 With Money,With Brainslug Difficult 1 No Money,right,2.903,"[""With Brainslug Difficult 1 No Money"",""With Brainslug Difficult 2 No Money""]",0,0,0,4,1,,,,,,,,,,,,,,,,,,,,,,,,,,,,,,,,
,,,,,,,,,,,,665dad37740a458b78ae5c71,001,3,2024-10-09_11h47.58.062,avatar_quest_3AFC_legacy,2022.1.3,MacIntel,61.34969325,665dad37740a458b78ae5c71,62bca317d87d479cda00ba3d,6706a345501df0179e2b95a0,,,,,,,,,,,,,,,,,,,,,,With Brainslug Difficult 1 No Money,6,images/assets/snowy_original.jpg,learning,20,images/assets/success.jpg,images/assets/gameover.jpg,,,,,,,,,,,,,0,1,1,1,1,,,,,,,,,,,,,,,,,,,,,,,,,,,,,,,,
,,,,,,,,,,,,665dad37740a458b78ae5c71,001,3,2024-10-09_11h47.58.062,avatar_quest_3AFC_legacy,2022.1.3,MacIntel,61.34969325,665dad37740a458b78ae5c71,62bca317d87d479cda00ba3d,6706a345501df0179e2b95a0,,,,,,,,,,,,,,,,,,,,,,No Brainslug No Barriers With Money,0,images/assets/snowy_money.jpg,learning,10,images/assets/success_money.jpg,images/assets/gameover.jpg,,,,,,,,,,,,,0,2,2,9,1,,,,,,,,,,,,,,,,,,,,,,,,,,,,,,,,
,,,,,,,,,,,,665dad37740a458b78ae5c71,001,3,2024-10-09_11h47.58.062,avatar_quest_3AFC_legacy,2022.1.3,MacIntel,61.34969325,665dad37740a458b78ae5c71,62bca317d87d479cda00ba3d,6706a345501df0179e2b95a0,,,,,,,,,,,,,,,,,,,,,,With Brainslug Difficult 1 With Money,6,images/assets/snowy_money.jpg,learning,20,images/assets/success_money.jpg,images/assets/gameover.jpg,,,,,,,,,,,,,0,3,3,0,1,,,,,,,,,,,,,,,,,,,,,,,,,,,,,,,,
,,,,,,,,,,,,665dad37740a458b78ae5c71,001,3,2024-10-09_11h47.58.062,avatar_quest_3AFC_legacy,2022.1.3,MacIntel,61.34969325,665dad37740a458b78ae5c71,62bca317d87d479cda00ba3d,6706a345501df0179e2b95a0,,,,,,,,,,,,,,,,,,,,,,With Brainslug Difficult 2 No Money,12,images/assets/snowy_original.jpg,learning,20,images/assets/success.jpg,images/assets/gameover.jpg,,,,,,,,,,,,,0,4,4,3,1,,,,,,,,,,,,,,,,,,,,,,,,,,,,,,,,
,,,,,,,,,,,,665dad37740a458b78ae5c71,001,3,2024-10-09_11h47.58.062,avatar_quest_3AFC_legacy,2022.1.3,MacIntel,61.34969325,665dad37740a458b78ae5c71,62bca317d87d479cda00ba3d,6706a345501df0179e2b95a0,,,,,,,,,,,,,,,,,,,,,,No Brainslug Difficult 2 No Money,12,images/assets/snowy_original.jpg,learning,20,images/assets/success.jpg,images/assets/gameover.jpg,,,,,,,,,,,,,0,5,5,8,1,,,,,,,,,,,,,,,,,,,,,,,,,,,,,,,,
,,,,,,,,,,,,665dad37740a458b78ae5c71,001,3,2024-10-09_11h47.58.062,avatar_quest_3AFC_legacy,2022.1.3,MacIntel,61.34969325,665dad37740a458b78ae5c71,62bca317d87d479cda00ba3d,6706a345501df0179e2b95a0,,,,,,,,,,,,,,,,,,,,,,No Brainslug Difficult 2 With Money,12,images/assets/snowy_money.jpg,learning,20,images/assets/success_money.jpg,images/assets/gameover.jpg,,,,,,,,,,,,,0,6,6,7,1,,,,,,,,,,,,,,,,,,,,,,,,,,,,,,,,
,,,,,,,,,,,,665dad37740a458b78ae5c71,001,3,2024-10-09_11h47.58.062,avatar_quest_3AFC_legacy,2022.1.3,MacIntel,61.34969325,665dad37740a458b78ae5c71,62bca317d87d479cda00ba3d,6706a345501df0179e2b95a0,"[""right"",""right"",""right"",""right"",""left"",""left"",""left"",""left"",""right"",""right"",""left"",""left"",""right"",""right"",""right"",""left"",""left"",""left"",""left"",""left"",""right"",""right"",""left"",""right"",""right"",""left"",""left"",""left"",""left"",""left"",""left"",""left"",""left"",""right"",""right"",""right"",""right"",""right"",""left"",""left"",""left"",""left"",""right"",""right"",""right"",""right"",""right"",""right""]","[0.000799999997013856,0.4216999999881068,0.625,0.8563999999910834,1.0894999999999868,1.2568999999910488,1.4403999999910866,1.607899999991048,1.8237999999970498,2.089699999988113,2.406399999991038,2.585599999994031,2.8075000000000045,2.9901999999880786,3.206199999988087,3.390699999988101,3.5706999999881077,3.7549999999999955,4.006599999994023,4.222399999991069,4.472199999988106,4.605899999991038,4.8052999999970325,5.02329999999705,5.2230999999940195,5.389499999999998,5.6055999999940695,5.789699999988102,5.990199999988079,6.188299999997014,6.379099999994025,6.601099999994062,6.834499999999991,7.052299999997047,7.221899999991081,7.371799999997052,7.488799999997013,7.633199999988108,7.871599999994032,8.055499999999995,8.236699999988105,8.452499999999986,8.58869999998808,8.755499999999984,8.905500000000018,9.205500000000029,9.421799999997006,9.601299999997025]",,calibration,With Brainslug Difficult 2 With Money,9,9.7826,9.7864,17,8,0,FALSE,na,na,na,na,,,,,,,,,,,,,,,,,,,,,,,,,,,,,,,,,,0,0,0,0,1,,,,,,,,,,,,,,,,,,,,,,,
,,,,,,,,,,,,665dad37740a458b78ae5c71,001,3,2024-10-09_11h47.58.062,avatar_quest_3AFC_legacy,2022.1.3,MacIntel,61.34969325,665dad37740a458b78ae5c71,62bca317d87d479cda00ba3d,6706a345501df0179e2b95a0,,,,,,,,,,,,,,,,,,,,,,With Brainslug Difficult 2 With Money,12,images/assets/snowy_money.jpg,learning,20,images/assets/success_money.jpg,images/assets/gameover.jpg,,,,,,,,,,,,,0,7,7,2,1,,,,,,,,,,,,,,,,,,,,,,,,,,,,,,,,
,,,,,,,,,,,,665dad37740a458b78ae5c71,001,3,2024-10-09_11h47.58.062,avatar_quest_3AFC_legacy,2022.1.3,MacIntel,61.34969325,665dad37740a458b78ae5c71,62bca317d87d479cda00ba3d,6706a345501df0179e2b95a0,,,,,,,,,,,,,,,,,,,,,,With Brainslug No Barriers No Money,0,images/assets/snowy_original.jpg,learning,10,images/assets/success.jpg,images/assets/gameover.jpg,,,,,,,,,,,,,0,8,8,5,1,,,,,,,,,,,,,,,,,,,,,,,,,,,,,,,,
,,,,,,,,,,,,665dad37740a458b78ae5c71,001,3,2024-10-09_11h47.58.062,avatar_quest_3AFC_legacy,2022.1.3,MacIntel,61.34969325,665dad37740a458b78ae5c71,62bca317d87d479cda00ba3d,6706a345501df0179e2b95a0,,,,,,,,,,,,,,,,,,,,,,No Brainslug Difficult 1 No Money,6,images/assets/snowy_original.jpg,learning,20,images/assets/success.jpg,images/assets/gameover.jpg,,,,,,,,,,,,,0,9,9,6,1,,,,,,,,,,,,,,,,,,,,,,,,,,,,,,,,
,,,,,,,,,,,,665dad37740a458b78ae5c71,001,3,2024-10-09_11h47.58.062,avatar_quest_3AFC_legacy,2022.1.3,MacIntel,61.34969325,665dad37740a458b78ae5c71,62bca317d87d479cda00ba3d,6706a345501df0179e2b95a0,,,,,,,,,,,,,,,,,,,,,,No Brainslug No Barriers No Money,0,images/assets/snowy_original.jpg,learning,10,images/assets/success.jpg,images/assets/gameover.jpg,,,,,,,,,,,,,0,10,10,10,1,,,,,,,,,,,,,,,,,,,,,,,,,,,,,,,,
,,,,,,,,,,,,665dad37740a458b78ae5c71,001,3,2024-10-09_11h47.58.062,avatar_quest_3AFC_legacy,2022.1.3,MacIntel,61.34969325,665dad37740a458b78ae5c71,62bca317d87d479cda00ba3d,6706a345501df0179e2b95a0,,,,,,,,,,,,,,,,,,,,,,,,,,,,,,,,,,,,,,,,,,,,,,,,,,,,,,,5,0,5,0,1,,,,,,,,,,,,,,,,,,
,,,,,,,,,,,,665dad37740a458b78ae5c71,001,3,2024-10-09_11h47.58.062,avatar_quest_3AFC_legacy,2022.1.3,MacIntel,61.34969325,665dad37740a458b78ae5c71,62bca317d87d479cda00ba3d,6706a345501df0179e2b95a0,,,,,,,,,,,,,,,,,,,,,,No Brainslug No Barriers With Money,0,images/assets/snowy_money.jpg,learning,10,images/assets/success_money.jpg,images/assets/gameover.jpg,,,,,,,,With Brainslug Difficult 2 No Money,With Brainslug Difficult 1 No Money,down,2.3334,"[""With Brainslug Difficult 1 No Money"",""With Brainslug Difficult 2 With Money""]",0,0,0,9,1,,,,,,,,,,,,,,,,,,,,,,,,,,,,,,,,
,,,,,,,,,,,,665dad37740a458b78ae5c71,001,3,2024-10-09_11h47.58.062,avatar_quest_3AFC_legacy,2022.1.3,MacIntel,61.34969325,665dad37740a458b78ae5c71,62bca317d87d479cda00ba3d,6706a345501df0179e2b95a0,,,,,,,,,,,,,,,,,,,,,,No Brainslug Difficult 2 With Money,12,images/assets/snowy_money.jpg,learning,20,images/assets/success_money.jpg,images/assets/gameover.jpg,,,,,,,,,,,,,0,1,1,7,1,,,,,,,,,,,,,,,,,,,,,,,,,,,,,,,,
,,,,,,,,,,,,665dad37740a458b78ae5c71,001,3,2024-10-09_11h47.58.062,avatar_quest_3AFC_legacy,2022.1.3,MacIntel,61.34969325,665dad37740a458b78ae5c71,62bca317d87d479cda00ba3d,6706a345501df0179e2b95a0,,,,,,,,,,,,,,,,,,,,,,No Brainslug Difficult 1 No Money,6,images/assets/snowy_original.jpg,learning,20,images/assets/success.jpg,images/assets/gameover.jpg,,,,,,,,,,,,,0,2,2,6,1,,,,,,,,,,,,,,,,,,,,,,,,,,,,,,,,
,,,,,,,,,,,,665dad37740a458b78ae5c71,001,3,2024-10-09_11h47.58.062,avatar_quest_3AFC_legacy,2022.1.3,MacIntel,61.34969325,665dad37740a458b78ae5c71,62bca317d87d479cda00ba3d,6706a345501df0179e2b95a0,,,,,,,,,,,,,,,,,,,,,,No Brainslug Difficult 2 No Money,12,images/assets/snowy_original.jpg,learning,20,images/assets/success.jpg,images/assets/gameover.jpg,,,,,,,,,,,,,0,3,3,8,1,,,,,,,,,,,,,,,,,,,,,,,,,,,,,,,,
,,,,,,,,,,,,665dad37740a458b78ae5c71,001,3,2024-10-09_11h47.58.062,avatar_quest_3AFC_legacy,2022.1.3,MacIntel,61.34969325,665dad37740a458b78ae5c71,62bca317d87d479cda00ba3d,6706a345501df0179e2b95a0,,,,,,,,,,,,,,,,,,,,,,No Brainslug No Barriers No Money,0,images/assets/snowy_original.jpg,learning,10,images/assets/success.jpg,images/assets/gameover.jpg,,,,,,,,,,,,,0,4,4,10,1,,,,,,,,,,,,,,,,,,,,,,,,,,,,,,,,
,,,,,,,,,,,,665dad37740a458b78ae5c71,001,3,2024-10-09_11h47.58.062,avatar_quest_3AFC_legacy,2022.1.3,MacIntel,61.34969325,665dad37740a458b78ae5c71,62bca317d87d479cda00ba3d,6706a345501df0179e2b95a0,,,,,,,,,,,,,,,,,,,,,,With Brainslug Difficult 1 With Money,6,images/assets/snowy_money.jpg,learning,20,images/assets/success_money.jpg,images/assets/gameover.jpg,,,,,,,,,,,,,0,5,5,0,1,,,,,,,,,,,,,,,,,,,,,,,,,,,,,,,,
,,,,,,,,,,,,665dad37740a458b78ae5c71,001,3,2024-10-09_11h47.58.062,avatar_quest_3AFC_legacy,2022.1.3,MacIntel,61.34969325,665dad37740a458b78ae5c71,62bca317d87d479cda00ba3d,6706a345501df0179e2b95a0,,,,,,,,,,,,,,,,,,,,,,With Brainslug Difficult 1 No Money,6,images/assets/snowy_original.jpg,learning,20,images/assets/success.jpg,images/assets/gameover.jpg,,,,,,,,,,,,,0,6,6,1,1,,,,,,,,,,,,,,,,,,,,,,,,,,,,,,,,
,,,,,,,,,,,,665dad37740a458b78ae5c71,001,3,2024-10-09_11h47.58.062,avatar_quest_3AFC_legacy,2022.1.3,MacIntel,61.34969325,665dad37740a458b78ae5c71,62bca317d87d479cda00ba3d,6706a345501df0179e2b95a0,,,,,,,,,,,,,,,,,,,,,,With Brainslug No Barriers With Money,0,images/assets/snowy_money.jpg,learning,10,images/assets/success_money.jpg,images/assets/gameover.jpg,,,,,,,,,,,,,0,7,7,4,1,,,,,,,,,,,,,,,,,,,,,,,,,,,,,,,,
,,,,,,,,,,,,665dad37740a458b78ae5c71,001,3,2024-10-09_11h47.58.062,avatar_quest_3AFC_legacy,2022.1.3,MacIntel,61.34969325,665dad37740a458b78ae5c71,62bca317d87d479cda00ba3d,6706a345501df0179e2b95a0,,,,,,,,,,,,,,,,,,,,,,With Brainslug No Barriers No Money,0,images/assets/snowy_original.jpg,learning,10,images/assets/success.jpg,images/assets/gameover.jpg,,,,,,,,,,,,,0,8,8,5,1,,,,,,,,,,,,,,,,,,,,,,,,,,,,,,,,
,,,,,,,,,,,,665dad37740a458b78ae5c71,001,3,2024-10-09_11h47.58.062,avatar_quest_3AFC_legacy,2022.1.3,MacIntel,61.34969325,665dad37740a458b78ae5c71,62bca317d87d479cda00ba3d,6706a345501df0179e2b95a0,"[""right"",""right"",""left"",""left"",""left"",""left"",""left"",""right"",""right"",""right"",""left"",""left"",""left"",""left"",""left"",""right"",""left"",""left"",""left"",""left"",""right"",""right"",""right"",""right"",""right"",""right"",""right"",""right"",""right"",""right"",""right"",""right"",""right"",""right"",""left"",""left"",""left""]","[0.6934999999999718,0.9114999999999895,1.1627999999969916,1.3286999999880322,1.5107999999970048,1.710599999994031,2.0473999999910575,2.294099999993989,2.4744999999999777,2.8405999999940263,2.99439999999106,3.1575999999940336,3.3271999999880677,3.5581999999880622,4.027399999991019,4.524899999991021,5.10739999999106,5.3257999999970025,5.543999999999983,5.792499999999961,6.124499999999955,6.307599999994011,6.49249999999995,6.6749999999999545,7.093599999994012,7.290899999991041,7.493899999991015,7.6941999999880295,8.09209999999399,8.291099999994003,8.476299999996968,8.627199999988079,8.754999999999995,8.874199999988036,9.375799999997014,9.540999999999997,9.693799999996997]",,calibration,With Brainslug Difficult 2 No Money,10,9.7826,9.7881,18,5,0,FALSE,na,na,na,na,,,,,,,,,,,,,,,,,,,,,,,,,,,,,,,,,,0,0,0,0,1,,,,,,,,,,,,,,,,,,,,,,,
,,,,,,,,,,,,665dad37740a458b78ae5c71,001,3,2024-10-09_11h47.58.062,avatar_quest_3AFC_legacy,2022.1.3,MacIntel,61.34969325,665dad37740a458b78ae5c71,62bca317d87d479cda00ba3d,6706a345501df0179e2b95a0,,,,,,,,,,,,,,,,,,,,,,With Brainslug Difficult 2 No Money,12,images/assets/snowy_original.jpg,learning,20,images/assets/success.jpg,images/assets/gameover.jpg,,,,,,,,,,,,,0,9,9,3,1,,,,,,,,,,,,,,,,,,,,,,,,,,,,,,,,
,,,,,,,,,,,,665dad37740a458b78ae5c71,001,3,2024-10-09_11h47.58.062,avatar_quest_3AFC_legacy,2022.1.3,MacIntel,61.34969325,665dad37740a458b78ae5c71,62bca317d87d479cda00ba3d,6706a345501df0179e2b95a0,,,,,,,,,,,,,,,,,,,,,,With Brainslug Difficult 2 With Money,12,images/assets/snowy_money.jpg,learning,20,images/assets/success_money.jpg,images/assets/gameover.jpg,,,,,,,,,,,,,0,10,10,2,1,,,,,,,,,,,,,,,,,,,,,,,,,,,,,,,,
,,,,,,,,,,,,665dad37740a458b78ae5c71,001,3,2024-10-09_11h47.58.062,avatar_quest_3AFC_legacy,2022.1.3,MacIntel,61.34969325,665dad37740a458b78ae5c71,62bca317d87d479cda00ba3d,6706a345501df0179e2b95a0,,,,,,,,,,,,,,,,,,,,,,,,,,,,,,,,,,,,,,,,,,,,,,,,,,,,,,,6,0,6,0,1,,,,,,,,,,,,,,,,,,
,,,,,,,,,,,,665dad37740a458b78ae5c71,001,3,2024-10-09_11h47.58.062,avatar_quest_3AFC_legacy,2022.1.3,MacIntel,61.34969325,665dad37740a458b78ae5c71,62bca317d87d479cda00ba3d,6706a345501df0179e2b95a0,,,,,,,,,,,,,,,,,,,,,,With Brainslug No Barriers No Money,0,images/assets/snowy_original.jpg,learning,10,images/assets/success.jpg,images/assets/gameover.jpg,,,,,,,,With Brainslug Difficult 2 With Money,With Brainslug Difficult 1 No Money,right,2.2153,"[""With Brainslug Difficult 1 No Money"",""With Brainslug Difficult 2 No Money""]",0,0,0,5,1,,,,,,,,,,,,,,,,,,,,,,,,,,,,,,,,
,,,,,,,,,,,,665dad37740a458b78ae5c71,001,3,2024-10-09_11h47.58.062,avatar_quest_3AFC_legacy,2022.1.3,MacIntel,61.34969325,665dad37740a458b78ae5c71,62bca317d87d479cda00ba3d,6706a345501df0179e2b95a0,,,,,,,,,,,,,,,,,,,,,,No Brainslug Difficult 2 With Money,12,images/assets/snowy_money.jpg,learning,20,images/assets/success_money.jpg,images/assets/gameover.jpg,,,,,,,,,,,,,0,1,1,7,1,,,,,,,,,,,,,,,,,,,,,,,,,,,,,,,,
,,,,,,,,,,,,665dad37740a458b78ae5c71,001,3,2024-10-09_11h47.58.062,avatar_quest_3AFC_legacy,2022.1.3,MacIntel,61.34969325,665dad37740a458b78ae5c71,62bca317d87d479cda00ba3d,6706a345501df0179e2b95a0,,,,,,,,,,,,,,,,,,,,,,No Brainslug No Barriers With Money,0,images/assets/snowy_money.jpg,learning,10,images/assets/success_money.jpg,images/assets/gameover.jpg,,,,,,,,,,,,,0,2,2,9,1,,,,,,,,,,,,,,,,,,,,,,,,,,,,,,,,
,,,,,,,,,,,,665dad37740a458b78ae5c71,001,3,2024-10-09_11h47.58.062,avatar_quest_3AFC_legacy,2022.1.3,MacIntel,61.34969325,665dad37740a458b78ae5c71,62bca317d87d479cda00ba3d,6706a345501df0179e2b95a0,,,,,,,,,,,,,,,,,,,,,,With Brainslug Difficult 1 No Money,6,images/assets/snowy_original.jpg,learning,20,images/assets/success.jpg,images/assets/gameover.jpg,,,,,,,,,,,,,0,3,3,1,1,,,,,,,,,,,,,,,,,,,,,,,,,,,,,,,,
,,,,,,,,,,,,665dad37740a458b78ae5c71,001,3,2024-10-09_11h47.58.062,avatar_quest_3AFC_legacy,2022.1.3,MacIntel,61.34969325,665dad37740a458b78ae5c71,62bca317d87d479cda00ba3d,6706a345501df0179e2b95a0,,,,,,,,,,,,,,,,,,,,,,No Brainslug No Barriers No Money,0,images/assets/snowy_original.jpg,learning,10,images/assets/success.jpg,images/assets/gameover.jpg,,,,,,,,,,,,,0,4,4,10,1,,,,,,,,,,,,,,,,,,,,,,,,,,,,,,,,
,,,,,,,,,,,,665dad37740a458b78ae5c71,001,3,2024-10-09_11h47.58.062,avatar_quest_3AFC_legacy,2022.1.3,MacIntel,61.34969325,665dad37740a458b78ae5c71,62bca317d87d479cda00ba3d,6706a345501df0179e2b95a0,,,,,,,,,,,,,,,,,,,,,,No Brainslug Difficult 1 No Money,6,images/assets/snowy_original.jpg,learning,20,images/assets/success.jpg,images/assets/gameover.jpg,,,,,,,,,,,,,0,5,5,6,1,,,,,,,,,,,,,,,,,,,,,,,,,,,,,,,,
,,,,,,,,,,,,665dad37740a458b78ae5c71,001,3,2024-10-09_11h47.58.062,avatar_quest_3AFC_legacy,2022.1.3,MacIntel,61.34969325,665dad37740a458b78ae5c71,62bca317d87d479cda00ba3d,6706a345501df0179e2b95a0,,,,,,,,,,,,,,,,,,,,,,With Brainslug No Barriers With Money,0,images/assets/snowy_money.jpg,learning,10,images/assets/success_money.jpg,images/assets/gameover.jpg,,,,,,,,,,,,,0,6,6,4,1,,,,,,,,,,,,,,,,,,,,,,,,,,,,,,,,
,,,,,,,,,,,,665dad37740a458b78ae5c71,001,3,2024-10-09_11h47.58.062,avatar_quest_3AFC_legacy,2022.1.3,MacIntel,61.34969325,665dad37740a458b78ae5c71,62bca317d87d479cda00ba3d,6706a345501df0179e2b95a0,,,,,,,,,,,,,,,,,,,,,,No Brainslug Difficult 2 No Money,12,images/assets/snowy_original.jpg,learning,20,images/assets/success.jpg,images/assets/gameover.jpg,,,,,,,,,,,,,0,7,7,8,1,,,,,,,,,,,,,,,,,,,,,,,,,,,,,,,,
,,,,,,,,,,,,665dad37740a458b78ae5c71,001,3,2024-10-09_11h47.58.062,avatar_quest_3AFC_legacy,2022.1.3,MacIntel,61.34969325,665dad37740a458b78ae5c71,62bca317d87d479cda00ba3d,6706a345501df0179e2b95a0,,,,,,,,,,,,,,,,,,,,,,With Brainslug Difficult 2 No Money,12,images/assets/snowy_original.jpg,learning,20,images/assets/success.jpg,images/assets/gameover.jpg,,,,,,,,,,,,,0,8,8,3,1,,,,,,,,,,,,,,,,,,,,,,,,,,,,,,,,
,,,,,,,,,,,,665dad37740a458b78ae5c71,001,3,2024-10-09_11h47.58.062,avatar_quest_3AFC_legacy,2022.1.3,MacIntel,61.34969325,665dad37740a458b78ae5c71,62bca317d87d479cda00ba3d,6706a345501df0179e2b95a0,"[""right"",""right"",""right"",""left"",""left"",""left"",""left"",""left"",""right"",""right"",""right"",""right"",""right"",""right"",""left"",""left"",""left"",""left"",""left"",""left"",""right"",""right"",""left"",""right"",""left"",""left"",""left"",""left"",""left"",""right"",""right"",""right"",""left"",""left"",""right"",""right"",""left"",""left"",""left""]","[0.5550999999940132,0.7057999999969979,0.8385000000000105,0.9562000000029798,1.2057000000029348,1.3562999999970202,1.539400000005969,1.7240999999939959,1.9242000000029407,2.0732000000029416,2.222799999996994,2.3725000000000023,2.6067999999970084,3.0062999999969975,3.2404999999999973,3.3899999999999864,3.5212000000029775,3.621499999999969,3.8057999999970207,3.9567999999969743,4.689599999994016,4.838799999996979,5.0547999999969875,5.437400000005937,5.722999999999956,5.907900000005952,6.089400000005924,6.374700000002974,6.572599999993997,6.906000000000006,7.055799999997021,7.202799999997012,8.02159999999401,8.199900000005925,8.701200000002984,8.835099999994043,8.97129999999703,9.452400000005923,9.621200000002943]",,calibration,With Brainslug Difficult 2 With Money,11,9.7826,9.7864,21,9,0,FALSE,na,na,na,na,,,,,,,,,,,,,,,,,,,,,,,,,,,,,,,,,,0,0,0,0,1,,,,,,,,,,,,,,,,,,,,,,,
,,,,,,,,,,,,665dad37740a458b78ae5c71,001,3,2024-10-09_11h47.58.062,avatar_quest_3AFC_legacy,2022.1.3,MacIntel,61.34969325,665dad37740a458b78ae5c71,62bca317d87d479cda00ba3d,6706a345501df0179e2b95a0,,,,,,,,,,,,,,,,,,,,,,With Brainslug Difficult 2 With Money,12,images/assets/snowy_money.jpg,learning,20,images/assets/success_money.jpg,images/assets/gameover.jpg,,,,,,,,,,,,,0,9,9,2,1,,,,,,,,,,,,,,,,,,,,,,,,,,,,,,,,
,,,,,,,,,,,,665dad37740a458b78ae5c71,001,3,2024-10-09_11h47.58.062,avatar_quest_3AFC_legacy,2022.1.3,MacIntel,61.34969325,665dad37740a458b78ae5c71,62bca317d87d479cda00ba3d,6706a345501df0179e2b95a0,,,,,,,,,,,,,,,,,,,,,,With Brainslug Difficult 1 With Money,6,images/assets/snowy_money.jpg,learning,20,images/assets/success_money.jpg,images/assets/gameover.jpg,,,,,,,,,,,,,0,10,10,0,1,,,,,,,,,,,,,,,,,,,,,,,,,,,,,,,,
,,,,,,,,,,,,665dad37740a458b78ae5c71,001,3,2024-10-09_11h47.58.062,avatar_quest_3AFC_legacy,2022.1.3,MacIntel,61.34969325,665dad37740a458b78ae5c71,62bca317d87d479cda00ba3d,6706a345501df0179e2b95a0,,,,,,,,,,,,,,,,,,,,,,,,,,,,,,,,,,,,,,,,,,,,,,,,,,,,,,,7,0,7,0,1,,,,,,,,,,,,,,,,,,
,,,,,,,,,,,,665dad37740a458b78ae5c71,001,3,2024-10-09_11h47.58.062,avatar_quest_3AFC_legacy,2022.1.3,MacIntel,61.34969325,665dad37740a458b78ae5c71,62bca317d87d479cda00ba3d,6706a345501df0179e2b95a0,"[""right"",""right"",""right"",""left"",""left"",""right"",""left"",""left"",""left"",""left"",""left"",""left"",""left"",""left"",""left"",""left"",""left"",""left"",""left"",""left"",""right"",""right"",""left"",""left"",""right"",""right"",""right"",""right"",""right"",""right"",""left"",""left"",""left""]","[0.000599999994051359,0.15699999999998226,0.30889999999106976,1.1250999999940063,1.40859999999401,2.0901999999880445,2.4710000000000036,2.772699999988049,2.9896999999880904,3.375899999991077,3.60919999998805,3.7920999999940364,3.9743999999910784,4.108799999997018,4.238999999999976,4.341899999991028,4.509199999988084,4.690499999999986,4.942199999988077,5.108899999991024,5.72569999998808,5.857599999994022,6.5058999999910725,6.655199999988042,7.242599999994013,7.3910000000000196,7.542299999996999,7.675299999997037,7.9922999999969875,8.142099999994059,8.792399999991062,9.17189999999107,9.625599999994051]",,calibration,With Brainslug Difficult 2 With Money,12,9.7826,9.7892,15,7,0,FALSE,na,na,na,na,,,,,,,,,,,,,,,,,,,,With Brainslug Difficult 2 With Money,With Brainslug Difficult 1 No Money,right,0.9338,"[""With Brainslug Difficult 1 No Money"",""With Brainslug Difficult 2 No Money""]",,,,,,,,,,0,0,0,0,1,,,,,,,,,,,,,,,,,,,,,,,
,,,,,,,,,,,,665dad37740a458b78ae5c71,001,3,2024-10-09_11h47.58.062,avatar_quest_3AFC_legacy,2022.1.3,MacIntel,61.34969325,665dad37740a458b78ae5c71,62bca317d87d479cda00ba3d,6706a345501df0179e2b95a0,,,,,,,,,,,,,,,,,,,,,,With Brainslug Difficult 2 With Money,12,images/assets/snowy_money.jpg,learning,20,images/assets/success_money.jpg,images/assets/gameover.jpg,,,,,,,,,,,,,0,0,0,2,1,,,,,,,,,,,,,,,,,,,,,,,,,,,,,,,,
,,,,,,,,,,,,665dad37740a458b78ae5c71,001,3,2024-10-09_11h47.58.062,avatar_quest_3AFC_legacy,2022.1.3,MacIntel,61.34969325,665dad37740a458b78ae5c71,62bca317d87d479cda00ba3d,6706a345501df0179e2b95a0,,,,,,,,,,,,,,,,,,,,,,With Brainslug Difficult 1 No Money,6,images/assets/snowy_original.jpg,learning,20,images/assets/success.jpg,images/assets/gameover.jpg,,,,,,,,,,,,,0,1,1,1,1,,,,,,,,,,,,,,,,,,,,,,,,,,,,,,,,
,,,,,,,,,,,,665dad37740a458b78ae5c71,001,3,2024-10-09_11h47.58.062,avatar_quest_3AFC_legacy,2022.1.3,MacIntel,61.34969325,665dad37740a458b78ae5c71,62bca317d87d479cda00ba3d,6706a345501df0179e2b95a0,,,,,,,,,,,,,,,,,,,,,,With Brainslug No Barriers No Money,0,images/assets/snowy_original.jpg,learning,10,images/assets/success.jpg,images/assets/gameover.jpg,,,,,,,,,,,,,0,2,2,5,1,,,,,,,,,,,,,,,,,,,,,,,,,,,,,,,,
,,,,,,,,,,,,665dad37740a458b78ae5c71,001,3,2024-10-09_11h47.58.062,avatar_quest_3AFC_legacy,2022.1.3,MacIntel,61.34969325,665dad37740a458b78ae5c71,62bca317d87d479cda00ba3d,6706a345501df0179e2b95a0,,,,,,,,,,,,,,,,,,,,,,No Brainslug Difficult 2 With Money,12,images/assets/snowy_money.jpg,learning,20,images/assets/success_money.jpg,images/assets/gameover.jpg,,,,,,,,,,,,,0,3,3,7,1,,,,,,,,,,,,,,,,,,,,,,,,,,,,,,,,
,,,,,,,,,,,,665dad37740a458b78ae5c71,001,3,2024-10-09_11h47.58.062,avatar_quest_3AFC_legacy,2022.1.3,MacIntel,61.34969325,665dad37740a458b78ae5c71,62bca317d87d479cda00ba3d,6706a345501df0179e2b95a0,,,,,,,,,,,,,,,,,,,,,,No Brainslug No Barriers With Money,0,images/assets/snowy_money.jpg,learning,10,images/assets/success_money.jpg,images/assets/gameover.jpg,,,,,,,,,,,,,0,4,4,9,1,,,,,,,,,,,,,,,,,,,,,,,,,,,,,,,,
,,,,,,,,,,,,665dad37740a458b78ae5c71,001,3,2024-10-09_11h47.58.062,avatar_quest_3AFC_legacy,2022.1.3,MacIntel,61.34969325,665dad37740a458b78ae5c71,62bca317d87d479cda00ba3d,6706a345501df0179e2b95a0,,,,,,,,,,,,,,,,,,,,,,With Brainslug Difficult 2 No Money,12,images/assets/snowy_original.jpg,learning,20,images/assets/success.jpg,images/assets/gameover.jpg,,,,,,,,,,,,,0,5,5,3,1,,,,,,,,,,,,,,,,,,,,,,,,,,,,,,,,
,,,,,,,,,,,,665dad37740a458b78ae5c71,001,3,2024-10-09_11h47.58.062,avatar_quest_3AFC_legacy,2022.1.3,MacIntel,61.34969325,665dad37740a458b78ae5c71,62bca317d87d479cda00ba3d,6706a345501df0179e2b95a0,,,,,,,,,,,,,,,,,,,,,,No Brainslug Difficult 1 No Money,6,images/assets/snowy_original.jpg,learning,20,images/assets/success.jpg,images/assets/gameover.jpg,,,,,,,,,,,,,0,6,6,6,1,,,,,,,,,,,,,,,,,,,,,,,,,,,,,,,,
,,,,,,,,,,,,665dad37740a458b78ae5c71,001,3,2024-10-09_11h47.58.062,avatar_quest_3AFC_legacy,2022.1.3,MacIntel,61.34969325,665dad37740a458b78ae5c71,62bca317d87d479cda00ba3d,6706a345501df0179e2b95a0,,,,,,,,,,,,,,,,,,,,,,With Brainslug No Barriers With Money,0,images/assets/snowy_money.jpg,learning,10,images/assets/success_money.jpg,images/assets/gameover.jpg,,,,,,,,,,,,,0,7,7,4,1,,,,,,,,,,,,,,,,,,,,,,,,,,,,,,,,
,,,,,,,,,,,,665dad37740a458b78ae5c71,001,3,2024-10-09_11h47.58.062,avatar_quest_3AFC_legacy,2022.1.3,MacIntel,61.34969325,665dad37740a458b78ae5c71,62bca317d87d479cda00ba3d,6706a345501df0179e2b95a0,,,,,,,,,,,,,,,,,,,,,,No Brainslug No Barriers No Money,0,images/assets/snowy_original.jpg,learning,10,images/assets/success.jpg,images/assets/gameover.jpg,,,,,,,,,,,,,0,8,8,10,1,,,,,,,,,,,,,,,,,,,,,,,,,,,,,,,,
,,,,,,,,,,,,665dad37740a458b78ae5c71,001,3,2024-10-09_11h47.58.062,avatar_quest_3AFC_legacy,2022.1.3,MacIntel,61.34969325,665dad37740a458b78ae5c71,62bca317d87d479cda00ba3d,6706a345501df0179e2b95a0,,,,,,,,,,,,,,,,,,,,,,No Brainslug Difficult 2 No Money,12,images/assets/snowy_original.jpg,learning,20,images/assets/success.jpg,images/assets/gameover.jpg,,,,,,,,,,,,,0,9,9,8,1,,,,,,,,,,,,,,,,,,,,,,,,,,,,,,,,
,,,,,,,,,,,,665dad37740a458b78ae5c71,001,3,2024-10-09_11h47.58.062,avatar_quest_3AFC_legacy,2022.1.3,MacIntel,61.34969325,665dad37740a458b78ae5c71,62bca317d87d479cda00ba3d,6706a345501df0179e2b95a0,,,,,,,,,,,,,,,,,,,,,,With Brainslug Difficult 1 With Money,6,images/assets/snowy_money.jpg,learning,20,images/assets/success_money.jpg,images/assets/gameover.jpg,,,,,,,,,,,,,0,10,10,0,1,,,,,,,,,,,,,,,,,,,,,,,,,,,,,,,,
,,,,,,,,,,,,665dad37740a458b78ae5c71,001,3,2024-10-09_11h47.58.062,avatar_quest_3AFC_legacy,2022.1.3,MacIntel,61.34969325,665dad37740a458b78ae5c71,62bca317d87d479cda00ba3d,6706a345501df0179e2b95a0,,,,,,,,,,,,,,,,,,,,,,,,,,,,,,,,,,,,,,,,,,,,,,,,,,,,,,,8,0,8,0,1,,,,,,,,,,,,,,,,,,
,,,,,,,,,,,,665dad37740a458b78ae5c71,001,3,2024-10-09_11h47.58.062,avatar_quest_3AFC_legacy,2022.1.3,MacIntel,61.34969325,665dad37740a458b78ae5c71,62bca317d87d479cda00ba3d,6706a345501df0179e2b95a0,,,,,,,,,,,,,,,,,,,,,,With Brainslug Difficult 1 With Money,6,images/assets/snowy_money.jpg,learning,20,images/assets/success_money.jpg,images/assets/gameover.jpg,,,,,,,,With Brainslug Difficult 2 With Money,With Brainslug Difficult 1 No Money,right,0.934,"[""With Brainslug Difficult 1 No Money"",""With Brainslug Difficult 2 No Money""]",0,0,0,0,1,,,,,,,,,,,,,,,,,,,,,,,,,,,,,,,,
,,,,,,,,,,,,665dad37740a458b78ae5c71,001,3,2024-10-09_11h47.58.062,avatar_quest_3AFC_legacy,2022.1.3,MacIntel,61.34969325,665dad37740a458b78ae5c71,62bca317d87d479cda00ba3d,6706a345501df0179e2b95a0,,,,,,,,,,,,,,,,,,,,,,With Brainslug Difficult 1 No Money,6,images/assets/snowy_original.jpg,learning,20,images/assets/success.jpg,images/assets/gameover.jpg,,,,,,,,,,,,,0,1,1,1,1,,,,,,,,,,,,,,,,,,,,,,,,,,,,,,,,
,,,,,,,,,,,,665dad37740a458b78ae5c71,001,3,2024-10-09_11h47.58.062,avatar_quest_3AFC_legacy,2022.1.3,MacIntel,61.34969325,665dad37740a458b78ae5c71,62bca317d87d479cda00ba3d,6706a345501df0179e2b95a0,,,,,,,,,,,,,,,,,,,,,,With Brainslug Difficult 2 No Money,12,images/assets/snowy_original.jpg,learning,20,images/assets/success.jpg,images/assets/gameover.jpg,,,,,,,,,,,,,0,2,2,3,1,,,,,,,,,,,,,,,,,,,,,,,,,,,,,,,,
,,,,,,,,,,,,665dad37740a458b78ae5c71,001,3,2024-10-09_11h47.58.062,avatar_quest_3AFC_legacy,2022.1.3,MacIntel,61.34969325,665dad37740a458b78ae5c71,62bca317d87d479cda00ba3d,6706a345501df0179e2b95a0,,,,,,,,,,,,,,,,,,,,,,No Brainslug Difficult 1 No Money,6,images/assets/snowy_original.jpg,learning,20,images/assets/success.jpg,images/assets/gameover.jpg,,,,,,,,,,,,,0,3,3,6,1,,,,,,,,,,,,,,,,,,,,,,,,,,,,,,,,
,,,,,,,,,,,,665dad37740a458b78ae5c71,001,3,2024-10-09_11h47.58.062,avatar_quest_3AFC_legacy,2022.1.3,MacIntel,61.34969325,665dad37740a458b78ae5c71,62bca317d87d479cda00ba3d,6706a345501df0179e2b95a0,"[""left"",""left"",""left"",""right"",""right"",""right"",""left"",""left"",""left"",""right"",""right"",""right"",""left"",""left"",""left"",""left"",""right"",""right"",""right"",""left"",""left"",""right"",""right"",""right"",""right"",""right"",""right"",""right"",""left"",""left"",""right"",""left"",""left"",""left"",""right"",""right"",""right"",""left"",""left"",""left"",""left"",""left""]","[0.16849999999999454,0.4845999999940318,0.668299999997032,0.9005999999940286,1.054200000002993,1.2654000000059682,1.4309999999999832,1.6172999999969875,1.7819999999999823,1.9844999999999686,2.167900000005943,2.417299999996999,2.6954999999999814,2.9682999999969866,3.151700000002961,3.4334000000059746,3.733799999997018,3.9170999999940364,4.083599999994021,4.617700000002969,4.766799999997033,5.06540000000598,5.268400000005954,5.6815999999940345,5.836299999997038,5.9577999999970075,6.087099999994052,6.213299999996991,6.613499999999988,6.8149000000059345,6.951599999994016,7.200999999999965,7.382099999994011,7.551799999997002,7.869700000002979,8.069299999996986,8.202999999999975,8.999400000005949,9.163599999994005,9.316500000000019,9.48509999999402,9.663999999999987]",,calibration,With Brainslug Difficult 2 With Money,13,9.7826,9.7897,21,10,0,FALSE,na,na,na,na,,,,,,,,,,,,,,,,,,,,,,,,,,,,,,,,,,0,0,0,0,1,,,,,,,,,,,,,,,,,,,,,,,
,,,,,,,,,,,,665dad37740a458b78ae5c71,001,3,2024-10-09_11h47.58.062,avatar_quest_3AFC_legacy,2022.1.3,MacIntel,61.34969325,665dad37740a458b78ae5c71,62bca317d87d479cda00ba3d,6706a345501df0179e2b95a0,,,,,,,,,,,,,,,,,,,,,,With Brainslug Difficult 2 With Money,12,images/assets/snowy_money.jpg,learning,20,images/assets/success_money.jpg,images/assets/gameover.jpg,,,,,,,,,,,,,0,4,4,2,1,,,,,,,,,,,,,,,,,,,,,,,,,,,,,,,,
,,,,,,,,,,,,665dad37740a458b78ae5c71,001,3,2024-10-09_11h47.58.062,avatar_quest_3AFC_legacy,2022.1.3,MacIntel,61.34969325,665dad37740a458b78ae5c71,62bca317d87d479cda00ba3d,6706a345501df0179e2b95a0,,,,,,,,,,,,,,,,,,,,,,No Brainslug No Barriers With Money,0,images/assets/snowy_money.jpg,learning,10,images/assets/success_money.jpg,images/assets/gameover.jpg,,,,,,,,,,,,,0,5,5,9,1,,,,,,,,,,,,,,,,,,,,,,,,,,,,,,,,
,,,,,,,,,,,,665dad37740a458b78ae5c71,001,3,2024-10-09_11h47.58.062,avatar_quest_3AFC_legacy,2022.1.3,MacIntel,61.34969325,665dad37740a458b78ae5c71,62bca317d87d479cda00ba3d,6706a345501df0179e2b95a0,,,,,,,,,,,,,,,,,,,,,,No Brainslug Difficult 2 With Money,12,images/assets/snowy_money.jpg,learning,20,images/assets/success_money.jpg,images/assets/gameover.jpg,,,,,,,,,,,,,0,6,6,7,1,,,,,,,,,,,,,,,,,,,,,,,,,,,,,,,,
,,,,,,,,,,,,665dad37740a458b78ae5c71,001,3,2024-10-09_11h47.58.062,avatar_quest_3AFC_legacy,2022.1.3,MacIntel,61.34969325,665dad37740a458b78ae5c71,62bca317d87d479cda00ba3d,6706a345501df0179e2b95a0,,,,,,,,,,,,,,,,,,,,,,No Brainslug No Barriers No Money,0,images/assets/snowy_original.jpg,learning,10,images/assets/success.jpg,images/assets/gameover.jpg,,,,,,,,,,,,,0,7,7,10,1,,,,,,,,,,,,,,,,,,,,,,,,,,,,,,,,
,,,,,,,,,,,,665dad37740a458b78ae5c71,001,3,2024-10-09_11h47.58.062,avatar_quest_3AFC_legacy,2022.1.3,MacIntel,61.34969325,665dad37740a458b78ae5c71,62bca317d87d479cda00ba3d,6706a345501df0179e2b95a0,,,,,,,,,,,,,,,,,,,,,,With Brainslug No Barriers No Money,0,images/assets/snowy_original.jpg,learning,10,images/assets/success.jpg,images/assets/gameover.jpg,,,,,,,,,,,,,0,8,8,5,1,,,,,,,,,,,,,,,,,,,,,,,,,,,,,,,,
,,,,,,,,,,,,665dad37740a458b78ae5c71,001,3,2024-10-09_11h47.58.062,avatar_quest_3AFC_legacy,2022.1.3,MacIntel,61.34969325,665dad37740a458b78ae5c71,62bca317d87d479cda00ba3d,6706a345501df0179e2b95a0,,,,,,,,,,,,,,,,,,,,,,With Brainslug No Barriers With Money,0,images/assets/snowy_money.jpg,learning,10,images/assets/success_money.jpg,images/assets/gameover.jpg,,,,,,,,,,,,,0,9,9,4,1,,,,,,,,,,,,,,,,,,,,,,,,,,,,,,,,
,,,,,,,,,,,,665dad37740a458b78ae5c71,001,3,2024-10-09_11h47.58.062,avatar_quest_3AFC_legacy,2022.1.3,MacIntel,61.34969325,665dad37740a458b78ae5c71,62bca317d87d479cda00ba3d,6706a345501df0179e2b95a0,,,,,,,,,,,,,,,,,,,,,,No Brainslug Difficult 2 No Money,12,images/assets/snowy_original.jpg,learning,20,images/assets/success.jpg,images/assets/gameover.jpg,,,,,,,,,,,,,0,10,10,8,1,,,,,,,,,,,,,,,,,,,,,,,,,,,,,,,,
,,,,,,,,,,,,665dad37740a458b78ae5c71,001,3,2024-10-09_11h47.58.062,avatar_quest_3AFC_legacy,2022.1.3,MacIntel,61.34969325,665dad37740a458b78ae5c71,62bca317d87d479cda00ba3d,6706a345501df0179e2b95a0,,,,,,,,,,,,,,,,,,,,,,,,,,,,,,,,,,,,,,,,,,,,,,,,,,,,,,,9,0,9,0,1,,,,,,,,,,,,,,,,,,
,,,,,,,,,,,,665dad37740a458b78ae5c71,001,3,2024-10-09_11h47.58.062,avatar_quest_3AFC_legacy,2022.1.3,MacIntel,61.34969325,665dad37740a458b78ae5c71,62bca317d87d479cda00ba3d,6706a345501df0179e2b95a0,,,,,,,,,,,,,,,,,,,,,,With Brainslug No Barriers With Money,0,images/assets/snowy_money.jpg,learning,10,images/assets/success_money.jpg,images/assets/gameover.jpg,,,,,,,,With Brainslug Difficult 2 With Money,With Brainslug Difficult 1 No Money,right,0.4547,"[""With Brainslug Difficult 1 No Money"",""With Brainslug Difficult 2 No Money""]",0,0,0,4,1,,,,,,,,,,,,,,,,,,,,,,,,,,,,,,,,
,,,,,,,,,,,,665dad37740a458b78ae5c71,001,3,2024-10-09_11h47.58.062,avatar_quest_3AFC_legacy,2022.1.3,MacIntel,61.34969325,665dad37740a458b78ae5c71,62bca317d87d479cda00ba3d,6706a345501df0179e2b95a0,,,,,,,,,,,,,,,,,,,,,,With Brainslug Difficult 1 With Money,6,images/assets/snowy_money.jpg,learning,20,images/assets/success_money.jpg,images/assets/gameover.jpg,,,,,,,,,,,,,0,1,1,0,1,,,,,,,,,,,,,,,,,,,,,,,,,,,,,,,,
,,,,,,,,,,,,665dad37740a458b78ae5c71,001,3,2024-10-09_11h47.58.062,avatar_quest_3AFC_legacy,2022.1.3,MacIntel,61.34969325,665dad37740a458b78ae5c71,62bca317d87d479cda00ba3d,6706a345501df0179e2b95a0,,,,,,,,,,,,,,,,,,,,,,No Brainslug Difficult 1 No Money,6,images/assets/snowy_original.jpg,learning,20,images/assets/success.jpg,images/assets/gameover.jpg,,,,,,,,,,,,,0,2,2,6,1,,,,,,,,,,,,,,,,,,,,,,,,,,,,,,,,
,,,,,,,,,,,,665dad37740a458b78ae5c71,001,3,2024-10-09_11h47.58.062,avatar_quest_3AFC_legacy,2022.1.3,MacIntel,61.34969325,665dad37740a458b78ae5c71,62bca317d87d479cda00ba3d,6706a345501df0179e2b95a0,"[""right"",""right"",""right"",""right"",""left"",""left"",""right"",""left"",""left"",""left"",""left"",""right"",""right"",""right"",""right"",""left"",""left"",""left"",""left"",""left"",""right"",""right"",""right"",""right"",""right"",""right"",""right"",""right"",""left"",""left"",""left"",""left"",""left"",""left"",""left"",""left"",""right"",""right"",""right"",""right"",""left"",""left"",""left"",""left"",""right"",""right"",""right"",""right"",""right"",""left"",""left""]","[0.04709999999408865,0.2297000000029925,0.3962000000029775,0.5085999999940896,0.6629000000060046,0.9102999999970507,1.0620000000000118,1.3124000000059937,1.4767000000030066,1.6465999999940664,1.7912999999970225,2.0120999999940636,2.1789000000059673,2.312200000003031,2.46279999999706,2.9455999999940445,3.1090000000000373,3.242099999994082,3.3437000000030253,3.559500000000014,3.9124000000059596,4.04109999999406,4.16229999999706,4.296000000000049,4.410599999994076,4.542700000002981,4.678700000003005,4.810299999997028,5.161500000000046,5.3272000000030175,5.459500000000048,5.611500000000035,5.760400000005973,5.930400000005989,6.093500000000006,6.292400000006012,6.5810999999940805,6.728900000005979,6.862700000003031,6.9937000000030025,7.5120000000000005,7.662700000002985,7.776799999997024,7.960400000005961,8.46079999999705,8.59520000000299,8.729599999994036,8.842200000003004,8.995900000005975,9.426000000000045,9.607000000000028]",,calibration,With Brainslug Difficult 2 With Money,14,9.7826,9.7855,29,9,0,FALSE,na,na,na,na,,,,,,,,,,,,,,,,,,,,,,,,,,,,,,,,,,0,0,0,0,1,,,,,,,,,,,,,,,,,,,,,,,
,,,,,,,,,,,,665dad37740a458b78ae5c71,001,3,2024-10-09_11h47.58.062,avatar_quest_3AFC_legacy,2022.1.3,MacIntel,61.34969325,665dad37740a458b78ae5c71,62bca317d87d479cda00ba3d,6706a345501df0179e2b95a0,,,,,,,,,,,,,,,,,,,,,,With Brainslug Difficult 2 With Money,12,images/assets/snowy_money.jpg,learning,20,images/assets/success_money.jpg,images/assets/gameover.jpg,,,,,,,,,,,,,0,3,3,2,1,,,,,,,,,,,,,,,,,,,,,,,,,,,,,,,,
,,,,,,,,,,,,665dad37740a458b78ae5c71,001,3,2024-10-09_11h47.58.062,avatar_quest_3AFC_legacy,2022.1.3,MacIntel,61.34969325,665dad37740a458b78ae5c71,62bca317d87d479cda00ba3d,6706a345501df0179e2b95a0,,,,,,,,,,,,,,,,,,,,,,No Brainslug Difficult 2 With Money,12,images/assets/snowy_money.jpg,learning,20,images/assets/success_money.jpg,images/assets/gameover.jpg,,,,,,,,,,,,,0,4,4,7,1,,,,,,,,,,,,,,,,,,,,,,,,,,,,,,,,
,,,,,,,,,,,,665dad37740a458b78ae5c71,001,3,2024-10-09_11h47.58.062,avatar_quest_3AFC_legacy,2022.1.3,MacIntel,61.34969325,665dad37740a458b78ae5c71,62bca317d87d479cda00ba3d,6706a345501df0179e2b95a0,,,,,,,,,,,,,,,,,,,,,,No Brainslug Difficult 2 No Money,12,images/assets/snowy_original.jpg,learning,20,images/assets/success.jpg,images/assets/gameover.jpg,,,,,,,,,,,,,0,5,5,8,1,,,,,,,,,,,,,,,,,,,,,,,,,,,,,,,,
,,,,,,,,,,,,665dad37740a458b78ae5c71,001,3,2024-10-09_11h47.58.062,avatar_quest_3AFC_legacy,2022.1.3,MacIntel,61.34969325,665dad37740a458b78ae5c71,62bca317d87d479cda00ba3d,6706a345501df0179e2b95a0,,,,,,,,,,,,,,,,,,,,,,No Brainslug No Barriers No Money,0,images/assets/snowy_original.jpg,learning,10,images/assets/success.jpg,images/assets/gameover.jpg,,,,,,,,,,,,,0,6,6,10,1,,,,,,,,,,,,,,,,,,,,,,,,,,,,,,,,
,,,,,,,,,,,,665dad37740a458b78ae5c71,001,3,2024-10-09_11h47.58.062,avatar_quest_3AFC_legacy,2022.1.3,MacIntel,61.34969325,665dad37740a458b78ae5c71,62bca317d87d479cda00ba3d,6706a345501df0179e2b95a0,,,,,,,,,,,,,,,,,,,,,,No Brainslug No Barriers With Money,0,images/assets/snowy_money.jpg,learning,10,images/assets/success_money.jpg,images/assets/gameover.jpg,,,,,,,,,,,,,0,7,7,9,1,,,,,,,,,,,,,,,,,,,,,,,,,,,,,,,,
,,,,,,,,,,,,665dad37740a458b78ae5c71,001,3,2024-10-09_11h47.58.062,avatar_quest_3AFC_legacy,2022.1.3,MacIntel,61.34969325,665dad37740a458b78ae5c71,62bca317d87d479cda00ba3d,6706a345501df0179e2b95a0,,,,,,,,,,,,,,,,,,,,,,With Brainslug Difficult 1 No Money,6,images/assets/snowy_original.jpg,learning,20,images/assets/success.jpg,images/assets/gameover.jpg,,,,,,,,,,,,,0,8,8,1,1,,,,,,,,,,,,,,,,,,,,,,,,,,,,,,,,
,,,,,,,,,,,,665dad37740a458b78ae5c71,001,3,2024-10-09_11h47.58.062,avatar_quest_3AFC_legacy,2022.1.3,MacIntel,61.34969325,665dad37740a458b78ae5c71,62bca317d87d479cda00ba3d,6706a345501df0179e2b95a0,,,,,,,,,,,,,,,,,,,,,,With Brainslug No Barriers No Money,0,images/assets/snowy_original.jpg,learning,10,images/assets/success.jpg,images/assets/gameover.jpg,,,,,,,,,,,,,0,9,9,5,1,,,,,,,,,,,,,,,,,,,,,,,,,,,,,,,,
,,,,,,,,,,,,665dad37740a458b78ae5c71,001,3,2024-10-09_11h47.58.062,avatar_quest_3AFC_legacy,2022.1.3,MacIntel,61.34969325,665dad37740a458b78ae5c71,62bca317d87d479cda00ba3d,6706a345501df0179e2b95a0,,,,,,,,,,,,,,,,,,,,,,With Brainslug Difficult 2 No Money,12,images/assets/snowy_original.jpg,learning,20,images/assets/success.jpg,images/assets/gameover.jpg,,,,,,,,,,,,,0,10,10,3,1,,,,,,,,,,,,,,,,,,,,,,,,,,,,,,,,
,,,,,,,,,,,,665dad37740a458b78ae5c71,001,3,2024-10-09_11h47.58.062,avatar_quest_3AFC_legacy,2022.1.3,MacIntel,61.34969325,665dad37740a458b78ae5c71,62bca317d87d479cda00ba3d,6706a345501df0179e2b95a0,,,,,,,,,,,,,,,,,,,,,,,,,,,,,,,,,,,,,,,,,,,,,,,,,,,,,,,10,0,10,0,1,,,,,,,,,,,,,,,,,,
,,,,,,,,,,,,665dad37740a458b78ae5c71,001,3,2024-10-09_11h47.58.062,avatar_quest_3AFC_legacy,2022.1.3,MacIntel,61.34969325,665dad37740a458b78ae5c71,62bca317d87d479cda00ba3d,6706a345501df0179e2b95a0,,,,,,,,,,,,,,,,,,,,,,No Brainslug No Barriers With Money,0,images/assets/snowy_money.jpg,learning,10,images/assets/success_money.jpg,images/assets/gameover.jpg,,,,,,,,With Brainslug Difficult 2 With Money,With Brainslug Difficult 1 No Money,right,0.3724,"[""With Brainslug Difficult 1 No Money"",""With Brainslug Difficult 2 No Money""]",0,0,0,9,1,,,,,,,,,,,,,,,,,,,,,,,,,,,,,,,,
,,,,,,,,,,,,665dad37740a458b78ae5c71,001,3,2024-10-09_11h47.58.062,avatar_quest_3AFC_legacy,2022.1.3,MacIntel,61.34969325,665dad37740a458b78ae5c71,62bca317d87d479cda00ba3d,6706a345501df0179e2b95a0,,,,,,,,,,,,,,,,,,,,,,No Brainslug Difficult 1 No Money,6,images/assets/snowy_original.jpg,learning,20,images/assets/success.jpg,images/assets/gameover.jpg,,,,,,,,,,,,,0,1,1,6,1,,,,,,,,,,,,,,,,,,,,,,,,,,,,,,,,
,,,,,,,,,,,,665dad37740a458b78ae5c71,001,3,2024-10-09_11h47.58.062,avatar_quest_3AFC_legacy,2022.1.3,MacIntel,61.34969325,665dad37740a458b78ae5c71,62bca317d87d479cda00ba3d,6706a345501df0179e2b95a0,,,,,,,,,,,,,,,,,,,,,,No Brainslug Difficult 2 No Money,12,images/assets/snowy_original.jpg,learning,20,images/assets/success.jpg,images/assets/gameover.jpg,,,,,,,,,,,,,0,2,2,8,1,,,,,,,,,,,,,,,,,,,,,,,,,,,,,,,,
,,,,,,,,,,,,665dad37740a458b78ae5c71,001,3,2024-10-09_11h47.58.062,avatar_quest_3AFC_legacy,2022.1.3,MacIntel,61.34969325,665dad37740a458b78ae5c71,62bca317d87d479cda00ba3d,6706a345501df0179e2b95a0,,,,,,,,,,,,,,,,,,,,,,With Brainslug Difficult 2 No Money,12,images/assets/snowy_original.jpg,learning,20,images/assets/success.jpg,images/assets/gameover.jpg,,,,,,,,,,,,,0,3,3,3,1,,,,,,,,,,,,,,,,,,,,,,,,,,,,,,,,
,,,,,,,,,,,,665dad37740a458b78ae5c71,001,3,2024-10-09_11h47.58.062,avatar_quest_3AFC_legacy,2022.1.3,MacIntel,61.34969325,665dad37740a458b78ae5c71,62bca317d87d479cda00ba3d,6706a345501df0179e2b95a0,,,,,,,,,,,,,,,,,,,,,,No Brainslug Difficult 2 With Money,12,images/assets/snowy_money.jpg,learning,20,images/assets/success_money.jpg,images/assets/gameover.jpg,,,,,,,,,,,,,0,4,4,7,1,,,,,,,,,,,,,,,,,,,,,,,,,,,,,,,,
,,,,,,,,,,,,665dad37740a458b78ae5c71,001,3,2024-10-09_11h47.58.062,avatar_quest_3AFC_legacy,2022.1.3,MacIntel,61.34969325,665dad37740a458b78ae5c71,62bca317d87d479cda00ba3d,6706a345501df0179e2b95a0,,,,,,,,,,,,,,,,,,,,,,With Brainslug Difficult 1 With Money,6,images/assets/snowy_money.jpg,learning,20,images/assets/success_money.jpg,images/assets/gameover.jpg,,,,,,,,,,,,,0,5,5,0,1,,,,,,,,,,,,,,,,,,,,,,,,,,,,,,,,
,,,,,,,,,,,,665dad37740a458b78ae5c71,001,3,2024-10-09_11h47.58.062,avatar_quest_3AFC_legacy,2022.1.3,MacIntel,61.34969325,665dad37740a458b78ae5c71,62bca317d87d479cda00ba3d,6706a345501df0179e2b95a0,"[""right"",""right"",""right"",""right"",""right"",""left"",""left"",""left"",""left"",""right"",""right"",""right"",""right"",""right"",""right"",""left"",""left"",""left"",""left"",""left"",""left"",""left"",""right"",""right"",""right"",""right"",""right"",""right"",""right"",""right"",""right"",""right"",""right"",""left"",""left"",""left"",""left"",""right"",""right"",""right"",""right"",""right"",""left"",""left"",""left"",""right"",""right"",""right"",""right"",""left"",""left"",""left"",""left""]","[0.15690000000597593,0.47640000000598093,0.6431000000089284,0.7607000000029984,0.8928000000119027,1.0550000000000068,1.2604000000059727,1.3939000000059423,1.5779999999999745,1.8544999999999732,2.027499999999975,2.1449000000059755,2.3771000000089657,2.561200000002998,2.7258000000119296,2.9457000000030007,3.144300000011924,3.309900000005939,3.4762000000029616,3.7613000000119428,3.8941000000089616,4.010600000008935,4.694400000005942,4.840600000008919,5.093000000000018,5.259300000011933,5.390800000011893,5.527600000008931,5.711000000000013,5.893500000000017,6.043600000008951,6.143800000011936,6.245100000008961,6.544200000003002,6.709900000005973,6.877300000011928,7.062200000002974,7.3263000000119405,7.477800000011939,7.610600000008958,7.7428000000119255,7.873800000011897,8.161600000008946,8.355400000005943,8.524400000005983,8.692100000008963,8.838000000000022,8.95890000000594,9.108400000005986,9.159200000002954,9.342300000011903,9.505700000003003,9.675800000011918]",,calibration,With Brainslug Difficult 2 With Money,15,9.7826,9.7892,21,10,0,FALSE,na,na,na,na,,,,,,,,,,,,,,,,,,,,,,,,,,,,,,,,,,0,0,0,0,1,,,,,,,,,,,,,,,,,,,,,,,
,,,,,,,,,,,,665dad37740a458b78ae5c71,001,3,2024-10-09_11h47.58.062,avatar_quest_3AFC_legacy,2022.1.3,MacIntel,61.34969325,665dad37740a458b78ae5c71,62bca317d87d479cda00ba3d,6706a345501df0179e2b95a0,,,,,,,,,,,,,,,,,,,,,,With Brainslug Difficult 2 With Money,12,images/assets/snowy_money.jpg,learning,20,images/assets/success_money.jpg,images/assets/gameover.jpg,,,,,,,,,,,,,0,6,6,2,1,,,,,,,,,,,,,,,,,,,,,,,,,,,,,,,,
,,,,,,,,,,,,665dad37740a458b78ae5c71,001,3,2024-10-09_11h47.58.062,avatar_quest_3AFC_legacy,2022.1.3,MacIntel,61.34969325,665dad37740a458b78ae5c71,62bca317d87d479cda00ba3d,6706a345501df0179e2b95a0,,,,,,,,,,,,,,,,,,,,,,No Brainslug No Barriers No Money,0,images/assets/snowy_original.jpg,learning,10,images/assets/success.jpg,images/assets/gameover.jpg,,,,,,,,,,,,,0,7,7,10,1,,,,,,,,,,,,,,,,,,,,,,,,,,,,,,,,
,,,,,,,,,,,,665dad37740a458b78ae5c71,001,3,2024-10-09_11h47.58.062,avatar_quest_3AFC_legacy,2022.1.3,MacIntel,61.34969325,665dad37740a458b78ae5c71,62bca317d87d479cda00ba3d,6706a345501df0179e2b95a0,,,,,,,,,,,,,,,,,,,,,,With Brainslug No Barriers No Money,0,images/assets/snowy_original.jpg,learning,10,images/assets/success.jpg,images/assets/gameover.jpg,,,,,,,,,,,,,0,8,8,5,1,,,,,,,,,,,,,,,,,,,,,,,,,,,,,,,,
,,,,,,,,,,,,665dad37740a458b78ae5c71,001,3,2024-10-09_11h47.58.062,avatar_quest_3AFC_legacy,2022.1.3,MacIntel,61.34969325,665dad37740a458b78ae5c71,62bca317d87d479cda00ba3d,6706a345501df0179e2b95a0,,,,,,,,,,,,,,,,,,,,,,With Brainslug No Barriers With Money,0,images/assets/snowy_money.jpg,learning,10,images/assets/success_money.jpg,images/assets/gameover.jpg,,,,,,,,,,,,,0,9,9,4,1,,,,,,,,,,,,,,,,,,,,,,,,,,,,,,,,
,,,,,,,,,,,,665dad37740a458b78ae5c71,001,3,2024-10-09_11h47.58.062,avatar_quest_3AFC_legacy,2022.1.3,MacIntel,61.34969325,665dad37740a458b78ae5c71,62bca317d87d479cda00ba3d,6706a345501df0179e2b95a0,,,,,,,,,,,,,,,,,,,,,,With Brainslug Difficult 1 No Money,6,images/assets/snowy_original.jpg,learning,20,images/assets/success.jpg,images/assets/gameover.jpg,,,,,,,,,,,,,0,10,10,1,1,,,,,,,,,,,,,,,,,,,,,,,,,,,,,,,,
,,,,,,,,,,,,665dad37740a458b78ae5c71,001,3,2024-10-09_11h47.58.062,avatar_quest_3AFC_legacy,2022.1.3,MacIntel,61.34969325,665dad37740a458b78ae5c71,62bca317d87d479cda00ba3d,6706a345501df0179e2b95a0,,,,,,,,,,,,,,,,,,,,,,,,,,,,,,,,,,,,,,,,,,,,,,,,,,,,,,,11,0,11,0,1,,,,,,,,,,,,,,,,,,
,,,,,,,,,,,,665dad37740a458b78ae5c71,001,3,2024-10-09_11h47.58.062,avatar_quest_3AFC_legacy,2022.1.3,MacIntel,61.34969325,665dad37740a458b78ae5c71,62bca317d87d479cda00ba3d,6706a345501df0179e2b95a0,,,,,,,,,,,,,,,,,,,,,,,,,,,,,,,,,,,,,,,,,,,,,,,,,,,,,,,,,,,,0,0,0,0,1,1,With Brainslug Difficult 1 No Money,images/assets/With Brainslug Difficult 1 No Money.png,With Brainslug Difficult 2 No Money,images/assets/With Brainslug Difficult 2 No Money.png,With Brainslug Difficult 2 With Money,images/assets/With Brainslug Difficult 2 With Money.png,Achievement vs. money,,,,,
,,,,,,,,,,,,665dad37740a458b78ae5c71,001,3,2024-10-09_11h47.58.062,avatar_quest_3AFC_legacy,2022.1.3,MacIntel,61.34969325,665dad37740a458b78ae5c71,62bca317d87d479cda00ba3d,6706a345501df0179e2b95a0,,,,,,,,,,,,,,,,,,,,,,With Brainslug Difficult 2 With Money,12,images/assets/snowy_money.jpg,learning,20,images/assets/success_money.jpg,images/assets/gameover.jpg,,,,,,,,No Brainslug No Barriers With Money,No Brainslug No Barriers No Money,right,0.4769,"[""No Brainslug No Barriers No Money"",""No Brainslug Difficult 1 No Money""]",0,0,0,2,1,,,,,,,,,,,,,,,,,,,,,,,,,,,,,,,,
,,,,,,,,,,,,665dad37740a458b78ae5c71,001,3,2024-10-09_11h47.58.062,avatar_quest_3AFC_legacy,2022.1.3,MacIntel,61.34969325,665dad37740a458b78ae5c71,62bca317d87d479cda00ba3d,6706a345501df0179e2b95a0,,,,,,,,,,,,,,,,,,,,,,With Brainslug Difficult 2 No Money,12,images/assets/snowy_original.jpg,learning,20,images/assets/success.jpg,images/assets/gameover.jpg,,,,,,,,,,,,,0,1,1,3,1,,,,,,,,,,,,,,,,,,,,,,,,,,,,,,,,
,,,,,,,,,,,,665dad37740a458b78ae5c71,001,3,2024-10-09_11h47.58.062,avatar_quest_3AFC_legacy,2022.1.3,MacIntel,61.34969325,665dad37740a458b78ae5c71,62bca317d87d479cda00ba3d,6706a345501df0179e2b95a0,,,,,,,,,,,,,,,,,,,,,,No Brainslug No Barriers No Money,0,images/assets/snowy_original.jpg,learning,10,images/assets/success.jpg,images/assets/gameover.jpg,,,,,,,,,,,,,0,2,2,10,1,,,,,,,,,,,,,,,,,,,,,,,,,,,,,,,,
,,,,,,,,,,,,665dad37740a458b78ae5c71,001,3,2024-10-09_11h47.58.062,avatar_quest_3AFC_legacy,2022.1.3,MacIntel,61.34969325,665dad37740a458b78ae5c71,62bca317d87d479cda00ba3d,6706a345501df0179e2b95a0,,,,,,,,,,,,,,,,,,,,,,With Brainslug Difficult 1 With Money,6,images/assets/snowy_money.jpg,learning,20,images/assets/success_money.jpg,images/assets/gameover.jpg,,,,,,,,,,,,,0,3,3,0,1,,,,,,,,,,,,,,,,,,,,,,,,,,,,,,,,
,,,,,,,,,,,,665dad37740a458b78ae5c71,001,3,2024-10-09_11h47.58.062,avatar_quest_3AFC_legacy,2022.1.3,MacIntel,61.34969325,665dad37740a458b78ae5c71,62bca317d87d479cda00ba3d,6706a345501df0179e2b95a0,,,,,,,,,,,,,,,,,,,,,,No Brainslug Difficult 1 No Money,6,images/assets/snowy_original.jpg,learning,20,images/assets/success.jpg,images/assets/gameover.jpg,,,,,,,,,,,,,0,4,4,6,1,,,,,,,,,,,,,,,,,,,,,,,,,,,,,,,,
,,,,,,,,,,,,665dad37740a458b78ae5c71,001,3,2024-10-09_11h47.58.062,avatar_quest_3AFC_legacy,2022.1.3,MacIntel,61.34969325,665dad37740a458b78ae5c71,62bca317d87d479cda00ba3d,6706a345501df0179e2b95a0,,,,,,,,,,,,,,,,,,,,,,No Brainslug Difficult 2 No Money,12,images/assets/snowy_original.jpg,learning,20,images/assets/success.jpg,images/assets/gameover.jpg,,,,,,,,,,,,,0,5,5,8,1,,,,,,,,,,,,,,,,,,,,,,,,,,,,,,,,
,,,,,,,,,,,,665dad37740a458b78ae5c71,001,3,2024-10-09_11h47.58.062,avatar_quest_3AFC_legacy,2022.1.3,MacIntel,61.34969325,665dad37740a458b78ae5c71,62bca317d87d479cda00ba3d,6706a345501df0179e2b95a0,,,,,,,,,,,,,,,,,,,,,,No Brainslug Difficult 2 With Money,12,images/assets/snowy_money.jpg,learning,20,images/assets/success_money.jpg,images/assets/gameover.jpg,,,,,,,,,,,,,0,6,6,7,1,,,,,,,,,,,,,,,,,,,,,,,,,,,,,,,,
,,,,,,,,,,,,665dad37740a458b78ae5c71,001,3,2024-10-09_11h47.58.062,avatar_quest_3AFC_legacy,2022.1.3,MacIntel,61.34969325,665dad37740a458b78ae5c71,62bca317d87d479cda00ba3d,6706a345501df0179e2b95a0,"[""right"",""right"",""left"",""left"",""left"",""left"",""right"",""right"",""right"",""left"",""right"",""right"",""right"",""right"",""left"",""left"",""left"",""left"",""right""]","[0.7922000000029925,0.9807000000029689,1.3777000000029602,1.7654000000059682,2.014499999999998,2.115400000005991,2.8454000000059523,3.442700000002958,3.6252000000029625,3.924500000000023,4.258200000003001,4.974799999997003,5.140799999997,5.4989000000059605,5.974100000008946,6.146799999997029,6.357799999997042,6.556700000002991,6.974600000008934]",,calibration,No Brainslug No Barriers With Money,16,7.82608,7.8342,16,0,114,FALSE,na,na,na,na,,,,,,,,,,,,,,,,,,,,,,,,,,,,,,,,,,0,0,0,0,1,,,,,,,,,,,,,,,,,,,,,,,
,,,,,,,,,,,,665dad37740a458b78ae5c71,001,3,2024-10-09_11h47.58.062,avatar_quest_3AFC_legacy,2022.1.3,MacIntel,61.34969325,665dad37740a458b78ae5c71,62bca317d87d479cda00ba3d,6706a345501df0179e2b95a0,,,,,,,,,,,,,,,,,,,,,,No Brainslug No Barriers With Money,0,images/assets/snowy_money.jpg,learning,10,images/assets/success_money.jpg,images/assets/gameover.jpg,,,,,,,,,,,,,0,7,7,9,1,,,,,,,,,,,,,,,,,,,,,,,,,,,,,,,,
,,,,,,,,,,,,665dad37740a458b78ae5c71,001,3,2024-10-09_11h47.58.062,avatar_quest_3AFC_legacy,2022.1.3,MacIntel,61.34969325,665dad37740a458b78ae5c71,62bca317d87d479cda00ba3d,6706a345501df0179e2b95a0,,,,,,,,,,,,,,,,,,,,,,With Brainslug No Barriers With Money,0,images/assets/snowy_money.jpg,learning,10,images/assets/success_money.jpg,images/assets/gameover.jpg,,,,,,,,,,,,,0,8,8,4,1,,,,,,,,,,,,,,,,,,,,,,,,,,,,,,,,
,,,,,,,,,,,,665dad37740a458b78ae5c71,001,3,2024-10-09_11h47.58.062,avatar_quest_3AFC_legacy,2022.1.3,MacIntel,61.34969325,665dad37740a458b78ae5c71,62bca317d87d479cda00ba3d,6706a345501df0179e2b95a0,,,,,,,,,,,,,,,,,,,,,,With Brainslug Difficult 1 No Money,6,images/assets/snowy_original.jpg,learning,20,images/assets/success.jpg,images/assets/gameover.jpg,,,,,,,,,,,,,0,9,9,1,1,,,,,,,,,,,,,,,,,,,,,,,,,,,,,,,,
,,,,,,,,,,,,665dad37740a458b78ae5c71,001,3,2024-10-09_11h47.58.062,avatar_quest_3AFC_legacy,2022.1.3,MacIntel,61.34969325,665dad37740a458b78ae5c71,62bca317d87d479cda00ba3d,6706a345501df0179e2b95a0,,,,,,,,,,,,,,,,,,,,,,With Brainslug No Barriers No Money,0,images/assets/snowy_original.jpg,learning,10,images/assets/success.jpg,images/assets/gameover.jpg,,,,,,,,,,,,,0,10,10,5,1,,,,,,,,,,,,,,,,,,,,,,,,,,,,,,,,
,,,,,,,,,,,,665dad37740a458b78ae5c71,001,3,2024-10-09_11h47.58.062,avatar_quest_3AFC_legacy,2022.1.3,MacIntel,61.34969325,665dad37740a458b78ae5c71,62bca317d87d479cda00ba3d,6706a345501df0179e2b95a0,,,,,,,,,,,,,,,,,,,,,,,,,,,,,,,,,,,,,,,,,,,,,,,,,,,,,,,0,0,0,0,1,,,,,,,,,,,,,,,,,,
,,,,,,,,,,,,665dad37740a458b78ae5c71,001,3,2024-10-09_11h47.58.062,avatar_quest_3AFC_legacy,2022.1.3,MacIntel,61.34969325,665dad37740a458b78ae5c71,62bca317d87d479cda00ba3d,6706a345501df0179e2b95a0,,,,,,,,,,,,,,,,,,,,,,No Brainslug Difficult 2 With Money,12,images/assets/snowy_money.jpg,learning,20,images/assets/success_money.jpg,images/assets/gameover.jpg,,,,,,,,No Brainslug No Barriers With Money,No Brainslug No Barriers No Money,right,3.0974,"[""No Brainslug No Barriers No Money"",""No Brainslug Difficult 1 No Money""]",0,0,0,7,1,,,,,,,,,,,,,,,,,,,,,,,,,,,,,,,,
,,,,,,,,,,,,665dad37740a458b78ae5c71,001,3,2024-10-09_11h47.58.062,avatar_quest_3AFC_legacy,2022.1.3,MacIntel,61.34969325,665dad37740a458b78ae5c71,62bca317d87d479cda00ba3d,6706a345501df0179e2b95a0,,,,,,,,,,,,,,,,,,,,,,No Brainslug Difficult 1 No Money,6,images/assets/snowy_original.jpg,learning,20,images/assets/success.jpg,images/assets/gameover.jpg,,,,,,,,,,,,,0,1,1,6,1,,,,,,,,,,,,,,,,,,,,,,,,,,,,,,,,
,,,,,,,,,,,,665dad37740a458b78ae5c71,001,3,2024-10-09_11h47.58.062,avatar_quest_3AFC_legacy,2022.1.3,MacIntel,61.34969325,665dad37740a458b78ae5c71,62bca317d87d479cda00ba3d,6706a345501df0179e2b95a0,,,,,,,,,,,,,,,,,,,,,,No Brainslug Difficult 2 No Money,12,images/assets/snowy_original.jpg,learning,20,images/assets/success.jpg,images/assets/gameover.jpg,,,,,,,,,,,,,0,2,2,8,1,,,,,,,,,,,,,,,,,,,,,,,,,,,,,,,,
,,,,,,,,,,,,665dad37740a458b78ae5c71,001,3,2024-10-09_11h47.58.062,avatar_quest_3AFC_legacy,2022.1.3,MacIntel,61.34969325,665dad37740a458b78ae5c71,62bca317d87d479cda00ba3d,6706a345501df0179e2b95a0,"[""right"",""right"",""left"",""left"",""left"",""right"",""right"",""left"",""left"",""right"",""right"",""left""]","[0.5010999999940395,0.6984999999999673,1.4096999999880495,1.9998999999910438,2.167299999996999,3.142499999999984,3.334299999997029,3.910299999996994,4.092899999991062,4.360000000000014,4.532899999991059,5.017899999991073]",,calibration,No Brainslug No Barriers With Money,17,7.82608,6.0829,11,0,35,TRUE,na,na,na,na,,,,,,,,,,,,,,,,,,,,,,,,,,,,,,,,,,0,0,0,0,1,,,,,,,,,,,,,,,,,,,,,,,
,,,,,,,,,,,,665dad37740a458b78ae5c71,001,3,2024-10-09_11h47.58.062,avatar_quest_3AFC_legacy,2022.1.3,MacIntel,61.34969325,665dad37740a458b78ae5c71,62bca317d87d479cda00ba3d,6706a345501df0179e2b95a0,,,,,,,,,,,,,,,,,,,,,,No Brainslug No Barriers With Money,0,images/assets/snowy_money.jpg,learning,10,images/assets/success_money.jpg,images/assets/gameover.jpg,,,,,,,,,,,,,0,3,3,9,1,,,,,,,,,,,,,,,,,,,,,,,,,,,,,,,,
,,,,,,,,,,,,665dad37740a458b78ae5c71,001,3,2024-10-09_11h47.58.062,avatar_quest_3AFC_legacy,2022.1.3,MacIntel,61.34969325,665dad37740a458b78ae5c71,62bca317d87d479cda00ba3d,6706a345501df0179e2b95a0,,,,,,,,,,,,,,,,,,,,,,With Brainslug Difficult 1 No Money,6,images/assets/snowy_original.jpg,learning,20,images/assets/success.jpg,images/assets/gameover.jpg,,,,,,,,,,,,,0,4,4,1,1,,,,,,,,,,,,,,,,,,,,,,,,,,,,,,,,
,,,,,,,,,,,,665dad37740a458b78ae5c71,001,3,2024-10-09_11h47.58.062,avatar_quest_3AFC_legacy,2022.1.3,MacIntel,61.34969325,665dad37740a458b78ae5c71,62bca317d87d479cda00ba3d,6706a345501df0179e2b95a0,,,,,,,,,,,,,,,,,,,,,,With Brainslug No Barriers With Money,0,images/assets/snowy_money.jpg,learning,10,images/assets/success_money.jpg,images/assets/gameover.jpg,,,,,,,,,,,,,0,5,5,4,1,,,,,,,,,,,,,,,,,,,,,,,,,,,,,,,,
,,,,,,,,,,,,665dad37740a458b78ae5c71,001,3,2024-10-09_11h47.58.062,avatar_quest_3AFC_legacy,2022.1.3,MacIntel,61.34969325,665dad37740a458b78ae5c71,62bca317d87d479cda00ba3d,6706a345501df0179e2b95a0,,,,,,,,,,,,,,,,,,,,,,With Brainslug Difficult 2 With Money,12,images/assets/snowy_money.jpg,learning,20,images/assets/success_money.jpg,images/assets/gameover.jpg,,,,,,,,,,,,,0,6,6,2,1,,,,,,,,,,,,,,,,,,,,,,,,,,,,,,,,
,,,,,,,,,,,,665dad37740a458b78ae5c71,001,3,2024-10-09_11h47.58.062,avatar_quest_3AFC_legacy,2022.1.3,MacIntel,61.34969325,665dad37740a458b78ae5c71,62bca317d87d479cda00ba3d,6706a345501df0179e2b95a0,,,,,,,,,,,,,,,,,,,,,,With Brainslug No Barriers No Money,0,images/assets/snowy_original.jpg,learning,10,images/assets/success.jpg,images/assets/gameover.jpg,,,,,,,,,,,,,0,7,7,5,1,,,,,,,,,,,,,,,,,,,,,,,,,,,,,,,,
,,,,,,,,,,,,665dad37740a458b78ae5c71,001,3,2024-10-09_11h47.58.062,avatar_quest_3AFC_legacy,2022.1.3,MacIntel,61.34969325,665dad37740a458b78ae5c71,62bca317d87d479cda00ba3d,6706a345501df0179e2b95a0,,,,,,,,,,,,,,,,,,,,,,With Brainslug Difficult 1 With Money,6,images/assets/snowy_money.jpg,learning,20,images/assets/success_money.jpg,images/assets/gameover.jpg,,,,,,,,,,,,,0,8,8,0,1,,,,,,,,,,,,,,,,,,,,,,,,,,,,,,,,
,,,,,,,,,,,,665dad37740a458b78ae5c71,001,3,2024-10-09_11h47.58.062,avatar_quest_3AFC_legacy,2022.1.3,MacIntel,61.34969325,665dad37740a458b78ae5c71,62bca317d87d479cda00ba3d,6706a345501df0179e2b95a0,,,,,,,,,,,,,,,,,,,,,,With Brainslug Difficult 2 No Money,12,images/assets/snowy_original.jpg,learning,20,images/assets/success.jpg,images/assets/gameover.jpg,,,,,,,,,,,,,0,9,9,3,1,,,,,,,,,,,,,,,,,,,,,,,,,,,,,,,,
,,,,,,,,,,,,665dad37740a458b78ae5c71,001,3,2024-10-09_11h47.58.062,avatar_quest_3AFC_legacy,2022.1.3,MacIntel,61.34969325,665dad37740a458b78ae5c71,62bca317d87d479cda00ba3d,6706a345501df0179e2b95a0,,,,,,,,,,,,,,,,,,,,,,No Brainslug No Barriers No Money,0,images/assets/snowy_original.jpg,learning,10,images/assets/success.jpg,images/assets/gameover.jpg,,,,,,,,,,,,,0,10,10,10,1,,,,,,,,,,,,,,,,,,,,,,,,,,,,,,,,
,,,,,,,,,,,,665dad37740a458b78ae5c71,001,3,2024-10-09_11h47.58.062,avatar_quest_3AFC_legacy,2022.1.3,MacIntel,61.34969325,665dad37740a458b78ae5c71,62bca317d87d479cda00ba3d,6706a345501df0179e2b95a0,,,,,,,,,,,,,,,,,,,,,,,,,,,,,,,,,,,,,,,,,,,,,,,,,,,,,,,1,0,1,0,1,,,,,,,,,,,,,,,,,,
,,,,,,,,,,,,665dad37740a458b78ae5c71,001,3,2024-10-09_11h47.58.062,avatar_quest_3AFC_legacy,2022.1.3,MacIntel,61.34969325,665dad37740a458b78ae5c71,62bca317d87d479cda00ba3d,6706a345501df0179e2b95a0,,,,,,,,,,,,,,,,,,,,,,With Brainslug Difficult 1 With Money,6,images/assets/snowy_money.jpg,learning,20,images/assets/success_money.jpg,images/assets/gameover.jpg,,,,,,,,No Brainslug No Barriers With Money,No Brainslug No Barriers No Money,right,1.2842,"[""No Brainslug No Barriers No Money"",""No Brainslug Difficult 1 No Money""]",0,0,0,0,1,,,,,,,,,,,,,,,,,,,,,,,,,,,,,,,,
,,,,,,,,,,,,665dad37740a458b78ae5c71,001,3,2024-10-09_11h47.58.062,avatar_quest_3AFC_legacy,2022.1.3,MacIntel,61.34969325,665dad37740a458b78ae5c71,62bca317d87d479cda00ba3d,6706a345501df0179e2b95a0,,,,,,,,,,,,,,,,,,,,,,No Brainslug Difficult 2 No Money,12,images/assets/snowy_original.jpg,learning,20,images/assets/success.jpg,images/assets/gameover.jpg,,,,,,,,,,,,,0,1,1,8,1,,,,,,,,,,,,,,,,,,,,,,,,,,,,,,,,
,,,,,,,,,,,,665dad37740a458b78ae5c71,001,3,2024-10-09_11h47.58.062,avatar_quest_3AFC_legacy,2022.1.3,MacIntel,61.34969325,665dad37740a458b78ae5c71,62bca317d87d479cda00ba3d,6706a345501df0179e2b95a0,,,,,,,,,,,,,,,,,,,,,,With Brainslug Difficult 2 With Money,12,images/assets/snowy_money.jpg,learning,20,images/assets/success_money.jpg,images/assets/gameover.jpg,,,,,,,,,,,,,0,2,2,2,1,,,,,,,,,,,,,,,,,,,,,,,,,,,,,,,,
,,,,,,,,,,,,665dad37740a458b78ae5c71,001,3,2024-10-09_11h47.58.062,avatar_quest_3AFC_legacy,2022.1.3,MacIntel,61.34969325,665dad37740a458b78ae5c71,62bca317d87d479cda00ba3d,6706a345501df0179e2b95a0,,,,,,,,,,,,,,,,,,,,,,With Brainslug No Barriers No Money,0,images/assets/snowy_original.jpg,learning,10,images/assets/success.jpg,images/assets/gameover.jpg,,,,,,,,,,,,,0,3,3,5,1,,,,,,,,,,,,,,,,,,,,,,,,,,,,,,,,
,,,,,,,,,,,,665dad37740a458b78ae5c71,001,3,2024-10-09_11h47.58.062,avatar_quest_3AFC_legacy,2022.1.3,MacIntel,61.34969325,665dad37740a458b78ae5c71,62bca317d87d479cda00ba3d,6706a345501df0179e2b95a0,,,,,,,,,,,,,,,,,,,,,,With Brainslug Difficult 2 No Money,12,images/assets/snowy_original.jpg,learning,20,images/assets/success.jpg,images/assets/gameover.jpg,,,,,,,,,,,,,0,4,4,3,1,,,,,,,,,,,,,,,,,,,,,,,,,,,,,,,,
,,,,,,,,,,,,665dad37740a458b78ae5c71,001,3,2024-10-09_11h47.58.062,avatar_quest_3AFC_legacy,2022.1.3,MacIntel,61.34969325,665dad37740a458b78ae5c71,62bca317d87d479cda00ba3d,6706a345501df0179e2b95a0,,,,,,,,,,,,,,,,,,,,,,With Brainslug No Barriers With Money,0,images/assets/snowy_money.jpg,learning,10,images/assets/success_money.jpg,images/assets/gameover.jpg,,,,,,,,,,,,,0,5,5,4,1,,,,,,,,,,,,,,,,,,,,,,,,,,,,,,,,
,,,,,,,,,,,,665dad37740a458b78ae5c71,001,3,2024-10-09_11h47.58.062,avatar_quest_3AFC_legacy,2022.1.3,MacIntel,61.34969325,665dad37740a458b78ae5c71,62bca317d87d479cda00ba3d,6706a345501df0179e2b95a0,,,,,,,,,,,,,,,,,,,,,,No Brainslug Difficult 1 No Money,6,images/assets/snowy_original.jpg,learning,20,images/assets/success.jpg,images/assets/gameover.jpg,,,,,,,,,,,,,0,6,6,6,1,,,,,,,,,,,,,,,,,,,,,,,,,,,,,,,,
