instruction_mouse.x,instruction_mouse.y,instruction_mouse.leftButton,instruction_mouse.midButton,instruction_mouse.rightButton,instruction_mouse.clicked_name,introduce_general.thisRepN,introduce_general.thisTrialN,introduce_general.thisN,introduce_general.thisIndex,introduce_general.ran,thisInstruction,participant,session,game version,date,expName,psychopyVersion,OS,frameRate,PROLIFIC PID,STUDY ID,SESSION ID,move_resp.keys,move_resp.rt,end_resp.keys,phase,condition,trial_num,time_limit,completion_time,left_right_steps,number_of_obsticle_blocks,number_of_tree_blocks,quest_complete,responsivity_summary,av_inter_brainslug_intervals,proportion_jitter,jitter_direction_proportion_right,calibration_phase.thisRepN,calibration_phase.thisTrialN,calibration_phase.thisN,calibration_phase.thisIndex,calibration_phase.ran,BlockLabel,nObsticles,backgroundImage,phaseLabel,n_side_steps,success_im,gameover_im,success_condition,introduce_learning_or_choice.thisRepN,introduce_learning_or_choice.thisTrialN,introduce_learning_or_choice.thisN,introduce_learning_or_choice.thisIndex,introduce_learning_or_choice.ran,choice_resp.keys,chosen_quest,unchosen_quest,choice_resp_3afc.keys,choice_resp_3afc.rt,unchosen_quests,forced_choice_trial.thisRepN,forced_choice_trial.thisTrialN,forced_choice_trial.thisN,forced_choice_trial.thisIndex,forced_choice_trial.ran,enjoyment_slider.response,enjoyment_slider.rt,effort_slider.response,effort_slider.rt,show_loop2.thisRepN,show_loop2.thisTrialN,show_loop2.thisN,show_loop2.thisIndex,show_loop2.ran,trials_per_block.thisRepN,trials_per_block.thisTrialN,trials_per_block.thisN,trials_per_block.thisIndex,trials_per_block.ran,decision_phase_AFC.thisRepN,decision_phase_AFC.thisTrialN,decision_phase_AFC.thisN,decision_phase_AFC.thisIndex,decision_phase_AFC.ran,blockN,BlockLabel1,questIm1,BlockLabel2,questIm2,BlockLabel3,questIm3,quest_condition
0.412037037,-0.398148148,1,0,0,instruction_button,0,0,0,0,1,images/instructions_part1_LSM_taskversion1/Slide1.JPG,66a66d138294ce022ab541fe,001,3,2024-10-09_12h25.15.335,avatar_quest_3AFC_legacy,2022.1.3,Win32,60.0240096,66a66d138294ce022ab541fe,62bca317d87d479cda00ba3d,6706ac6110c47621d1ac73e2,,,,,,,,,,,,,,,,,,,,,,,,,,,,,,,,,,,,,,,,,,,,,,,,,,,,,,,,,,,,,,,,,,,,,,,,
0.412037037,-0.398148148,1,0,0,instruction_button,0,1,1,1,1,images/instructions_part1_LSM_taskversion1/Slide2.JPG,66a66d138294ce022ab541fe,001,3,2024-10-09_12h25.15.335,avatar_quest_3AFC_legacy,2022.1.3,Win32,60.0240096,66a66d138294ce022ab541fe,62bca317d87d479cda00ba3d,6706ac6110c47621d1ac73e2,,,,,,,,,,,,,,,,,,,,,,,,,,,,,,,,,,,,,,,,,,,,,,,,,,,,,,,,,,,,,,,,,,,,,,,,
0.412037037,-0.398148148,1,0,0,instruction_button,0,2,2,2,1,images/instructions_part1_LSM_taskversion1/Slide3.JPG,66a66d138294ce022ab541fe,001,3,2024-10-09_12h25.15.335,avatar_quest_3AFC_legacy,2022.1.3,Win32,60.0240096,66a66d138294ce022ab541fe,62bca317d87d479cda00ba3d,6706ac6110c47621d1ac73e2,,,,,,,,,,,,,,,,,,,,,,,,,,,,,,,,,,,,,,,,,,,,,,,,,,,,,,,,,,,,,,,,,,,,,,,,
0.412037037,-0.398148148,1,0,0,instruction_button,0,3,3,3,1,images/instructions_part1_LSM_taskversion1/Slide3.5.JPG,66a66d138294ce022ab541fe,001,3,2024-10-09_12h25.15.335,avatar_quest_3AFC_legacy,2022.1.3,Win32,60.0240096,66a66d138294ce022ab541fe,62bca317d87d479cda00ba3d,6706ac6110c47621d1ac73e2,,,,,,,,,,,,,,,,,,,,,,,,,,,,,,,,,,,,,,,,,,,,,,,,,,,,,,,,,,,,,,,,,,,,,,,,
0.412037037,-0.398148148,1,0,0,instruction_button,0,4,4,4,1,images/instructions_part1_LSM_taskversion1/Slide4.JPG,66a66d138294ce022ab541fe,001,3,2024-10-09_12h25.15.335,avatar_quest_3AFC_legacy,2022.1.3,Win32,60.0240096,66a66d138294ce022ab541fe,62bca317d87d479cda00ba3d,6706ac6110c47621d1ac73e2,,,,,,,,,,,,,,,,,,,,,,,,,,,,,,,,,,,,,,,,,,,,,,,,,,,,,,,,,,,,,,,,,,,,,,,,
0.412037037,-0.398148148,1,0,0,instruction_button,0,5,5,5,1,images/instructions_part1_LSM_taskversion1/Slide6.5.JPG,66a66d138294ce022ab541fe,001,3,2024-10-09_12h25.15.335,avatar_quest_3AFC_legacy,2022.1.3,Win32,60.0240096,66a66d138294ce022ab541fe,62bca317d87d479cda00ba3d,6706ac6110c47621d1ac73e2,,,,,,,,,,,,,,,,,,,,,,,,,,,,,,,,,,,,,,,,,,,,,,,,,,,,,,,,,,,,,,,,,,,,,,,,
,,,,,,,,,,,,66a66d138294ce022ab541fe,001,3,2024-10-09_12h25.15.335,avatar_quest_3AFC_legacy,2022.1.3,Win32,60.0240096,66a66d138294ce022ab541fe,62bca317d87d479cda00ba3d,6706ac6110c47621d1ac73e2,"[""down"",""left"",""left"",""right"",""right"",""right""]","[2.9439999999999884,3.8759999999999764,4.3870000000000005,5.003999999999991,5.60299999999998,6.151999999999987]",,calibration,No Brainslug No Barriers No Money,1,100,6.493,5,0,66,TRUE,na,na,na,na,0,0,0,1,1,No Brainslug No Barriers No Money,0,images/assets/snowy_original.jpg,calibration,10,images/assets/success.jpg,images/assets/gameover.jpg,never,,,,,,,,,,,,,,,,,,,,,,,,,,,,,,,,,,,,,,,,,,,
,,,,,,,,,,,,66a66d138294ce022ab541fe,001,3,2024-10-09_12h25.15.335,avatar_quest_3AFC_legacy,2022.1.3,Win32,60.0240096,66a66d138294ce022ab541fe,62bca317d87d479cda00ba3d,6706ac6110c47621d1ac73e2,"[""left"",""right"",""right"",""left"",""left"",""left"",""left"",""left"",""left""]","[0.835000000000008,1.1200000000000045,1.445999999999998,2.201999999999998,2.5630000000000166,2.9180000000000064,3.2530000000000143,3.5020000000000095,5.00800000000001]",,calibration,No Brainslug No Barriers No Money,2,100,5.44,7,0,0,TRUE,na,na,na,na,0,1,1,2,1,No Brainslug No Barriers No Money,0,images/assets/snowy_original.jpg,calibration,10,images/assets/success.jpg,images/assets/gameover.jpg,never,,,,,,,,,,,,,,,,,,,,,,,,,,,,,,,,,,,,,,,,,,,
,,,,,,,,,,,,66a66d138294ce022ab541fe,001,3,2024-10-09_12h25.15.335,avatar_quest_3AFC_legacy,2022.1.3,Win32,60.0240096,66a66d138294ce022ab541fe,62bca317d87d479cda00ba3d,6706ac6110c47621d1ac73e2,"[""left"",""right"",""right"",""right"",""right"",""right""]","[8.158000000000015,9.105000000000018,9.487000000000023,9.77200000000002,10.12100000000001,10.38900000000001]",,calibration,No Brainslug No Barriers No Money,3,100,10.445,3,0,313,TRUE,na,na,na,na,0,2,2,0,1,No Brainslug No Barriers No Money,0,images/assets/snowy_original.jpg,calibration,10,images/assets/success.jpg,images/assets/gameover.jpg,never,,,,,,,,,,,,,,,,,,,,,,,,,,,,,,,,,,,,,,,,,,,
0.367989056,-0.411080711,1,0,0,instruction_button,,,,,,images/instructions_part2_LSM_taskversion3.jpg,66a66d138294ce022ab541fe,001,3,2024-10-09_12h25.15.335,avatar_quest_3AFC_legacy,2022.1.3,Win32,60.0240096,66a66d138294ce022ab541fe,62bca317d87d479cda00ba3d,6706ac6110c47621d1ac73e2,,,,,,,,,,,,,,,,,,,,,,,,,,,,,,0,0,0,0,1,,,,,,,,,,,,,,,,,,,,,,,,,,,,,,,,,,,,,,
,,,,,,,,,,,,66a66d138294ce022ab541fe,001,3,2024-10-09_12h25.15.335,avatar_quest_3AFC_legacy,2022.1.3,Win32,60.0240096,66a66d138294ce022ab541fe,62bca317d87d479cda00ba3d,6706ac6110c47621d1ac73e2,,,,,,,,,,,,,,,,,,,,,,No Brainslug No Barriers No Money,0,images/assets/snowy_original.jpg,learning,10,images/assets/success.jpg,images/assets/gameover.jpg,,,,,,,,With Brainslug Difficult 2 With Money,With Brainslug Difficult 1 No Money,right,0.113,"[""With Brainslug Difficult 1 No Money"",""With Brainslug Difficult 2 No Money""]",0,0,0,10,1,,,,,,,,,,,,,,,,,,,,,,,,,,,
,,,,,,,,,,,,66a66d138294ce022ab541fe,001,3,2024-10-09_12h25.15.335,avatar_quest_3AFC_legacy,2022.1.3,Win32,60.0240096,66a66d138294ce022ab541fe,62bca317d87d479cda00ba3d,6706ac6110c47621d1ac73e2,,,,,,,,,,,,,,,,,,,,,,No Brainslug Difficult 2 With Money,12,images/assets/snowy_money.jpg,learning,20,images/assets/success_money.jpg,images/assets/gameover.jpg,,,,,,,,,,,,,0,1,1,7,1,,,,,,,,,,,,,,,,,,,,,,,,,,,
,,,,,,,,,,,,66a66d138294ce022ab541fe,001,3,2024-10-09_12h25.15.335,avatar_quest_3AFC_legacy,2022.1.3,Win32,60.0240096,66a66d138294ce022ab541fe,62bca317d87d479cda00ba3d,6706ac6110c47621d1ac73e2,"[""left"",""right"",""left"",""left"",""left"",""right"",""right"",""left"",""left"",""up""]","[0.9449999999999932,1.5649999999999977,2.8009999999999877,3.3279999999999745,3.8179999999999836,3.899000000000001,4.647999999999968,4.933999999999969,6.339999999999975,7.543999999999983]",,calibration,With Brainslug Difficult 2 With Money,4,11.189,11.194,6,5,0,FALSE,na,na,na,na,,,,,,,,,,,,,,,,,,,,,,,,,,,,,,,,,,0,0,0,0,1,,,,,,,,,,,,,,,,,,
,,,,,,,,,,,,66a66d138294ce022ab541fe,001,3,2024-10-09_12h25.15.335,avatar_quest_3AFC_legacy,2022.1.3,Win32,60.0240096,66a66d138294ce022ab541fe,62bca317d87d479cda00ba3d,6706ac6110c47621d1ac73e2,,,,,,,,,,,,,,,,,,,,,,With Brainslug Difficult 2 With Money,12,images/assets/snowy_money.jpg,learning,20,images/assets/success_money.jpg,images/assets/gameover.jpg,,,,,,,,,,,,,0,2,2,2,1,,,,,,,,,,,,,,,,,,,,,,,,,,,
,,,,,,,,,,,,66a66d138294ce022ab541fe,001,3,2024-10-09_12h25.15.335,avatar_quest_3AFC_legacy,2022.1.3,Win32,60.0240096,66a66d138294ce022ab541fe,62bca317d87d479cda00ba3d,6706ac6110c47621d1ac73e2,,,,,,,,,,,,,,,,,,,,,,With Brainslug Difficult 2 No Money,12,images/assets/snowy_original.jpg,learning,20,images/assets/success.jpg,images/assets/gameover.jpg,,,,,,,,,,,,,0,3,3,3,1,,,,,,,,,,,,,,,,,,,,,,,,,,,
,,,,,,,,,,,,66a66d138294ce022ab541fe,001,3,2024-10-09_12h25.15.335,avatar_quest_3AFC_legacy,2022.1.3,Win32,60.0240096,66a66d138294ce022ab541fe,62bca317d87d479cda00ba3d,6706ac6110c47621d1ac73e2,,,,,,,,,,,,,,,,,,,,,,No Brainslug Difficult 2 No Money,12,images/assets/snowy_original.jpg,learning,20,images/assets/success.jpg,images/assets/gameover.jpg,,,,,,,,,,,,,0,4,4,8,1,,,,,,,,,,,,,,,,,,,,,,,,,,,
,,,,,,,,,,,,66a66d138294ce022ab541fe,001,3,2024-10-09_12h25.15.335,avatar_quest_3AFC_legacy,2022.1.3,Win32,60.0240096,66a66d138294ce022ab541fe,62bca317d87d479cda00ba3d,6706ac6110c47621d1ac73e2,,,,,,,,,,,,,,,,,,,,,,With Brainslug No Barriers No Money,0,images/assets/snowy_original.jpg,learning,10,images/assets/success.jpg,images/assets/gameover.jpg,,,,,,,,,,,,,0,5,5,5,1,,,,,,,,,,,,,,,,,,,,,,,,,,,
,,,,,,,,,,,,66a66d138294ce022ab541fe,001,3,2024-10-09_12h25.15.335,avatar_quest_3AFC_legacy,2022.1.3,Win32,60.0240096,66a66d138294ce022ab541fe,62bca317d87d479cda00ba3d,6706ac6110c47621d1ac73e2,,,,,,,,,,,,,,,,,,,,,,No Brainslug No Barriers With Money,0,images/assets/snowy_money.jpg,learning,10,images/assets/success_money.jpg,images/assets/gameover.jpg,,,,,,,,,,,,,0,6,6,9,1,,,,,,,,,,,,,,,,,,,,,,,,,,,
,,,,,,,,,,,,66a66d138294ce022ab541fe,001,3,2024-10-09_12h25.15.335,avatar_quest_3AFC_legacy,2022.1.3,Win32,60.0240096,66a66d138294ce022ab541fe,62bca317d87d479cda00ba3d,6706ac6110c47621d1ac73e2,,,,,,,,,,,,,,,,,,,,,,With Brainslug No Barriers With Money,0,images/assets/snowy_money.jpg,learning,10,images/assets/success_money.jpg,images/assets/gameover.jpg,,,,,,,,,,,,,0,7,7,4,1,,,,,,,,,,,,,,,,,,,,,,,,,,,
,,,,,,,,,,,,66a66d138294ce022ab541fe,001,3,2024-10-09_12h25.15.335,avatar_quest_3AFC_legacy,2022.1.3,Win32,60.0240096,66a66d138294ce022ab541fe,62bca317d87d479cda00ba3d,6706ac6110c47621d1ac73e2,,,,,,,,,,,,,,,,,,,,,,No Brainslug Difficult 1 No Money,6,images/assets/snowy_original.jpg,learning,20,images/assets/success.jpg,images/assets/gameover.jpg,,,,,,,,,,,,,0,8,8,6,1,,,,,,,,,,,,,,,,,,,,,,,,,,,
,,,,,,,,,,,,66a66d138294ce022ab541fe,001,3,2024-10-09_12h25.15.335,avatar_quest_3AFC_legacy,2022.1.3,Win32,60.0240096,66a66d138294ce022ab541fe,62bca317d87d479cda00ba3d,6706ac6110c47621d1ac73e2,,,,,,,,,,,,,,,,,,,,,,With Brainslug Difficult 1 With Money,6,images/assets/snowy_money.jpg,learning,20,images/assets/success_money.jpg,images/assets/gameover.jpg,,,,,,,,,,,,,0,9,9,0,1,,,,,,,,,,,,,,,,,,,,,,,,,,,
,,,,,,,,,,,,66a66d138294ce022ab541fe,001,3,2024-10-09_12h25.15.335,avatar_quest_3AFC_legacy,2022.1.3,Win32,60.0240096,66a66d138294ce022ab541fe,62bca317d87d479cda00ba3d,6706ac6110c47621d1ac73e2,,,,,,,,,,,,,,,,,,,,,,With Brainslug Difficult 1 No Money,6,images/assets/snowy_original.jpg,learning,20,images/assets/success.jpg,images/assets/gameover.jpg,,,,,,,,,,,,,0,10,10,1,1,,,,,,,,,,,,,,,,,,,,,,,,,,,
,,,,,,,,,,,,66a66d138294ce022ab541fe,001,3,2024-10-09_12h25.15.335,avatar_quest_3AFC_legacy,2022.1.3,Win32,60.0240096,66a66d138294ce022ab541fe,62bca317d87d479cda00ba3d,6706ac6110c47621d1ac73e2,,,,,,,,,,,,,,,,,,,,,,,,,,,,,,,,,,,,,,,,,,,,,,,,,,,,,,,0,0,0,0,1,,,,,,,,,,,,,
,,,,,,,,,,,,66a66d138294ce022ab541fe,001,3,2024-10-09_12h25.15.335,avatar_quest_3AFC_legacy,2022.1.3,Win32,60.0240096,66a66d138294ce022ab541fe,62bca317d87d479cda00ba3d,6706ac6110c47621d1ac73e2,,,,,,,,,,,,,,,,,,,,,,No Brainslug Difficult 2 No Money,12,images/assets/snowy_original.jpg,learning,20,images/assets/success.jpg,images/assets/gameover.jpg,,,,,,,,With Brainslug Difficult 2 With Money,With Brainslug Difficult 1 No Money,right,3.171,"[""With Brainslug Difficult 1 No Money"",""With Brainslug Difficult 2 No Money""]",0,0,0,8,1,,,,,,,,,,,,,,,,,,,,,,,,,,,
,,,,,,,,,,,,66a66d138294ce022ab541fe,001,3,2024-10-09_12h25.15.335,avatar_quest_3AFC_legacy,2022.1.3,Win32,60.0240096,66a66d138294ce022ab541fe,62bca317d87d479cda00ba3d,6706ac6110c47621d1ac73e2,,,,,,,,,,,,,,,,,,,,,,With Brainslug Difficult 2 No Money,12,images/assets/snowy_original.jpg,learning,20,images/assets/success.jpg,images/assets/gameover.jpg,,,,,,,,,,,,,0,1,1,3,1,,,,,,,,,,,,,,,,,,,,,,,,,,,
,,,,,,,,,,,,66a66d138294ce022ab541fe,001,3,2024-10-09_12h25.15.335,avatar_quest_3AFC_legacy,2022.1.3,Win32,60.0240096,66a66d138294ce022ab541fe,62bca317d87d479cda00ba3d,6706ac6110c47621d1ac73e2,"[""up"",""right"",""left""]","[7.161999999999978,7.7409999999999854,9.974999999999966]",,calibration,With Brainslug Difficult 2 With Money,5,11.189,11.191,0,3,0,FALSE,na,na,na,na,,,,,,,,,,,,,,,,,,,,,,,,,,,,,,,,,,0,0,0,0,1,,,,,,,,,,,,,,,,,,
,,,,,,,,,,,,66a66d138294ce022ab541fe,001,3,2024-10-09_12h25.15.335,avatar_quest_3AFC_legacy,2022.1.3,Win32,60.0240096,66a66d138294ce022ab541fe,62bca317d87d479cda00ba3d,6706ac6110c47621d1ac73e2,,,,,,,,,,,,,,,,,,,,,,With Brainslug Difficult 2 With Money,12,images/assets/snowy_money.jpg,learning,20,images/assets/success_money.jpg,images/assets/gameover.jpg,,,,,,,,,,,,,0,2,2,2,1,,,,,,,,,,,,,,,,,,,,,,,,,,,
,,,,,,,,,,,,66a66d138294ce022ab541fe,001,3,2024-10-09_12h25.15.335,avatar_quest_3AFC_legacy,2022.1.3,Win32,60.0240096,66a66d138294ce022ab541fe,62bca317d87d479cda00ba3d,6706ac6110c47621d1ac73e2,,,,,,,,,,,,,,,,,,,,,,With Brainslug No Barriers With Money,0,images/assets/snowy_money.jpg,learning,10,images/assets/success_money.jpg,images/assets/gameover.jpg,,,,,,,,,,,,,0,3,3,4,1,,,,,,,,,,,,,,,,,,,,,,,,,,,
,,,,,,,,,,,,66a66d138294ce022ab541fe,001,3,2024-10-09_12h25.15.335,avatar_quest_3AFC_legacy,2022.1.3,Win32,60.0240096,66a66d138294ce022ab541fe,62bca317d87d479cda00ba3d,6706ac6110c47621d1ac73e2,,,,,,,,,,,,,,,,,,,,,,With Brainslug Difficult 1 No Money,6,images/assets/snowy_original.jpg,learning,20,images/assets/success.jpg,images/assets/gameover.jpg,,,,,,,,,,,,,0,4,4,1,1,,,,,,,,,,,,,,,,,,,,,,,,,,,
,,,,,,,,,,,,66a66d138294ce022ab541fe,001,3,2024-10-09_12h25.15.335,avatar_quest_3AFC_legacy,2022.1.3,Win32,60.0240096,66a66d138294ce022ab541fe,62bca317d87d479cda00ba3d,6706ac6110c47621d1ac73e2,,,,,,,,,,,,,,,,,,,,,,With Brainslug Difficult 1 With Money,6,images/assets/snowy_money.jpg,learning,20,images/assets/success_money.jpg,images/assets/gameover.jpg,,,,,,,,,,,,,0,5,5,0,1,,,,,,,,,,,,,,,,,,,,,,,,,,,
,,,,,,,,,,,,66a66d138294ce022ab541fe,001,3,2024-10-09_12h25.15.335,avatar_quest_3AFC_legacy,2022.1.3,Win32,60.0240096,66a66d138294ce022ab541fe,62bca317d87d479cda00ba3d,6706ac6110c47621d1ac73e2,,,,,,,,,,,,,,,,,,,,,,No Brainslug Difficult 1 No Money,6,images/assets/snowy_original.jpg,learning,20,images/assets/success.jpg,images/assets/gameover.jpg,,,,,,,,,,,,,0,6,6,6,1,,,,,,,,,,,,,,,,,,,,,,,,,,,
,,,,,,,,,,,,66a66d138294ce022ab541fe,001,3,2024-10-09_12h25.15.335,avatar_quest_3AFC_legacy,2022.1.3,Win32,60.0240096,66a66d138294ce022ab541fe,62bca317d87d479cda00ba3d,6706ac6110c47621d1ac73e2,,,,,,,,,,,,,,,,,,,,,,No Brainslug No Barriers With Money,0,images/assets/snowy_money.jpg,learning,10,images/assets/success_money.jpg,images/assets/gameover.jpg,,,,,,,,,,,,,0,7,7,9,1,,,,,,,,,,,,,,,,,,,,,,,,,,,
,,,,,,,,,,,,66a66d138294ce022ab541fe,001,3,2024-10-09_12h25.15.335,avatar_quest_3AFC_legacy,2022.1.3,Win32,60.0240096,66a66d138294ce022ab541fe,62bca317d87d479cda00ba3d,6706ac6110c47621d1ac73e2,,,,,,,,,,,,,,,,,,,,,,No Brainslug Difficult 2 With Money,12,images/assets/snowy_money.jpg,learning,20,images/assets/success_money.jpg,images/assets/gameover.jpg,,,,,,,,,,,,,0,8,8,7,1,,,,,,,,,,,,,,,,,,,,,,,,,,,
,,,,,,,,,,,,66a66d138294ce022ab541fe,001,3,2024-10-09_12h25.15.335,avatar_quest_3AFC_legacy,2022.1.3,Win32,60.0240096,66a66d138294ce022ab541fe,62bca317d87d479cda00ba3d,6706ac6110c47621d1ac73e2,,,,,,,,,,,,,,,,,,,,,,No Brainslug No Barriers No Money,0,images/assets/snowy_original.jpg,learning,10,images/assets/success.jpg,images/assets/gameover.jpg,,,,,,,,,,,,,0,9,9,10,1,,,,,,,,,,,,,,,,,,,,,,,,,,,
,,,,,,,,,,,,66a66d138294ce022ab541fe,001,3,2024-10-09_12h25.15.335,avatar_quest_3AFC_legacy,2022.1.3,Win32,60.0240096,66a66d138294ce022ab541fe,62bca317d87d479cda00ba3d,6706ac6110c47621d1ac73e2,,,,,,,,,,,,,,,,,,,,,,With Brainslug No Barriers No Money,0,images/assets/snowy_original.jpg,learning,10,images/assets/success.jpg,images/assets/gameover.jpg,,,,,,,,,,,,,0,10,10,5,1,,,,,,,,,,,,,,,,,,,,,,,,,,,
,,,,,,,,,,,,66a66d138294ce022ab541fe,001,3,2024-10-09_12h25.15.335,avatar_quest_3AFC_legacy,2022.1.3,Win32,60.0240096,66a66d138294ce022ab541fe,62bca317d87d479cda00ba3d,6706ac6110c47621d1ac73e2,,,,,,,,,,,,,,,,,,,,,,,,,,,,,,,,,,,,,,,,,,,,,,,,,,,,,,,1,0,1,0,1,,,,,,,,,,,,,
,,,,,,,,,,,,66a66d138294ce022ab541fe,001,3,2024-10-09_12h25.15.335,avatar_quest_3AFC_legacy,2022.1.3,Win32,60.0240096,66a66d138294ce022ab541fe,62bca317d87d479cda00ba3d,6706ac6110c47621d1ac73e2,,,,,,,,,,,,,,,,,,,,,,With Brainslug Difficult 1 No Money,6,images/assets/snowy_original.jpg,learning,20,images/assets/success.jpg,images/assets/gameover.jpg,,,,,,,,With Brainslug Difficult 2 No Money,With Brainslug Difficult 1 No Money,down,2.79,"[""With Brainslug Difficult 1 No Money"",""With Brainslug Difficult 2 With Money""]",0,0,0,1,1,,,,,,,,,,,,,,,,,,,,,,,,,,,
,,,,,,,,,,,,66a66d138294ce022ab541fe,001,3,2024-10-09_12h25.15.335,avatar_quest_3AFC_legacy,2022.1.3,Win32,60.0240096,66a66d138294ce022ab541fe,62bca317d87d479cda00ba3d,6706ac6110c47621d1ac73e2,,,,,,,,,,,,,,,,,,,,,,No Brainslug No Barriers With Money,0,images/assets/snowy_money.jpg,learning,10,images/assets/success_money.jpg,images/assets/gameover.jpg,,,,,,,,,,,,,0,1,1,9,1,,,,,,,,,,,,,,,,,,,,,,,,,,,
,,,,,,,,,,,,66a66d138294ce022ab541fe,001,3,2024-10-09_12h25.15.335,avatar_quest_3AFC_legacy,2022.1.3,Win32,60.0240096,66a66d138294ce022ab541fe,62bca317d87d479cda00ba3d,6706ac6110c47621d1ac73e2,,,,,,,,,,,,,,,,,,,,,,With Brainslug Difficult 2 With Money,12,images/assets/snowy_money.jpg,learning,20,images/assets/success_money.jpg,images/assets/gameover.jpg,,,,,,,,,,,,,0,2,2,2,1,,,,,,,,,,,,,,,,,,,,,,,,,,,
,,,,,,,,,,,,66a66d138294ce022ab541fe,001,3,2024-10-09_12h25.15.335,avatar_quest_3AFC_legacy,2022.1.3,Win32,60.0240096,66a66d138294ce022ab541fe,62bca317d87d479cda00ba3d,6706ac6110c47621d1ac73e2,,,,,,,,,,,,,,,,,,,,,,No Brainslug Difficult 2 With Money,12,images/assets/snowy_money.jpg,learning,20,images/assets/success_money.jpg,images/assets/gameover.jpg,,,,,,,,,,,,,0,3,3,7,1,,,,,,,,,,,,,,,,,,,,,,,,,,,
,,,,,,,,,,,,66a66d138294ce022ab541fe,001,3,2024-10-09_12h25.15.335,avatar_quest_3AFC_legacy,2022.1.3,Win32,60.0240096,66a66d138294ce022ab541fe,62bca317d87d479cda00ba3d,6706ac6110c47621d1ac73e2,,,,,,,,,,,,,,,,,,,,,,With Brainslug Difficult 1 With Money,6,images/assets/snowy_money.jpg,learning,20,images/assets/success_money.jpg,images/assets/gameover.jpg,,,,,,,,,,,,,0,4,4,0,1,,,,,,,,,,,,,,,,,,,,,,,,,,,
,,,,,,,,,,,,66a66d138294ce022ab541fe,001,3,2024-10-09_12h25.15.335,avatar_quest_3AFC_legacy,2022.1.3,Win32,60.0240096,66a66d138294ce022ab541fe,62bca317d87d479cda00ba3d,6706ac6110c47621d1ac73e2,,,,,,,,,,,,,,,,,,,,,,No Brainslug Difficult 2 No Money,12,images/assets/snowy_original.jpg,learning,20,images/assets/success.jpg,images/assets/gameover.jpg,,,,,,,,,,,,,0,5,5,8,1,,,,,,,,,,,,,,,,,,,,,,,,,,,
,,,,,,,,,,,,66a66d138294ce022ab541fe,001,3,2024-10-09_12h25.15.335,avatar_quest_3AFC_legacy,2022.1.3,Win32,60.0240096,66a66d138294ce022ab541fe,62bca317d87d479cda00ba3d,6706ac6110c47621d1ac73e2,,,,,,,,,,,,,,,,,,,,,,No Brainslug Difficult 1 No Money,6,images/assets/snowy_original.jpg,learning,20,images/assets/success.jpg,images/assets/gameover.jpg,,,,,,,,,,,,,0,6,6,6,1,,,,,,,,,,,,,,,,,,,,,,,,,,,
,,,,,,,,,,,,66a66d138294ce022ab541fe,001,3,2024-10-09_12h25.15.335,avatar_quest_3AFC_legacy,2022.1.3,Win32,60.0240096,66a66d138294ce022ab541fe,62bca317d87d479cda00ba3d,6706ac6110c47621d1ac73e2,"[""right"",""left"",""right"",""up""]","[0.9080000000000155,1.6090000000000373,6.7830000000000155,9.131000000000029]",,calibration,With Brainslug Difficult 2 No Money,6,11.189,11.212,1,2,0,FALSE,na,na,na,na,,,,,,,,,,,,,,,,,,,,,,,,,,,,,,,,,,0,0,0,0,1,,,,,,,,,,,,,,,,,,
,,,,,,,,,,,,66a66d138294ce022ab541fe,001,3,2024-10-09_12h25.15.335,avatar_quest_3AFC_legacy,2022.1.3,Win32,60.0240096,66a66d138294ce022ab541fe,62bca317d87d479cda00ba3d,6706ac6110c47621d1ac73e2,,,,,,,,,,,,,,,,,,,,,,With Brainslug Difficult 2 No Money,12,images/assets/snowy_original.jpg,learning,20,images/assets/success.jpg,images/assets/gameover.jpg,,,,,,,,,,,,,0,7,7,3,1,,,,,,,,,,,,,,,,,,,,,,,,,,,
,,,,,,,,,,,,66a66d138294ce022ab541fe,001,3,2024-10-09_12h25.15.335,avatar_quest_3AFC_legacy,2022.1.3,Win32,60.0240096,66a66d138294ce022ab541fe,62bca317d87d479cda00ba3d,6706ac6110c47621d1ac73e2,,,,,,,,,,,,,,,,,,,,,,No Brainslug No Barriers No Money,0,images/assets/snowy_original.jpg,learning,10,images/assets/success.jpg,images/assets/gameover.jpg,,,,,,,,,,,,,0,8,8,10,1,,,,,,,,,,,,,,,,,,,,,,,,,,,
,,,,,,,,,,,,66a66d138294ce022ab541fe,001,3,2024-10-09_12h25.15.335,avatar_quest_3AFC_legacy,2022.1.3,Win32,60.0240096,66a66d138294ce022ab541fe,62bca317d87d479cda00ba3d,6706ac6110c47621d1ac73e2,,,,,,,,,,,,,,,,,,,,,,With Brainslug No Barriers With Money,0,images/assets/snowy_money.jpg,learning,10,images/assets/success_money.jpg,images/assets/gameover.jpg,,,,,,,,,,,,,0,9,9,4,1,,,,,,,,,,,,,,,,,,,,,,,,,,,
,,,,,,,,,,,,66a66d138294ce022ab541fe,001,3,2024-10-09_12h25.15.335,avatar_quest_3AFC_legacy,2022.1.3,Win32,60.0240096,66a66d138294ce022ab541fe,62bca317d87d479cda00ba3d,6706ac6110c47621d1ac73e2,,,,,,,,,,,,,,,,,,,,,,With Brainslug No Barriers No Money,0,images/assets/snowy_original.jpg,learning,10,images/assets/success.jpg,images/assets/gameover.jpg,,,,,,,,,,,,,0,10,10,5,1,,,,,,,,,,,,,,,,,,,,,,,,,,,
,,,,,,,,,,,,66a66d138294ce022ab541fe,001,3,2024-10-09_12h25.15.335,avatar_quest_3AFC_legacy,2022.1.3,Win32,60.0240096,66a66d138294ce022ab541fe,62bca317d87d479cda00ba3d,6706ac6110c47621d1ac73e2,,,,,,,,,,,,,,,,,,,,,,,,,,,,,,,,,,,,,,,,,,,,,,,,,,,,,,,2,0,2,0,1,,,,,,,,,,,,,
,,,,,,,,,,,,66a66d138294ce022ab541fe,001,3,2024-10-09_12h25.15.335,avatar_quest_3AFC_legacy,2022.1.3,Win32,60.0240096,66a66d138294ce022ab541fe,62bca317d87d479cda00ba3d,6706ac6110c47621d1ac73e2,,,,,,,,,,,,,,,,,,,,,,No Brainslug No Barriers No Money,0,images/assets/snowy_original.jpg,learning,10,images/assets/success.jpg,images/assets/gameover.jpg,,,,,,,,With Brainslug Difficult 2 No Money,With Brainslug Difficult 1 No Money,down,4.435,"[""With Brainslug Difficult 1 No Money"",""With Brainslug Difficult 2 With Money""]",0,0,0,10,1,,,,,,,,,,,,,,,,,,,,,,,,,,,
,,,,,,,,,,,,66a66d138294ce022ab541fe,001,3,2024-10-09_12h25.15.335,avatar_quest_3AFC_legacy,2022.1.3,Win32,60.0240096,66a66d138294ce022ab541fe,62bca317d87d479cda00ba3d,6706ac6110c47621d1ac73e2,,,,,,,,,,,,,,,,,,,,,,With Brainslug Difficult 2 With Money,12,images/assets/snowy_money.jpg,learning,20,images/assets/success_money.jpg,images/assets/gameover.jpg,,,,,,,,,,,,,0,1,1,2,1,,,,,,,,,,,,,,,,,,,,,,,,,,,
,,,,,,,,,,,,66a66d138294ce022ab541fe,001,3,2024-10-09_12h25.15.335,avatar_quest_3AFC_legacy,2022.1.3,Win32,60.0240096,66a66d138294ce022ab541fe,62bca317d87d479cda00ba3d,6706ac6110c47621d1ac73e2,,,,,,,,,,,,,,,,,,,,,,With Brainslug No Barriers With Money,0,images/assets/snowy_money.jpg,learning,10,images/assets/success_money.jpg,images/assets/gameover.jpg,,,,,,,,,,,,,0,2,2,4,1,,,,,,,,,,,,,,,,,,,,,,,,,,,
,,,,,,,,,,,,66a66d138294ce022ab541fe,001,3,2024-10-09_12h25.15.335,avatar_quest_3AFC_legacy,2022.1.3,Win32,60.0240096,66a66d138294ce022ab541fe,62bca317d87d479cda00ba3d,6706ac6110c47621d1ac73e2,"[""left"",""left"",""left"",""right"",""right"",""right"",""right""]","[5.322999999999979,6.370999999999981,6.872000000000014,8.240999999999985,8.50200000000001,9.329999999999984,9.899999999999977]",,calibration,With Brainslug Difficult 2 No Money,7,11.189,11.195,4,3,0,FALSE,na,na,na,na,,,,,,,,,,,,,,,,,,,,,,,,,,,,,,,,,,0,0,0,0,1,,,,,,,,,,,,,,,,,,
,,,,,,,,,,,,66a66d138294ce022ab541fe,001,3,2024-10-09_12h25.15.335,avatar_quest_3AFC_legacy,2022.1.3,Win32,60.0240096,66a66d138294ce022ab541fe,62bca317d87d479cda00ba3d,6706ac6110c47621d1ac73e2,,,,,,,,,,,,,,,,,,,,,,With Brainslug Difficult 2 No Money,12,images/assets/snowy_original.jpg,learning,20,images/assets/success.jpg,images/assets/gameover.jpg,,,,,,,,,,,,,0,3,3,3,1,,,,,,,,,,,,,,,,,,,,,,,,,,,
,,,,,,,,,,,,66a66d138294ce022ab541fe,001,3,2024-10-09_12h25.15.335,avatar_quest_3AFC_legacy,2022.1.3,Win32,60.0240096,66a66d138294ce022ab541fe,62bca317d87d479cda00ba3d,6706ac6110c47621d1ac73e2,,,,,,,,,,,,,,,,,,,,,,No Brainslug Difficult 1 No Money,6,images/assets/snowy_original.jpg,learning,20,images/assets/success.jpg,images/assets/gameover.jpg,,,,,,,,,,,,,0,4,4,6,1,,,,,,,,,,,,,,,,,,,,,,,,,,,
,,,,,,,,,,,,66a66d138294ce022ab541fe,001,3,2024-10-09_12h25.15.335,avatar_quest_3AFC_legacy,2022.1.3,Win32,60.0240096,66a66d138294ce022ab541fe,62bca317d87d479cda00ba3d,6706ac6110c47621d1ac73e2,,,,,,,,,,,,,,,,,,,,,,With Brainslug Difficult 1 With Money,6,images/assets/snowy_money.jpg,learning,20,images/assets/success_money.jpg,images/assets/gameover.jpg,,,,,,,,,,,,,0,5,5,0,1,,,,,,,,,,,,,,,,,,,,,,,,,,,
,,,,,,,,,,,,66a66d138294ce022ab541fe,001,3,2024-10-09_12h25.15.335,avatar_quest_3AFC_legacy,2022.1.3,Win32,60.0240096,66a66d138294ce022ab541fe,62bca317d87d479cda00ba3d,6706ac6110c47621d1ac73e2,,,,,,,,,,,,,,,,,,,,,,No Brainslug No Barriers With Money,0,images/assets/snowy_money.jpg,learning,10,images/assets/success_money.jpg,images/assets/gameover.jpg,,,,,,,,,,,,,0,6,6,9,1,,,,,,,,,,,,,,,,,,,,,,,,,,,
,,,,,,,,,,,,66a66d138294ce022ab541fe,001,3,2024-10-09_12h25.15.335,avatar_quest_3AFC_legacy,2022.1.3,Win32,60.0240096,66a66d138294ce022ab541fe,62bca317d87d479cda00ba3d,6706ac6110c47621d1ac73e2,,,,,,,,,,,,,,,,,,,,,,With Brainslug Difficult 1 No Money,6,images/assets/snowy_original.jpg,learning,20,images/assets/success.jpg,images/assets/gameover.jpg,,,,,,,,,,,,,0,7,7,1,1,,,,,,,,,,,,,,,,,,,,,,,,,,,
,,,,,,,,,,,,66a66d138294ce022ab541fe,001,3,2024-10-09_12h25.15.335,avatar_quest_3AFC_legacy,2022.1.3,Win32,60.0240096,66a66d138294ce022ab541fe,62bca317d87d479cda00ba3d,6706ac6110c47621d1ac73e2,,,,,,,,,,,,,,,,,,,,,,With Brainslug No Barriers No Money,0,images/assets/snowy_original.jpg,learning,10,images/assets/success.jpg,images/assets/gameover.jpg,,,,,,,,,,,,,0,8,8,5,1,,,,,,,,,,,,,,,,,,,,,,,,,,,
,,,,,,,,,,,,66a66d138294ce022ab541fe,001,3,2024-10-09_12h25.15.335,avatar_quest_3AFC_legacy,2022.1.3,Win32,60.0240096,66a66d138294ce022ab541fe,62bca317d87d479cda00ba3d,6706ac6110c47621d1ac73e2,,,,,,,,,,,,,,,,,,,,,,No Brainslug Difficult 2 With Money,12,images/assets/snowy_money.jpg,learning,20,images/assets/success_money.jpg,images/assets/gameover.jpg,,,,,,,,,,,,,0,9,9,7,1,,,,,,,,,,,,,,,,,,,,,,,,,,,
,,,,,,,,,,,,66a66d138294ce022ab541fe,001,3,2024-10-09_12h25.15.335,avatar_quest_3AFC_legacy,2022.1.3,Win32,60.0240096,66a66d138294ce022ab541fe,62bca317d87d479cda00ba3d,6706ac6110c47621d1ac73e2,,,,,,,,,,,,,,,,,,,,,,No Brainslug Difficult 2 No Money,12,images/assets/snowy_original.jpg,learning,20,images/assets/success.jpg,images/assets/gameover.jpg,,,,,,,,,,,,,0,10,10,8,1,,,,,,,,,,,,,,,,,,,,,,,,,,,
,,,,,,,,,,,,66a66d138294ce022ab541fe,001,3,2024-10-09_12h25.15.335,avatar_quest_3AFC_legacy,2022.1.3,Win32,60.0240096,66a66d138294ce022ab541fe,62bca317d87d479cda00ba3d,6706ac6110c47621d1ac73e2,,,,,,,,,,,,,,,,,,,,,,,,,,,,,,,,,,,,,,,,,,,,,,,,,,,,,,,3,0,3,0,1,,,,,,,,,,,,,
,,,,,,,,,,,,66a66d138294ce022ab541fe,001,3,2024-10-09_12h25.15.335,avatar_quest_3AFC_legacy,2022.1.3,Win32,60.0240096,66a66d138294ce022ab541fe,62bca317d87d479cda00ba3d,6706ac6110c47621d1ac73e2,,,,,,,,,,,,,,,,,,,,,,No Brainslug Difficult 2 With Money,12,images/assets/snowy_money.jpg,learning,20,images/assets/success_money.jpg,images/assets/gameover.jpg,,,,,,,,With Brainslug Difficult 2 With Money,With Brainslug Difficult 1 No Money,right,0.808,"[""With Brainslug Difficult 1 No Money"",""With Brainslug Difficult 2 No Money""]",0,0,0,7,1,,,,,,,,,,,,,,,,,,,,,,,,,,,
,,,,,,,,,,,,66a66d138294ce022ab541fe,001,3,2024-10-09_12h25.15.335,avatar_quest_3AFC_legacy,2022.1.3,Win32,60.0240096,66a66d138294ce022ab541fe,62bca317d87d479cda00ba3d,6706ac6110c47621d1ac73e2,,,,,,,,,,,,,,,,,,,,,,With Brainslug No Barriers No Money,0,images/assets/snowy_original.jpg,learning,10,images/assets/success.jpg,images/assets/gameover.jpg,,,,,,,,,,,,,0,1,1,5,1,,,,,,,,,,,,,,,,,,,,,,,,,,,
,,,,,,,,,,,,66a66d138294ce022ab541fe,001,3,2024-10-09_12h25.15.335,avatar_quest_3AFC_legacy,2022.1.3,Win32,60.0240096,66a66d138294ce022ab541fe,62bca317d87d479cda00ba3d,6706ac6110c47621d1ac73e2,"[""right"",""right"",""right"",""left"",""left"",""left"",""left"",""left"",""right"",""right"",""right"",""right"",""right"",""left"",""up"",""down"",""down""]","[0.0030000000000427463,0.5810000000000173,1.531000000000006,2.0370000000000346,2.455000000000041,2.9260000000000446,4.551000000000045,6.472000000000037,6.703000000000031,7.192000000000007,7.608000000000004,8.251000000000033,8.645000000000039,8.674000000000035,9.765000000000043,10.397000000000048,10.998000000000047]",,calibration,With Brainslug Difficult 2 With Money,8,11.189,11.21,6,1,0,FALSE,na,na,na,na,,,,,,,,,,,,,,,,,,,,,,,,,,,,,,,,,,0,0,0,0,1,,,,,,,,,,,,,,,,,,
,,,,,,,,,,,,66a66d138294ce022ab541fe,001,3,2024-10-09_12h25.15.335,avatar_quest_3AFC_legacy,2022.1.3,Win32,60.0240096,66a66d138294ce022ab541fe,62bca317d87d479cda00ba3d,6706ac6110c47621d1ac73e2,,,,,,,,,,,,,,,,,,,,,,With Brainslug Difficult 2 With Money,12,images/assets/snowy_money.jpg,learning,20,images/assets/success_money.jpg,images/assets/gameover.jpg,,,,,,,,,,,,,0,2,2,2,1,,,,,,,,,,,,,,,,,,,,,,,,,,,
,,,,,,,,,,,,66a66d138294ce022ab541fe,001,3,2024-10-09_12h25.15.335,avatar_quest_3AFC_legacy,2022.1.3,Win32,60.0240096,66a66d138294ce022ab541fe,62bca317d87d479cda00ba3d,6706ac6110c47621d1ac73e2,,,,,,,,,,,,,,,,,,,,,,No Brainslug No Barriers No Money,0,images/assets/snowy_original.jpg,learning,10,images/assets/success.jpg,images/assets/gameover.jpg,,,,,,,,,,,,,0,3,3,10,1,,,,,,,,,,,,,,,,,,,,,,,,,,,
,,,,,,,,,,,,66a66d138294ce022ab541fe,001,3,2024-10-09_12h25.15.335,avatar_quest_3AFC_legacy,2022.1.3,Win32,60.0240096,66a66d138294ce022ab541fe,62bca317d87d479cda00ba3d,6706ac6110c47621d1ac73e2,,,,,,,,,,,,,,,,,,,,,,No Brainslug Difficult 2 No Money,12,images/assets/snowy_original.jpg,learning,20,images/assets/success.jpg,images/assets/gameover.jpg,,,,,,,,,,,,,0,4,4,8,1,,,,,,,,,,,,,,,,,,,,,,,,,,,
,,,,,,,,,,,,66a66d138294ce022ab541fe,001,3,2024-10-09_12h25.15.335,avatar_quest_3AFC_legacy,2022.1.3,Win32,60.0240096,66a66d138294ce022ab541fe,62bca317d87d479cda00ba3d,6706ac6110c47621d1ac73e2,,,,,,,,,,,,,,,,,,,,,,With Brainslug No Barriers With Money,0,images/assets/snowy_money.jpg,learning,10,images/assets/success_money.jpg,images/assets/gameover.jpg,,,,,,,,,,,,,0,5,5,4,1,,,,,,,,,,,,,,,,,,,,,,,,,,,
,,,,,,,,,,,,66a66d138294ce022ab541fe,001,3,2024-10-09_12h25.15.335,avatar_quest_3AFC_legacy,2022.1.3,Win32,60.0240096,66a66d138294ce022ab541fe,62bca317d87d479cda00ba3d,6706ac6110c47621d1ac73e2,,,,,,,,,,,,,,,,,,,,,,No Brainslug Difficult 1 No Money,6,images/assets/snowy_original.jpg,learning,20,images/assets/success.jpg,images/assets/gameover.jpg,,,,,,,,,,,,,0,6,6,6,1,,,,,,,,,,,,,,,,,,,,,,,,,,,
,,,,,,,,,,,,66a66d138294ce022ab541fe,001,3,2024-10-09_12h25.15.335,avatar_quest_3AFC_legacy,2022.1.3,Win32,60.0240096,66a66d138294ce022ab541fe,62bca317d87d479cda00ba3d,6706ac6110c47621d1ac73e2,,,,,,,,,,,,,,,,,,,,,,With Brainslug Difficult 1 No Money,6,images/assets/snowy_original.jpg,learning,20,images/assets/success.jpg,images/assets/gameover.jpg,,,,,,,,,,,,,0,7,7,1,1,,,,,,,,,,,,,,,,,,,,,,,,,,,
,,,,,,,,,,,,66a66d138294ce022ab541fe,001,3,2024-10-09_12h25.15.335,avatar_quest_3AFC_legacy,2022.1.3,Win32,60.0240096,66a66d138294ce022ab541fe,62bca317d87d479cda00ba3d,6706ac6110c47621d1ac73e2,,,,,,,,,,,,,,,,,,,,,,No Brainslug No Barriers With Money,0,images/assets/snowy_money.jpg,learning,10,images/assets/success_money.jpg,images/assets/gameover.jpg,,,,,,,,,,,,,0,8,8,9,1,,,,,,,,,,,,,,,,,,,,,,,,,,,
,,,,,,,,,,,,66a66d138294ce022ab541fe,001,3,2024-10-09_12h25.15.335,avatar_quest_3AFC_legacy,2022.1.3,Win32,60.0240096,66a66d138294ce022ab541fe,62bca317d87d479cda00ba3d,6706ac6110c47621d1ac73e2,,,,,,,,,,,,,,,,,,,,,,With Brainslug Difficult 1 With Money,6,images/assets/snowy_money.jpg,learning,20,images/assets/success_money.jpg,images/assets/gameover.jpg,,,,,,,,,,,,,0,9,9,0,1,,,,,,,,,,,,,,,,,,,,,,,,,,,
,,,,,,,,,,,,66a66d138294ce022ab541fe,001,3,2024-10-09_12h25.15.335,avatar_quest_3AFC_legacy,2022.1.3,Win32,60.0240096,66a66d138294ce022ab541fe,62bca317d87d479cda00ba3d,6706ac6110c47621d1ac73e2,,,,,,,,,,,,,,,,,,,,,,With Brainslug Difficult 2 No Money,12,images/assets/snowy_original.jpg,learning,20,images/assets/success.jpg,images/assets/gameover.jpg,,,,,,,,,,,,,0,10,10,3,1,,,,,,,,,,,,,,,,,,,,,,,,,,,
,,,,,,,,,,,,66a66d138294ce022ab541fe,001,3,2024-10-09_12h25.15.335,avatar_quest_3AFC_legacy,2022.1.3,Win32,60.0240096,66a66d138294ce022ab541fe,62bca317d87d479cda00ba3d,6706ac6110c47621d1ac73e2,,,,,,,,,,,,,,,,,,,,,,,,,,,,,,,,,,,,,,,,,,,,,,,,,,,,,,,4,0,4,0,1,,,,,,,,,,,,,
,,,,,,,,,,,,66a66d138294ce022ab541fe,001,3,2024-10-09_12h25.15.335,avatar_quest_3AFC_legacy,2022.1.3,Win32,60.0240096,66a66d138294ce022ab541fe,62bca317d87d479cda00ba3d,6706ac6110c47621d1ac73e2,,,,,,,,,,,,,,,,,,,,,,With Brainslug No Barriers No Money,0,images/assets/snowy_original.jpg,learning,10,images/assets/success.jpg,images/assets/gameover.jpg,,,,,,,,With Brainslug Difficult 1 No Money,With Brainslug Difficult 1 No Money,left,2.172,"[""With Brainslug Difficult 2 No Money"",""With Brainslug Difficult 2 With Money""]",0,0,0,5,1,,,,,,,,,,,,,,,,,,,,,,,,,,,
,,,,,,,,,,,,66a66d138294ce022ab541fe,001,3,2024-10-09_12h25.15.335,avatar_quest_3AFC_legacy,2022.1.3,Win32,60.0240096,66a66d138294ce022ab541fe,62bca317d87d479cda00ba3d,6706ac6110c47621d1ac73e2,,,,,,,,,,,,,,,,,,,,,,With Brainslug Difficult 2 With Money,12,images/assets/snowy_money.jpg,learning,20,images/assets/success_money.jpg,images/assets/gameover.jpg,,,,,,,,,,,,,0,1,1,2,1,,,,,,,,,,,,,,,,,,,,,,,,,,,
,,,,,,,,,,,,66a66d138294ce022ab541fe,001,3,2024-10-09_12h25.15.335,avatar_quest_3AFC_legacy,2022.1.3,Win32,60.0240096,66a66d138294ce022ab541fe,62bca317d87d479cda00ba3d,6706ac6110c47621d1ac73e2,,,,,,,,,,,,,,,,,,,,,,With Brainslug No Barriers With Money,0,images/assets/snowy_money.jpg,learning,10,images/assets/success_money.jpg,images/assets/gameover.jpg,,,,,,,,,,,,,0,2,2,4,1,,,,,,,,,,,,,,,,,,,,,,,,,,,
,,,,,,,,,,,,66a66d138294ce022ab541fe,001,3,2024-10-09_12h25.15.335,avatar_quest_3AFC_legacy,2022.1.3,Win32,60.0240096,66a66d138294ce022ab541fe,62bca317d87d479cda00ba3d,6706ac6110c47621d1ac73e2,,,,,,,,,,,,,,,,,,,,,,No Brainslug Difficult 2 No Money,12,images/assets/snowy_original.jpg,learning,20,images/assets/success.jpg,images/assets/gameover.jpg,,,,,,,,,,,,,0,3,3,8,1,,,,,,,,,,,,,,,,,,,,,,,,,,,
,,,,,,,,,,,,66a66d138294ce022ab541fe,001,3,2024-10-09_12h25.15.335,avatar_quest_3AFC_legacy,2022.1.3,Win32,60.0240096,66a66d138294ce022ab541fe,62bca317d87d479cda00ba3d,6706ac6110c47621d1ac73e2,,,,,,,,,,,,,,,,,,,,,,With Brainslug Difficult 1 With Money,6,images/assets/snowy_money.jpg,learning,20,images/assets/success_money.jpg,images/assets/gameover.jpg,,,,,,,,,,,,,0,4,4,0,1,,,,,,,,,,,,,,,,,,,,,,,,,,,
,,,,,,,,,,,,66a66d138294ce022ab541fe,001,3,2024-10-09_12h25.15.335,avatar_quest_3AFC_legacy,2022.1.3,Win32,60.0240096,66a66d138294ce022ab541fe,62bca317d87d479cda00ba3d,6706ac6110c47621d1ac73e2,,,,,,,,,,,,,,,,,,,,,,With Brainslug Difficult 2 No Money,12,images/assets/snowy_original.jpg,learning,20,images/assets/success.jpg,images/assets/gameover.jpg,,,,,,,,,,,,,0,5,5,3,1,,,,,,,,,,,,,,,,,,,,,,,,,,,
,,,,,,,,,,,,66a66d138294ce022ab541fe,001,3,2024-10-09_12h25.15.335,avatar_quest_3AFC_legacy,2022.1.3,Win32,60.0240096,66a66d138294ce022ab541fe,62bca317d87d479cda00ba3d,6706ac6110c47621d1ac73e2,"[""right"",""left"",""left"",""left"",""left"",""left"",""right"",""right"",""right"",""right"",""right"",""right""]","[0.5110000000000241,1.6680000000000064,2.2110000000000127,2.923000000000002,3.343999999999994,4.036000000000001,5.776999999999987,6.221000000000004,7.475000000000023,9.33499999999998,10.132000000000005,10.682000000000016]",,calibration,With Brainslug Difficult 1 No Money,9,11.189,11.198,4,2,0,FALSE,na,na,na,na,,,,,,,,,,,,,,,,,,,,,,,,,,,,,,,,,,0,0,0,0,1,,,,,,,,,,,,,,,,,,
,,,,,,,,,,,,66a66d138294ce022ab541fe,001,3,2024-10-09_12h25.15.335,avatar_quest_3AFC_legacy,2022.1.3,Win32,60.0240096,66a66d138294ce022ab541fe,62bca317d87d479cda00ba3d,6706ac6110c47621d1ac73e2,,,,,,,,,,,,,,,,,,,,,,With Brainslug Difficult 1 No Money,6,images/assets/snowy_original.jpg,learning,20,images/assets/success.jpg,images/assets/gameover.jpg,,,,,,,,,,,,,0,6,6,1,1,,,,,,,,,,,,,,,,,,,,,,,,,,,
,,,,,,,,,,,,66a66d138294ce022ab541fe,001,3,2024-10-09_12h25.15.335,avatar_quest_3AFC_legacy,2022.1.3,Win32,60.0240096,66a66d138294ce022ab541fe,62bca317d87d479cda00ba3d,6706ac6110c47621d1ac73e2,,,,,,,,,,,,,,,,,,,,,,No Brainslug Difficult 1 No Money,6,images/assets/snowy_original.jpg,learning,20,images/assets/success.jpg,images/assets/gameover.jpg,,,,,,,,,,,,,0,7,7,6,1,,,,,,,,,,,,,,,,,,,,,,,,,,,
,,,,,,,,,,,,66a66d138294ce022ab541fe,001,3,2024-10-09_12h25.15.335,avatar_quest_3AFC_legacy,2022.1.3,Win32,60.0240096,66a66d138294ce022ab541fe,62bca317d87d479cda00ba3d,6706ac6110c47621d1ac73e2,,,,,,,,,,,,,,,,,,,,,,No Brainslug Difficult 2 With Money,12,images/assets/snowy_money.jpg,learning,20,images/assets/success_money.jpg,images/assets/gameover.jpg,,,,,,,,,,,,,0,8,8,7,1,,,,,,,,,,,,,,,,,,,,,,,,,,,
,,,,,,,,,,,,66a66d138294ce022ab541fe,001,3,2024-10-09_12h25.15.335,avatar_quest_3AFC_legacy,2022.1.3,Win32,60.0240096,66a66d138294ce022ab541fe,62bca317d87d479cda00ba3d,6706ac6110c47621d1ac73e2,,,,,,,,,,,,,,,,,,,,,,No Brainslug No Barriers No Money,0,images/assets/snowy_original.jpg,learning,10,images/assets/success.jpg,images/assets/gameover.jpg,,,,,,,,,,,,,0,9,9,10,1,,,,,,,,,,,,,,,,,,,,,,,,,,,
,,,,,,,,,,,,66a66d138294ce022ab541fe,001,3,2024-10-09_12h25.15.335,avatar_quest_3AFC_legacy,2022.1.3,Win32,60.0240096,66a66d138294ce022ab541fe,62bca317d87d479cda00ba3d,6706ac6110c47621d1ac73e2,,,,,,,,,,,,,,,,,,,,,,No Brainslug No Barriers With Money,0,images/assets/snowy_money.jpg,learning,10,images/assets/success_money.jpg,images/assets/gameover.jpg,,,,,,,,,,,,,0,10,10,9,1,,,,,,,,,,,,,,,,,,,,,,,,,,,
,,,,,,,,,,,,66a66d138294ce022ab541fe,001,3,2024-10-09_12h25.15.335,avatar_quest_3AFC_legacy,2022.1.3,Win32,60.0240096,66a66d138294ce022ab541fe,62bca317d87d479cda00ba3d,6706ac6110c47621d1ac73e2,,,,,,,,,,,,,,,,,,,,,,,,,,,,,,,,,,,,,,,,,,,,,,,,,,,,,,,5,0,5,0,1,,,,,,,,,,,,,
,,,,,,,,,,,,66a66d138294ce022ab541fe,001,3,2024-10-09_12h25.15.335,avatar_quest_3AFC_legacy,2022.1.3,Win32,60.0240096,66a66d138294ce022ab541fe,62bca317d87d479cda00ba3d,6706ac6110c47621d1ac73e2,,,,,,,,,,,,,,,,,,,,,,No Brainslug Difficult 2 With Money,12,images/assets/snowy_money.jpg,learning,20,images/assets/success_money.jpg,images/assets/gameover.jpg,,,,,,,,With Brainslug Difficult 2 With Money,With Brainslug Difficult 1 No Money,right,1.513,"[""With Brainslug Difficult 1 No Money"",""With Brainslug Difficult 2 No Money""]",0,0,0,7,1,,,,,,,,,,,,,,,,,,,,,,,,,,,
,,,,,,,,,,,,66a66d138294ce022ab541fe,001,3,2024-10-09_12h25.15.335,avatar_quest_3AFC_legacy,2022.1.3,Win32,60.0240096,66a66d138294ce022ab541fe,62bca317d87d479cda00ba3d,6706ac6110c47621d1ac73e2,,,,,,,,,,,,,,,,,,,,,,No Brainslug Difficult 1 No Money,6,images/assets/snowy_original.jpg,learning,20,images/assets/success.jpg,images/assets/gameover.jpg,,,,,,,,,,,,,0,1,1,6,1,,,,,,,,,,,,,,,,,,,,,,,,,,,
,,,,,,,,,,,,66a66d138294ce022ab541fe,001,3,2024-10-09_12h25.15.335,avatar_quest_3AFC_legacy,2022.1.3,Win32,60.0240096,66a66d138294ce022ab541fe,62bca317d87d479cda00ba3d,6706ac6110c47621d1ac73e2,,,,,,,,,,,,,,,,,,,,,,No Brainslug No Barriers No Money,0,images/assets/snowy_original.jpg,learning,10,images/assets/success.jpg,images/assets/gameover.jpg,,,,,,,,,,,,,0,2,2,10,1,,,,,,,,,,,,,,,,,,,,,,,,,,,
,,,,,,,,,,,,66a66d138294ce022ab541fe,001,3,2024-10-09_12h25.15.335,avatar_quest_3AFC_legacy,2022.1.3,Win32,60.0240096,66a66d138294ce022ab541fe,62bca317d87d479cda00ba3d,6706ac6110c47621d1ac73e2,,,,,,,,,,,,,,,,,,,,,,With Brainslug Difficult 2 No Money,12,images/assets/snowy_original.jpg,learning,20,images/assets/success.jpg,images/assets/gameover.jpg,,,,,,,,,,,,,0,3,3,3,1,,,,,,,,,,,,,,,,,,,,,,,,,,,
,,,,,,,,,,,,66a66d138294ce022ab541fe,001,3,2024-10-09_12h25.15.335,avatar_quest_3AFC_legacy,2022.1.3,Win32,60.0240096,66a66d138294ce022ab541fe,62bca317d87d479cda00ba3d,6706ac6110c47621d1ac73e2,,,,,,,,,,,,,,,,,,,,,,No Brainslug Difficult 2 No Money,12,images/assets/snowy_original.jpg,learning,20,images/assets/success.jpg,images/assets/gameover.jpg,,,,,,,,,,,,,0,4,4,8,1,,,,,,,,,,,,,,,,,,,,,,,,,,,
,,,,,,,,,,,,66a66d138294ce022ab541fe,001,3,2024-10-09_12h25.15.335,avatar_quest_3AFC_legacy,2022.1.3,Win32,60.0240096,66a66d138294ce022ab541fe,62bca317d87d479cda00ba3d,6706ac6110c47621d1ac73e2,,,,,,,,,,,,,,,,,,,,,,No Brainslug No Barriers With Money,0,images/assets/snowy_money.jpg,learning,10,images/assets/success_money.jpg,images/assets/gameover.jpg,,,,,,,,,,,,,0,5,5,9,1,,,,,,,,,,,,,,,,,,,,,,,,,,,
,,,,,,,,,,,,66a66d138294ce022ab541fe,001,3,2024-10-09_12h25.15.335,avatar_quest_3AFC_legacy,2022.1.3,Win32,60.0240096,66a66d138294ce022ab541fe,62bca317d87d479cda00ba3d,6706ac6110c47621d1ac73e2,,,,,,,,,,,,,,,,,,,,,,With Brainslug No Barriers With Money,0,images/assets/snowy_money.jpg,learning,10,images/assets/success_money.jpg,images/assets/gameover.jpg,,,,,,,,,,,,,0,6,6,4,1,,,,,,,,,,,,,,,,,,,,,,,,,,,
,,,,,,,,,,,,66a66d138294ce022ab541fe,001,3,2024-10-09_12h25.15.335,avatar_quest_3AFC_legacy,2022.1.3,Win32,60.0240096,66a66d138294ce022ab541fe,62bca317d87d479cda00ba3d,6706ac6110c47621d1ac73e2,,,,,,,,,,,,,,,,,,,,,,With Brainslug Difficult 1 No Money,6,images/assets/snowy_original.jpg,learning,20,images/assets/success.jpg,images/assets/gameover.jpg,,,,,,,,,,,,,0,7,7,1,1,,,,,,,,,,,,,,,,,,,,,,,,,,,
,,,,,,,,,,,,66a66d138294ce022ab541fe,001,3,2024-10-09_12h25.15.335,avatar_quest_3AFC_legacy,2022.1.3,Win32,60.0240096,66a66d138294ce022ab541fe,62bca317d87d479cda00ba3d,6706ac6110c47621d1ac73e2,,,,,,,,,,,,,,,,,,,,,,With Brainslug Difficult 1 With Money,6,images/assets/snowy_money.jpg,learning,20,images/assets/success_money.jpg,images/assets/gameover.jpg,,,,,,,,,,,,,0,8,8,0,1,,,,,,,,,,,,,,,,,,,,,,,,,,,
,,,,,,,,,,,,66a66d138294ce022ab541fe,001,3,2024-10-09_12h25.15.335,avatar_quest_3AFC_legacy,2022.1.3,Win32,60.0240096,66a66d138294ce022ab541fe,62bca317d87d479cda00ba3d,6706ac6110c47621d1ac73e2,,,,,,,,,,,,,,,,,,,,,,With Brainslug No Barriers No Money,0,images/assets/snowy_original.jpg,learning,10,images/assets/success.jpg,images/assets/gameover.jpg,,,,,,,,,,,,,0,9,9,5,1,,,,,,,,,,,,,,,,,,,,,,,,,,,
,,,,,,,,,,,,66a66d138294ce022ab541fe,001,3,2024-10-09_12h25.15.335,avatar_quest_3AFC_legacy,2022.1.3,Win32,60.0240096,66a66d138294ce022ab541fe,62bca317d87d479cda00ba3d,6706ac6110c47621d1ac73e2,"[""left"",""right"",""left"",""right"",""left"",""left"",""right"",""left"",""left"",""left""]","[1.6499999999999773,2.9390000000000214,3.954999999999984,4.9080000000000155,5.853000000000009,7.477000000000032,8.615999999999985,9.60899999999998,9.980999999999995,10.858000000000004]",,calibration,With Brainslug Difficult 2 With Money,10,11.189,11.196,6,9,0,FALSE,na,na,na,na,,,,,,,,,,,,,,,,,,,,,,,,,,,,,,,,,,0,0,0,0,1,,,,,,,,,,,,,,,,,,
,,,,,,,,,,,,66a66d138294ce022ab541fe,001,3,2024-10-09_12h25.15.335,avatar_quest_3AFC_legacy,2022.1.3,Win32,60.0240096,66a66d138294ce022ab541fe,62bca317d87d479cda00ba3d,6706ac6110c47621d1ac73e2,,,,,,,,,,,,,,,,,,,,,,With Brainslug Difficult 2 With Money,12,images/assets/snowy_money.jpg,learning,20,images/assets/success_money.jpg,images/assets/gameover.jpg,,,,,,,,,,,,,0,10,10,2,1,,,,,,,,,,,,,,,,,,,,,,,,,,,
,,,,,,,,,,,,66a66d138294ce022ab541fe,001,3,2024-10-09_12h25.15.335,avatar_quest_3AFC_legacy,2022.1.3,Win32,60.0240096,66a66d138294ce022ab541fe,62bca317d87d479cda00ba3d,6706ac6110c47621d1ac73e2,,,,,,,,,,,,,,,,,,,,,,,,,,,,,,,,,,,,,,,,,,,,,,,,,,,,,,,6,0,6,0,1,,,,,,,,,,,,,
,,,,,,,,,,,,66a66d138294ce022ab541fe,001,3,2024-10-09_12h25.15.335,avatar_quest_3AFC_legacy,2022.1.3,Win32,60.0240096,66a66d138294ce022ab541fe,62bca317d87d479cda00ba3d,6706ac6110c47621d1ac73e2,,,,,,,,,,,,,,,,,,,,,,With Brainslug No Barriers With Money,0,images/assets/snowy_money.jpg,learning,10,images/assets/success_money.jpg,images/assets/gameover.jpg,,,,,,,,With Brainslug Difficult 1 No Money,With Brainslug Difficult 1 No Money,left,0.852,"[""With Brainslug Difficult 2 No Money"",""With Brainslug Difficult 2 With Money""]",0,0,0,4,1,,,,,,,,,,,,,,,,,,,,,,,,,,,
,,,,,,,,,,,,66a66d138294ce022ab541fe,001,3,2024-10-09_12h25.15.335,avatar_quest_3AFC_legacy,2022.1.3,Win32,60.0240096,66a66d138294ce022ab541fe,62bca317d87d479cda00ba3d,6706ac6110c47621d1ac73e2,,,,,,,,,,,,,,,,,,,,,,No Brainslug No Barriers No Money,0,images/assets/snowy_original.jpg,learning,10,images/assets/success.jpg,images/assets/gameover.jpg,,,,,,,,,,,,,0,1,1,10,1,,,,,,,,,,,,,,,,,,,,,,,,,,,
,,,,,,,,,,,,66a66d138294ce022ab541fe,001,3,2024-10-09_12h25.15.335,avatar_quest_3AFC_legacy,2022.1.3,Win32,60.0240096,66a66d138294ce022ab541fe,62bca317d87d479cda00ba3d,6706ac6110c47621d1ac73e2,"[""right"",""left"",""left"",""left"",""left"",""right"",""left"",""right"",""right"",""right"",""right"",""right"",""right"",""right"",""right"",""right""]","[0.0030000000000427463,1.0190000000000055,1.9930000000000518,3.2520000000000095,3.958000000000027,5.255000000000052,5.285000000000025,5.948000000000036,6.581000000000017,7.15500000000003,8.30800000000005,8.720000000000027,9.387,9.758000000000038,10.129000000000019,10.856000000000051]",,calibration,With Brainslug Difficult 1 No Money,11,11.189,11.19,8,2,0,FALSE,na,na,na,na,,,,,,,,,,,,,,,,,,,,,,,,,,,,,,,,,,0,0,0,0,1,,,,,,,,,,,,,,,,,,
,,,,,,,,,,,,66a66d138294ce022ab541fe,001,3,2024-10-09_12h25.15.335,avatar_quest_3AFC_legacy,2022.1.3,Win32,60.0240096,66a66d138294ce022ab541fe,62bca317d87d479cda00ba3d,6706ac6110c47621d1ac73e2,,,,,,,,,,,,,,,,,,,,,,With Brainslug Difficult 1 No Money,6,images/assets/snowy_original.jpg,learning,20,images/assets/success.jpg,images/assets/gameover.jpg,,,,,,,,,,,,,0,2,2,1,1,,,,,,,,,,,,,,,,,,,,,,,,,,,
,,,,,,,,,,,,66a66d138294ce022ab541fe,001,3,2024-10-09_12h25.15.335,avatar_quest_3AFC_legacy,2022.1.3,Win32,60.0240096,66a66d138294ce022ab541fe,62bca317d87d479cda00ba3d,6706ac6110c47621d1ac73e2,,,,,,,,,,,,,,,,,,,,,,With Brainslug No Barriers No Money,0,images/assets/snowy_original.jpg,learning,10,images/assets/success.jpg,images/assets/gameover.jpg,,,,,,,,,,,,,0,3,3,5,1,,,,,,,,,,,,,,,,,,,,,,,,,,,
,,,,,,,,,,,,66a66d138294ce022ab541fe,001,3,2024-10-09_12h25.15.335,avatar_quest_3AFC_legacy,2022.1.3,Win32,60.0240096,66a66d138294ce022ab541fe,62bca317d87d479cda00ba3d,6706ac6110c47621d1ac73e2,,,,,,,,,,,,,,,,,,,,,,With Brainslug Difficult 2 No Money,12,images/assets/snowy_original.jpg,learning,20,images/assets/success.jpg,images/assets/gameover.jpg,,,,,,,,,,,,,0,4,4,3,1,,,,,,,,,,,,,,,,,,,,,,,,,,,
,,,,,,,,,,,,66a66d138294ce022ab541fe,001,3,2024-10-09_12h25.15.335,avatar_quest_3AFC_legacy,2022.1.3,Win32,60.0240096,66a66d138294ce022ab541fe,62bca317d87d479cda00ba3d,6706ac6110c47621d1ac73e2,,,,,,,,,,,,,,,,,,,,,,No Brainslug No Barriers With Money,0,images/assets/snowy_money.jpg,learning,10,images/assets/success_money.jpg,images/assets/gameover.jpg,,,,,,,,,,,,,0,5,5,9,1,,,,,,,,,,,,,,,,,,,,,,,,,,,
,,,,,,,,,,,,66a66d138294ce022ab541fe,001,3,2024-10-09_12h25.15.335,avatar_quest_3AFC_legacy,2022.1.3,Win32,60.0240096,66a66d138294ce022ab541fe,62bca317d87d479cda00ba3d,6706ac6110c47621d1ac73e2,,,,,,,,,,,,,,,,,,,,,,With Brainslug Difficult 1 With Money,6,images/assets/snowy_money.jpg,learning,20,images/assets/success_money.jpg,images/assets/gameover.jpg,,,,,,,,,,,,,0,6,6,0,1,,,,,,,,,,,,,,,,,,,,,,,,,,,
,,,,,,,,,,,,66a66d138294ce022ab541fe,001,3,2024-10-09_12h25.15.335,avatar_quest_3AFC_legacy,2022.1.3,Win32,60.0240096,66a66d138294ce022ab541fe,62bca317d87d479cda00ba3d,6706ac6110c47621d1ac73e2,,,,,,,,,,,,,,,,,,,,,,No Brainslug Difficult 1 No Money,6,images/assets/snowy_original.jpg,learning,20,images/assets/success.jpg,images/assets/gameover.jpg,,,,,,,,,,,,,0,7,7,6,1,,,,,,,,,,,,,,,,,,,,,,,,,,,
,,,,,,,,,,,,66a66d138294ce022ab541fe,001,3,2024-10-09_12h25.15.335,avatar_quest_3AFC_legacy,2022.1.3,Win32,60.0240096,66a66d138294ce022ab541fe,62bca317d87d479cda00ba3d,6706ac6110c47621d1ac73e2,,,,,,,,,,,,,,,,,,,,,,With Brainslug Difficult 2 With Money,12,images/assets/snowy_money.jpg,learning,20,images/assets/success_money.jpg,images/assets/gameover.jpg,,,,,,,,,,,,,0,8,8,2,1,,,,,,,,,,,,,,,,,,,,,,,,,,,
,,,,,,,,,,,,66a66d138294ce022ab541fe,001,3,2024-10-09_12h25.15.335,avatar_quest_3AFC_legacy,2022.1.3,Win32,60.0240096,66a66d138294ce022ab541fe,62bca317d87d479cda00ba3d,6706ac6110c47621d1ac73e2,,,,,,,,,,,,,,,,,,,,,,No Brainslug Difficult 2 With Money,12,images/assets/snowy_money.jpg,learning,20,images/assets/success_money.jpg,images/assets/gameover.jpg,,,,,,,,,,,,,0,9,9,7,1,,,,,,,,,,,,,,,,,,,,,,,,,,,
,,,,,,,,,,,,66a66d138294ce022ab541fe,001,3,2024-10-09_12h25.15.335,avatar_quest_3AFC_legacy,2022.1.3,Win32,60.0240096,66a66d138294ce022ab541fe,62bca317d87d479cda00ba3d,6706ac6110c47621d1ac73e2,,,,,,,,,,,,,,,,,,,,,,No Brainslug Difficult 2 No Money,12,images/assets/snowy_original.jpg,learning,20,images/assets/success.jpg,images/assets/gameover.jpg,,,,,,,,,,,,,0,10,10,8,1,,,,,,,,,,,,,,,,,,,,,,,,,,,
,,,,,,,,,,,,66a66d138294ce022ab541fe,001,3,2024-10-09_12h25.15.335,avatar_quest_3AFC_legacy,2022.1.3,Win32,60.0240096,66a66d138294ce022ab541fe,62bca317d87d479cda00ba3d,6706ac6110c47621d1ac73e2,,,,,,,,,,,,,,,,,,,,,,,,,,,,,,,,,,,,,,,,,,,,,,,,,,,,,,,7,0,7,0,1,,,,,,,,,,,,,
,,,,,,,,,,,,66a66d138294ce022ab541fe,001,3,2024-10-09_12h25.15.335,avatar_quest_3AFC_legacy,2022.1.3,Win32,60.0240096,66a66d138294ce022ab541fe,62bca317d87d479cda00ba3d,6706ac6110c47621d1ac73e2,,,,,,,,,,,,,,,,,,,,,,With Brainslug Difficult 1 With Money,6,images/assets/snowy_money.jpg,learning,20,images/assets/success_money.jpg,images/assets/gameover.jpg,,,,,,,,With Brainslug Difficult 2 With Money,With Brainslug Difficult 1 No Money,right,0.702,"[""With Brainslug Difficult 1 No Money"",""With Brainslug Difficult 2 No Money""]",0,0,0,0,1,,,,,,,,,,,,,,,,,,,,,,,,,,,
,,,,,,,,,,,,66a66d138294ce022ab541fe,001,3,2024-10-09_12h25.15.335,avatar_quest_3AFC_legacy,2022.1.3,Win32,60.0240096,66a66d138294ce022ab541fe,62bca317d87d479cda00ba3d,6706ac6110c47621d1ac73e2,,,,,,,,,,,,,,,,,,,,,,No Brainslug Difficult 2 With Money,12,images/assets/snowy_money.jpg,learning,20,images/assets/success_money.jpg,images/assets/gameover.jpg,,,,,,,,,,,,,0,1,1,7,1,,,,,,,,,,,,,,,,,,,,,,,,,,,
,,,,,,,,,,,,66a66d138294ce022ab541fe,001,3,2024-10-09_12h25.15.335,avatar_quest_3AFC_legacy,2022.1.3,Win32,60.0240096,66a66d138294ce022ab541fe,62bca317d87d479cda00ba3d,6706ac6110c47621d1ac73e2,,,,,,,,,,,,,,,,,,,,,,No Brainslug Difficult 1 No Money,6,images/assets/snowy_original.jpg,learning,20,images/assets/success.jpg,images/assets/gameover.jpg,,,,,,,,,,,,,0,2,2,6,1,,,,,,,,,,,,,,,,,,,,,,,,,,,
,,,,,,,,,,,,66a66d138294ce022ab541fe,001,3,2024-10-09_12h25.15.335,avatar_quest_3AFC_legacy,2022.1.3,Win32,60.0240096,66a66d138294ce022ab541fe,62bca317d87d479cda00ba3d,6706ac6110c47621d1ac73e2,,,,,,,,,,,,,,,,,,,,,,With Brainslug No Barriers No Money,0,images/assets/snowy_original.jpg,learning,10,images/assets/success.jpg,images/assets/gameover.jpg,,,,,,,,,,,,,0,3,3,5,1,,,,,,,,,,,,,,,,,,,,,,,,,,,
,,,,,,,,,,,,66a66d138294ce022ab541fe,001,3,2024-10-09_12h25.15.335,avatar_quest_3AFC_legacy,2022.1.3,Win32,60.0240096,66a66d138294ce022ab541fe,62bca317d87d479cda00ba3d,6706ac6110c47621d1ac73e2,,,,,,,,,,,,,,,,,,,,,,With Brainslug Difficult 1 No Money,6,images/assets/snowy_original.jpg,learning,20,images/assets/success.jpg,images/assets/gameover.jpg,,,,,,,,,,,,,0,4,4,1,1,,,,,,,,,,,,,,,,,,,,,,,,,,,
,,,,,,,,,,,,66a66d138294ce022ab541fe,001,3,2024-10-09_12h25.15.335,avatar_quest_3AFC_legacy,2022.1.3,Win32,60.0240096,66a66d138294ce022ab541fe,62bca317d87d479cda00ba3d,6706ac6110c47621d1ac73e2,,,,,,,,,,,,,,,,,,,,,,With Brainslug Difficult 2 No Money,12,images/assets/snowy_original.jpg,learning,20,images/assets/success.jpg,images/assets/gameover.jpg,,,,,,,,,,,,,0,5,5,3,1,,,,,,,,,,,,,,,,,,,,,,,,,,,
,,,,,,,,,,,,66a66d138294ce022ab541fe,001,3,2024-10-09_12h25.15.335,avatar_quest_3AFC_legacy,2022.1.3,Win32,60.0240096,66a66d138294ce022ab541fe,62bca317d87d479cda00ba3d,6706ac6110c47621d1ac73e2,,,,,,,,,,,,,,,,,,,,,,With Brainslug No Barriers With Money,0,images/assets/snowy_money.jpg,learning,10,images/assets/success_money.jpg,images/assets/gameover.jpg,,,,,,,,,,,,,0,6,6,4,1,,,,,,,,,,,,,,,,,,,,,,,,,,,
,,,,,,,,,,,,66a66d138294ce022ab541fe,001,3,2024-10-09_12h25.15.335,avatar_quest_3AFC_legacy,2022.1.3,Win32,60.0240096,66a66d138294ce022ab541fe,62bca317d87d479cda00ba3d,6706ac6110c47621d1ac73e2,"[""left"",""left"",""right"",""right"",""down"",""down""]","[0.44599999999996953,1.450999999999965,2.6709999999999923,5.509999999999991,6.633999999999958,7.763999999999953]",,calibration,With Brainslug Difficult 2 With Money,12,11.189,11.205,1,2,0,FALSE,na,na,na,na,,,,,,,,,,,,,,,,,,,,,,,,,,,,,,,,,,0,0,0,0,1,,,,,,,,,,,,,,,,,,
,,,,,,,,,,,,66a66d138294ce022ab541fe,001,3,2024-10-09_12h25.15.335,avatar_quest_3AFC_legacy,2022.1.3,Win32,60.0240096,66a66d138294ce022ab541fe,62bca317d87d479cda00ba3d,6706ac6110c47621d1ac73e2,,,,,,,,,,,,,,,,,,,,,,With Brainslug Difficult 2 With Money,12,images/assets/snowy_money.jpg,learning,20,images/assets/success_money.jpg,images/assets/gameover.jpg,,,,,,,,,,,,,0,7,7,2,1,,,,,,,,,,,,,,,,,,,,,,,,,,,
,,,,,,,,,,,,66a66d138294ce022ab541fe,001,3,2024-10-09_12h25.15.335,avatar_quest_3AFC_legacy,2022.1.3,Win32,60.0240096,66a66d138294ce022ab541fe,62bca317d87d479cda00ba3d,6706ac6110c47621d1ac73e2,,,,,,,,,,,,,,,,,,,,,,No Brainslug No Barriers No Money,0,images/assets/snowy_original.jpg,learning,10,images/assets/success.jpg,images/assets/gameover.jpg,,,,,,,,,,,,,0,8,8,10,1,,,,,,,,,,,,,,,,,,,,,,,,,,,
,,,,,,,,,,,,66a66d138294ce022ab541fe,001,3,2024-10-09_12h25.15.335,avatar_quest_3AFC_legacy,2022.1.3,Win32,60.0240096,66a66d138294ce022ab541fe,62bca317d87d479cda00ba3d,6706ac6110c47621d1ac73e2,,,,,,,,,,,,,,,,,,,,,,No Brainslug Difficult 2 No Money,12,images/assets/snowy_original.jpg,learning,20,images/assets/success.jpg,images/assets/gameover.jpg,,,,,,,,,,,,,0,9,9,8,1,,,,,,,,,,,,,,,,,,,,,,,,,,,
,,,,,,,,,,,,66a66d138294ce022ab541fe,001,3,2024-10-09_12h25.15.335,avatar_quest_3AFC_legacy,2022.1.3,Win32,60.0240096,66a66d138294ce022ab541fe,62bca317d87d479cda00ba3d,6706ac6110c47621d1ac73e2,,,,,,,,,,,,,,,,,,,,,,No Brainslug No Barriers With Money,0,images/assets/snowy_money.jpg,learning,10,images/assets/success_money.jpg,images/assets/gameover.jpg,,,,,,,,,,,,,0,10,10,9,1,,,,,,,,,,,,,,,,,,,,,,,,,,,
,,,,,,,,,,,,66a66d138294ce022ab541fe,001,3,2024-10-09_12h25.15.335,avatar_quest_3AFC_legacy,2022.1.3,Win32,60.0240096,66a66d138294ce022ab541fe,62bca317d87d479cda00ba3d,6706ac6110c47621d1ac73e2,,,,,,,,,,,,,,,,,,,,,,,,,,,,,,,,,,,,,,,,,,,,,,,,,,,,,,,8,0,8,0,1,,,,,,,,,,,,,
,,,,,,,,,,,,66a66d138294ce022ab541fe,001,3,2024-10-09_12h25.15.335,avatar_quest_3AFC_legacy,2022.1.3,Win32,60.0240096,66a66d138294ce022ab541fe,62bca317d87d479cda00ba3d,6706ac6110c47621d1ac73e2,,,,,,,,,,,,,,,,,,,,,,No Brainslug No Barriers No Money,0,images/assets/snowy_original.jpg,learning,10,images/assets/success.jpg,images/assets/gameover.jpg,,,,,,,,With Brainslug Difficult 2 No Money,With Brainslug Difficult 1 No Money,down,44.284,"[""With Brainslug Difficult 1 No Money"",""With Brainslug Difficult 2 With Money""]",0,0,0,10,1,,,,,,,,,,,,,,,,,,,,,,,,,,,
,,,,,,,,,,,,66a66d138294ce022ab541fe,001,3,2024-10-09_12h25.15.335,avatar_quest_3AFC_legacy,2022.1.3,Win32,60.0240096,66a66d138294ce022ab541fe,62bca317d87d479cda00ba3d,6706ac6110c47621d1ac73e2,,,,,,,,,,,,,,,,,,,,,,With Brainslug Difficult 1 No Money,6,images/assets/snowy_original.jpg,learning,20,images/assets/success.jpg,images/assets/gameover.jpg,,,,,,,,,,,,,0,1,1,1,1,,,,,,,,,,,,,,,,,,,,,,,,,,,
,,,,,,,,,,,,66a66d138294ce022ab541fe,001,3,2024-10-09_12h25.15.335,avatar_quest_3AFC_legacy,2022.1.3,Win32,60.0240096,66a66d138294ce022ab541fe,62bca317d87d479cda00ba3d,6706ac6110c47621d1ac73e2,,,,,,,,,,,,,,,,,,,,,,With Brainslug Difficult 2 With Money,12,images/assets/snowy_money.jpg,learning,20,images/assets/success_money.jpg,images/assets/gameover.jpg,,,,,,,,,,,,,0,2,2,2,1,,,,,,,,,,,,,,,,,,,,,,,,,,,
,,,,,,,,,,,,66a66d138294ce022ab541fe,001,3,2024-10-09_12h25.15.335,avatar_quest_3AFC_legacy,2022.1.3,Win32,60.0240096,66a66d138294ce022ab541fe,62bca317d87d479cda00ba3d,6706ac6110c47621d1ac73e2,,,,,,,,,,,,,,,,,,,,,,No Brainslug Difficult 2 With Money,12,images/assets/snowy_money.jpg,learning,20,images/assets/success_money.jpg,images/assets/gameover.jpg,,,,,,,,,,,,,0,3,3,7,1,,,,,,,,,,,,,,,,,,,,,,,,,,,
,,,,,,,,,,,,66a66d138294ce022ab541fe,001,3,2024-10-09_12h25.15.335,avatar_quest_3AFC_legacy,2022.1.3,Win32,60.0240096,66a66d138294ce022ab541fe,62bca317d87d479cda00ba3d,6706ac6110c47621d1ac73e2,,,,,,,,,,,,,,,,,,,,,,With Brainslug No Barriers No Money,0,images/assets/snowy_original.jpg,learning,10,images/assets/success.jpg,images/assets/gameover.jpg,,,,,,,,,,,,,0,4,4,5,1,,,,,,,,,,,,,,,,,,,,,,,,,,,
,,,,,,,,,,,,66a66d138294ce022ab541fe,001,3,2024-10-09_12h25.15.335,avatar_quest_3AFC_legacy,2022.1.3,Win32,60.0240096,66a66d138294ce022ab541fe,62bca317d87d479cda00ba3d,6706ac6110c47621d1ac73e2,,,,,,,,,,,,,,,,,,,,,,With Brainslug No Barriers With Money,0,images/assets/snowy_money.jpg,learning,10,images/assets/success_money.jpg,images/assets/gameover.jpg,,,,,,,,,,,,,0,5,5,4,1,,,,,,,,,,,,,,,,,,,,,,,,,,,
,,,,,,,,,,,,66a66d138294ce022ab541fe,001,3,2024-10-09_12h25.15.335,avatar_quest_3AFC_legacy,2022.1.3,Win32,60.0240096,66a66d138294ce022ab541fe,62bca317d87d479cda00ba3d,6706ac6110c47621d1ac73e2,,,,,,,,,,,,,,,,,,,,,,No Brainslug No Barriers With Money,0,images/assets/snowy_money.jpg,learning,10,images/assets/success_money.jpg,images/assets/gameover.jpg,,,,,,,,,,,,,0,6,6,9,1,,,,,,,,,,,,,,,,,,,,,,,,,,,
,,,,,,,,,,,,66a66d138294ce022ab541fe,001,3,2024-10-09_12h25.15.335,avatar_quest_3AFC_legacy,2022.1.3,Win32,60.0240096,66a66d138294ce022ab541fe,62bca317d87d479cda00ba3d,6706ac6110c47621d1ac73e2,,,,,,,,,,,,,,,,,,,,,,No Brainslug Difficult 1 No Money,6,images/assets/snowy_original.jpg,learning,20,images/assets/success.jpg,images/assets/gameover.jpg,,,,,,,,,,,,,0,7,7,6,1,,,,,,,,,,,,,,,,,,,,,,,,,,,
,,,,,,,,,,,,66a66d138294ce022ab541fe,001,3,2024-10-09_12h25.15.335,avatar_quest_3AFC_legacy,2022.1.3,Win32,60.0240096,66a66d138294ce022ab541fe,62bca317d87d479cda00ba3d,6706ac6110c47621d1ac73e2,,,,,,,,,,,,,,,,,,,,,,With Brainslug Difficult 1 With Money,6,images/assets/snowy_money.jpg,learning,20,images/assets/success_money.jpg,images/assets/gameover.jpg,,,,,,,,,,,,,0,8,8,0,1,,,,,,,,,,,,,,,,,,,,,,,,,,,
,,,,,,,,,,,,66a66d138294ce022ab541fe,001,3,2024-10-09_12h25.15.335,avatar_quest_3AFC_legacy,2022.1.3,Win32,60.0240096,66a66d138294ce022ab541fe,62bca317d87d479cda00ba3d,6706ac6110c47621d1ac73e2,,,,,,,,,,,,,,,,,,,,,,No Brainslug Difficult 2 No Money,12,images/assets/snowy_original.jpg,learning,20,images/assets/success.jpg,images/assets/gameover.jpg,,,,,,,,,,,,,0,9,9,8,1,,,,,,,,,,,,,,,,,,,,,,,,,,,
,,,,,,,,,,,,66a66d138294ce022ab541fe,001,3,2024-10-09_12h25.15.335,avatar_quest_3AFC_legacy,2022.1.3,Win32,60.0240096,66a66d138294ce022ab541fe,62bca317d87d479cda00ba3d,6706ac6110c47621d1ac73e2,"[""left"",""up"",""down"",""right""]","[4.988999999999976,9.111999999999966,9.722999999999956,10.59699999999998]",,calibration,With Brainslug Difficult 2 No Money,13,11.189,11.195,0,1,0,FALSE,na,na,na,na,,,,,,,,,,,,,,,,,,,,,,,,,,,,,,,,,,0,0,0,0,1,,,,,,,,,,,,,,,,,,
,,,,,,,,,,,,66a66d138294ce022ab541fe,001,3,2024-10-09_12h25.15.335,avatar_quest_3AFC_legacy,2022.1.3,Win32,60.0240096,66a66d138294ce022ab541fe,62bca317d87d479cda00ba3d,6706ac6110c47621d1ac73e2,,,,,,,,,,,,,,,,,,,,,,With Brainslug Difficult 2 No Money,12,images/assets/snowy_original.jpg,learning,20,images/assets/success.jpg,images/assets/gameover.jpg,,,,,,,,,,,,,0,10,10,3,1,,,,,,,,,,,,,,,,,,,,,,,,,,,
,,,,,,,,,,,,66a66d138294ce022ab541fe,001,3,2024-10-09_12h25.15.335,avatar_quest_3AFC_legacy,2022.1.3,Win32,60.0240096,66a66d138294ce022ab541fe,62bca317d87d479cda00ba3d,6706ac6110c47621d1ac73e2,,,,,,,,,,,,,,,,,,,,,,,,,,,,,,,,,,,,,,,,,,,,,,,,,,,,,,,9,0,9,0,1,,,,,,,,,,,,,
,,,,,,,,,,,,66a66d138294ce022ab541fe,001,3,2024-10-09_12h25.15.335,avatar_quest_3AFC_legacy,2022.1.3,Win32,60.0240096,66a66d138294ce022ab541fe,62bca317d87d479cda00ba3d,6706ac6110c47621d1ac73e2,,,,,,,,,,,,,,,,,,,,,,No Brainslug Difficult 1 No Money,6,images/assets/snowy_original.jpg,learning,20,images/assets/success.jpg,images/assets/gameover.jpg,,,,,,,,With Brainslug Difficult 1 No Money,With Brainslug Difficult 1 No Money,left,0.567,"[""With Brainslug Difficult 2 No Money"",""With Brainslug Difficult 2 With Money""]",0,0,0,6,1,,,,,,,,,,,,,,,,,,,,,,,,,,,
,,,,,,,,,,,,66a66d138294ce022ab541fe,001,3,2024-10-09_12h25.15.335,avatar_quest_3AFC_legacy,2022.1.3,Win32,60.0240096,66a66d138294ce022ab541fe,62bca317d87d479cda00ba3d,6706ac6110c47621d1ac73e2,,,,,,,,,,,,,,,,,,,,,,With Brainslug Difficult 1 With Money,6,images/assets/snowy_money.jpg,learning,20,images/assets/success_money.jpg,images/assets/gameover.jpg,,,,,,,,,,,,,0,1,1,0,1,,,,,,,,,,,,,,,,,,,,,,,,,,,
,,,,,,,,,,,,66a66d138294ce022ab541fe,001,3,2024-10-09_12h25.15.335,avatar_quest_3AFC_legacy,2022.1.3,Win32,60.0240096,66a66d138294ce022ab541fe,62bca317d87d479cda00ba3d,6706ac6110c47621d1ac73e2,,,,,,,,,,,,,,,,,,,,,,With Brainslug Difficult 2 No Money,12,images/assets/snowy_original.jpg,learning,20,images/assets/success.jpg,images/assets/gameover.jpg,,,,,,,,,,,,,0,2,2,3,1,,,,,,,,,,,,,,,,,,,,,,,,,,,
,,,,,,,,,,,,66a66d138294ce022ab541fe,001,3,2024-10-09_12h25.15.335,avatar_quest_3AFC_legacy,2022.1.3,Win32,60.0240096,66a66d138294ce022ab541fe,62bca317d87d479cda00ba3d,6706ac6110c47621d1ac73e2,,,,,,,,,,,,,,,,,,,,,,No Brainslug Difficult 2 With Money,12,images/assets/snowy_money.jpg,learning,20,images/assets/success_money.jpg,images/assets/gameover.jpg,,,,,,,,,,,,,0,3,3,7,1,,,,,,,,,,,,,,,,,,,,,,,,,,,
,,,,,,,,,,,,66a66d138294ce022ab541fe,001,3,2024-10-09_12h25.15.335,avatar_quest_3AFC_legacy,2022.1.3,Win32,60.0240096,66a66d138294ce022ab541fe,62bca317d87d479cda00ba3d,6706ac6110c47621d1ac73e2,,,,,,,,,,,,,,,,,,,,,,No Brainslug Difficult 2 No Money,12,images/assets/snowy_original.jpg,learning,20,images/assets/success.jpg,images/assets/gameover.jpg,,,,,,,,,,,,,0,4,4,8,1,,,,,,,,,,,,,,,,,,,,,,,,,,,
,,,,,,,,,,,,66a66d138294ce022ab541fe,001,3,2024-10-09_12h25.15.335,avatar_quest_3AFC_legacy,2022.1.3,Win32,60.0240096,66a66d138294ce022ab541fe,62bca317d87d479cda00ba3d,6706ac6110c47621d1ac73e2,"[""left"",""right"",""left"",""left"",""right"",""right"",""left""]","[0.8670000000000186,1.670000000000016,2.4639999999999986,3.0740000000000123,3.7479999999999905,4.480000000000018,5.242999999999995]",,calibration,With Brainslug Difficult 1 No Money,14,11.189,6.193,5,1,0,TRUE,na,na,na,na,,,,,,,,,,,,,,,,,,,,,,,,,,,,,,,,,,0,0,0,0,1,,,,,,,,,,,,,,,,,,
,,,,,,,,,,,,66a66d138294ce022ab541fe,001,3,2024-10-09_12h25.15.335,avatar_quest_3AFC_legacy,2022.1.3,Win32,60.0240096,66a66d138294ce022ab541fe,62bca317d87d479cda00ba3d,6706ac6110c47621d1ac73e2,,,,,,,,,,,,,,,,,,,,,,With Brainslug Difficult 1 No Money,6,images/assets/snowy_original.jpg,learning,20,images/assets/success.jpg,images/assets/gameover.jpg,,,,,,,,,,,,,0,5,5,1,1,,,,,,,,,,,,,,,,,,,,,,,,,,,
,,,,,,,,,,,,66a66d138294ce022ab541fe,001,3,2024-10-09_12h25.15.335,avatar_quest_3AFC_legacy,2022.1.3,Win32,60.0240096,66a66d138294ce022ab541fe,62bca317d87d479cda00ba3d,6706ac6110c47621d1ac73e2,,,,,,,,,,,,,,,,,,,,,,With Brainslug No Barriers With Money,0,images/assets/snowy_money.jpg,learning,10,images/assets/success_money.jpg,images/assets/gameover.jpg,,,,,,,,,,,,,0,6,6,4,1,,,,,,,,,,,,,,,,,,,,,,,,,,,
,,,,,,,,,,,,66a66d138294ce022ab541fe,001,3,2024-10-09_12h25.15.335,avatar_quest_3AFC_legacy,2022.1.3,Win32,60.0240096,66a66d138294ce022ab541fe,62bca317d87d479cda00ba3d,6706ac6110c47621d1ac73e2,,,,,,,,,,,,,,,,,,,,,,No Brainslug No Barriers No Money,0,images/assets/snowy_original.jpg,learning,10,images/assets/success.jpg,images/assets/gameover.jpg,,,,,,,,,,,,,0,7,7,10,1,,,,,,,,,,,,,,,,,,,,,,,,,,,
,,,,,,,,,,,,66a66d138294ce022ab541fe,001,3,2024-10-09_12h25.15.335,avatar_quest_3AFC_legacy,2022.1.3,Win32,60.0240096,66a66d138294ce022ab541fe,62bca317d87d479cda00ba3d,6706ac6110c47621d1ac73e2,,,,,,,,,,,,,,,,,,,,,,With Brainslug No Barriers No Money,0,images/assets/snowy_original.jpg,learning,10,images/assets/success.jpg,images/assets/gameover.jpg,,,,,,,,,,,,,0,8,8,5,1,,,,,,,,,,,,,,,,,,,,,,,,,,,
,,,,,,,,,,,,66a66d138294ce022ab541fe,001,3,2024-10-09_12h25.15.335,avatar_quest_3AFC_legacy,2022.1.3,Win32,60.0240096,66a66d138294ce022ab541fe,62bca317d87d479cda00ba3d,6706ac6110c47621d1ac73e2,,,,,,,,,,,,,,,,,,,,,,With Brainslug Difficult 2 With Money,12,images/assets/snowy_money.jpg,learning,20,images/assets/success_money.jpg,images/assets/gameover.jpg,,,,,,,,,,,,,0,9,9,2,1,,,,,,,,,,,,,,,,,,,,,,,,,,,
,,,,,,,,,,,,66a66d138294ce022ab541fe,001,3,2024-10-09_12h25.15.335,avatar_quest_3AFC_legacy,2022.1.3,Win32,60.0240096,66a66d138294ce022ab541fe,62bca317d87d479cda00ba3d,6706ac6110c47621d1ac73e2,,,,,,,,,,,,,,,,,,,,,,No Brainslug No Barriers With Money,0,images/assets/snowy_money.jpg,learning,10,images/assets/success_money.jpg,images/assets/gameover.jpg,,,,,,,,,,,,,0,10,10,9,1,,,,,,,,,,,,,,,,,,,,,,,,,,,
,,,,,,,,,,,,66a66d138294ce022ab541fe,001,3,2024-10-09_12h25.15.335,avatar_quest_3AFC_legacy,2022.1.3,Win32,60.0240096,66a66d138294ce022ab541fe,62bca317d87d479cda00ba3d,6706ac6110c47621d1ac73e2,,,,,,,,,,,,,,,,,,,,,,,,,,,,,,,,,,,,,,,,,,,,,,,,,,,,,,,10,0,10,0,1,,,,,,,,,,,,,
,,,,,,,,,,,,66a66d138294ce022ab541fe,001,3,2024-10-09_12h25.15.335,avatar_quest_3AFC_legacy,2022.1.3,Win32,60.0240096,66a66d138294ce022ab541fe,62bca317d87d479cda00ba3d,6706ac6110c47621d1ac73e2,,,,,,,,,,,,,,,,,,,,,,With Brainslug No Barriers No Money,0,images/assets/snowy_original.jpg,learning,10,images/assets/success.jpg,images/assets/gameover.jpg,,,,,,,,With Brainslug Difficult 2 With Money,With Brainslug Difficult 1 No Money,right,2.94,"[""With Brainslug Difficult 1 No Money"",""With Brainslug Difficult 2 No Money""]",0,0,0,5,1,,,,,,,,,,,,,,,,,,,,,,,,,,,
,,,,,,,,,,,,66a66d138294ce022ab541fe,001,3,2024-10-09_12h25.15.335,avatar_quest_3AFC_legacy,2022.1.3,Win32,60.0240096,66a66d138294ce022ab541fe,62bca317d87d479cda00ba3d,6706ac6110c47621d1ac73e2,"[""left"",""right"",""right"",""right"",""left"",""left"",""left"",""right"",""right"",""left"",""right"",""left"",""left"",""left"",""left"",""right"",""left"",""right"",""left"",""left"",""left"",""right""]","[0.6490000000000009,1.0550000000000068,1.622000000000014,2.1270000000000095,2.75,3.5849999999999795,4.089999999999975,4.343999999999994,4.75,5.2479999999999905,6.244000000000028,6.757000000000005,7.148000000000025,7.685999999999979,8.129999999999995,8.346000000000004,8.841000000000008,9.211999999999989,9.615000000000009,9.927000000000021,10.295999999999992,10.779999999999973]",,calibration,With Brainslug Difficult 2 With Money,15,11.189,11.19,10,5,0,FALSE,na,na,na,na,,,,,,,,,,,,,,,,,,,,,,,,,,,,,,,,,,0,0,0,0,1,,,,,,,,,,,,,,,,,,
,,,,,,,,,,,,66a66d138294ce022ab541fe,001,3,2024-10-09_12h25.15.335,avatar_quest_3AFC_legacy,2022.1.3,Win32,60.0240096,66a66d138294ce022ab541fe,62bca317d87d479cda00ba3d,6706ac6110c47621d1ac73e2,,,,,,,,,,,,,,,,,,,,,,With Brainslug Difficult 2 With Money,12,images/assets/snowy_money.jpg,learning,20,images/assets/success_money.jpg,images/assets/gameover.jpg,,,,,,,,,,,,,0,1,1,2,1,,,,,,,,,,,,,,,,,,,,,,,,,,,
,,,,,,,,,,,,66a66d138294ce022ab541fe,001,3,2024-10-09_12h25.15.335,avatar_quest_3AFC_legacy,2022.1.3,Win32,60.0240096,66a66d138294ce022ab541fe,62bca317d87d479cda00ba3d,6706ac6110c47621d1ac73e2,,,,,,,,,,,,,,,,,,,,,,With Brainslug Difficult 2 No Money,12,images/assets/snowy_original.jpg,learning,20,images/assets/success.jpg,images/assets/gameover.jpg,,,,,,,,,,,,,0,2,2,3,1,,,,,,,,,,,,,,,,,,,,,,,,,,,
,,,,,,,,,,,,66a66d138294ce022ab541fe,001,3,2024-10-09_12h25.15.335,avatar_quest_3AFC_legacy,2022.1.3,Win32,60.0240096,66a66d138294ce022ab541fe,62bca317d87d479cda00ba3d,6706ac6110c47621d1ac73e2,,,,,,,,,,,,,,,,,,,,,,No Brainslug No Barriers With Money,0,images/assets/snowy_money.jpg,learning,10,images/assets/success_money.jpg,images/assets/gameover.jpg,,,,,,,,,,,,,0,3,3,9,1,,,,,,,,,,,,,,,,,,,,,,,,,,,
,,,,,,,,,,,,66a66d138294ce022ab541fe,001,3,2024-10-09_12h25.15.335,avatar_quest_3AFC_legacy,2022.1.3,Win32,60.0240096,66a66d138294ce022ab541fe,62bca317d87d479cda00ba3d,6706ac6110c47621d1ac73e2,,,,,,,,,,,,,,,,,,,,,,No Brainslug Difficult 2 With Money,12,images/assets/snowy_money.jpg,learning,20,images/assets/success_money.jpg,images/assets/gameover.jpg,,,,,,,,,,,,,0,4,4,7,1,,,,,,,,,,,,,,,,,,,,,,,,,,,
,,,,,,,,,,,,66a66d138294ce022ab541fe,001,3,2024-10-09_12h25.15.335,avatar_quest_3AFC_legacy,2022.1.3,Win32,60.0240096,66a66d138294ce022ab541fe,62bca317d87d479cda00ba3d,6706ac6110c47621d1ac73e2,,,,,,,,,,,,,,,,,,,,,,With Brainslug No Barriers With Money,0,images/assets/snowy_money.jpg,learning,10,images/assets/success_money.jpg,images/assets/gameover.jpg,,,,,,,,,,,,,0,5,5,4,1,,,,,,,,,,,,,,,,,,,,,,,,,,,
,,,,,,,,,,,,66a66d138294ce022ab541fe,001,3,2024-10-09_12h25.15.335,avatar_quest_3AFC_legacy,2022.1.3,Win32,60.0240096,66a66d138294ce022ab541fe,62bca317d87d479cda00ba3d,6706ac6110c47621d1ac73e2,,,,,,,,,,,,,,,,,,,,,,With Brainslug Difficult 1 With Money,6,images/assets/snowy_money.jpg,learning,20,images/assets/success_money.jpg,images/assets/gameover.jpg,,,,,,,,,,,,,0,6,6,0,1,,,,,,,,,,,,,,,,,,,,,,,,,,,
,,,,,,,,,,,,66a66d138294ce022ab541fe,001,3,2024-10-09_12h25.15.335,avatar_quest_3AFC_legacy,2022.1.3,Win32,60.0240096,66a66d138294ce022ab541fe,62bca317d87d479cda00ba3d,6706ac6110c47621d1ac73e2,,,,,,,,,,,,,,,,,,,,,,No Brainslug Difficult 2 No Money,12,images/assets/snowy_original.jpg,learning,20,images/assets/success.jpg,images/assets/gameover.jpg,,,,,,,,,,,,,0,7,7,8,1,,,,,,,,,,,,,,,,,,,,,,,,,,,
,,,,,,,,,,,,66a66d138294ce022ab541fe,001,3,2024-10-09_12h25.15.335,avatar_quest_3AFC_legacy,2022.1.3,Win32,60.0240096,66a66d138294ce022ab541fe,62bca317d87d479cda00ba3d,6706ac6110c47621d1ac73e2,,,,,,,,,,,,,,,,,,,,,,With Brainslug Difficult 1 No Money,6,images/assets/snowy_original.jpg,learning,20,images/assets/success.jpg,images/assets/gameover.jpg,,,,,,,,,,,,,0,8,8,1,1,,,,,,,,,,,,,,,,,,,,,,,,,,,
,,,,,,,,,,,,66a66d138294ce022ab541fe,001,3,2024-10-09_12h25.15.335,avatar_quest_3AFC_legacy,2022.1.3,Win32,60.0240096,66a66d138294ce022ab541fe,62bca317d87d479cda00ba3d,6706ac6110c47621d1ac73e2,,,,,,,,,,,,,,,,,,,,,,No Brainslug Difficult 1 No Money,6,images/assets/snowy_original.jpg,learning,20,images/assets/success.jpg,images/assets/gameover.jpg,,,,,,,,,,,,,0,9,9,6,1,,,,,,,,,,,,,,,,,,,,,,,,,,,
,,,,,,,,,,,,66a66d138294ce022ab541fe,001,3,2024-10-09_12h25.15.335,avatar_quest_3AFC_legacy,2022.1.3,Win32,60.0240096,66a66d138294ce022ab541fe,62bca317d87d479cda00ba3d,6706ac6110c47621d1ac73e2,,,,,,,,,,,,,,,,,,,,,,No Brainslug No Barriers No Money,0,images/assets/snowy_original.jpg,learning,10,images/assets/success.jpg,images/assets/gameover.jpg,,,,,,,,,,,,,0,10,10,10,1,,,,,,,,,,,,,,,,,,,,,,,,,,,
,,,,,,,,,,,,66a66d138294ce022ab541fe,001,3,2024-10-09_12h25.15.335,avatar_quest_3AFC_legacy,2022.1.3,Win32,60.0240096,66a66d138294ce022ab541fe,62bca317d87d479cda00ba3d,6706ac6110c47621d1ac73e2,,,,,,,,,,,,,,,,,,,,,,,,,,,,,,,,,,,,,,,,,,,,,,,,,,,,,,,11,0,11,0,1,,,,,,,,,,,,,
,,,,,,,,,,,,66a66d138294ce022ab541fe,001,3,2024-10-09_12h25.15.335,avatar_quest_3AFC_legacy,2022.1.3,Win32,60.0240096,66a66d138294ce022ab541fe,62bca317d87d479cda00ba3d,6706ac6110c47621d1ac73e2,,,,,,,,,,,,,,,,,,,,,,,,,,,,,,,,,,,,,,,,,,,,,,,,,,,,,,,,,,,,0,0,0,0,1,1,With Brainslug Difficult 1 No Money,images/assets/With Brainslug Difficult 1 No Money.png,With Brainslug Difficult 2 No Money,images/assets/With Brainslug Difficult 2 No Money.png,With Brainslug Difficult 2 With Money,images/assets/With Brainslug Difficult 2 With Money.png,Achievement vs. money
,,,,,,,,,,,,66a66d138294ce022ab541fe,001,3,2024-10-09_12h25.15.335,avatar_quest_3AFC_legacy,2022.1.3,Win32,60.0240096,66a66d138294ce022ab541fe,62bca317d87d479cda00ba3d,6706ac6110c47621d1ac73e2,,,,,,,,,,,,,,,,,,,,,,No Brainslug No Barriers With Money,0,images/assets/snowy_money.jpg,learning,10,images/assets/success_money.jpg,images/assets/gameover.jpg,,,,,,,,No Brainslug No Barriers No Money,No Brainslug No Barriers No Money,left,0.829,"[""No Brainslug Difficult 1 No Money"",""No Brainslug No Barriers With Money""]",0,0,0,9,1,,,,,,,,,,,,,,,,,,,,,,,,,,,
,,,,,,,,,,,,66a66d138294ce022ab541fe,001,3,2024-10-09_12h25.15.335,avatar_quest_3AFC_legacy,2022.1.3,Win32,60.0240096,66a66d138294ce022ab541fe,62bca317d87d479cda00ba3d,6706ac6110c47621d1ac73e2,,,,,,,,,,,,,,,,,,,,,,With Brainslug No Barriers With Money,0,images/assets/snowy_money.jpg,learning,10,images/assets/success_money.jpg,images/assets/gameover.jpg,,,,,,,,,,,,,0,1,1,4,1,,,,,,,,,,,,,,,,,,,,,,,,,,,
,,,,,,,,,,,,66a66d138294ce022ab541fe,001,3,2024-10-09_12h25.15.335,avatar_quest_3AFC_legacy,2022.1.3,Win32,60.0240096,66a66d138294ce022ab541fe,62bca317d87d479cda00ba3d,6706ac6110c47621d1ac73e2,"[""left""]",[2.2139999999999986],,calibration,No Brainslug No Barriers No Money,16,8.9512,5.369,1,0,0,TRUE,na,na,na,na,,,,,,,,,,,,,,,,,,,,,,,,,,,,,,,,,,0,0,0,0,1,,,,,,,,,,,,,,,,,,
,,,,,,,,,,,,66a66d138294ce022ab541fe,001,3,2024-10-09_12h25.15.335,avatar_quest_3AFC_legacy,2022.1.3,Win32,60.0240096,66a66d138294ce022ab541fe,62bca317d87d479cda00ba3d,6706ac6110c47621d1ac73e2,,,,,,,,,,,,,,,,,,,,,,No Brainslug No Barriers No Money,0,images/assets/snowy_original.jpg,learning,10,images/assets/success.jpg,images/assets/gameover.jpg,,,,,,,,,,,,,0,2,2,10,1,,,,,,,,,,,,,,,,,,,,,,,,,,,
,,,,,,,,,,,,66a66d138294ce022ab541fe,001,3,2024-10-09_12h25.15.335,avatar_quest_3AFC_legacy,2022.1.3,Win32,60.0240096,66a66d138294ce022ab541fe,62bca317d87d479cda00ba3d,6706ac6110c47621d1ac73e2,,,,,,,,,,,,,,,,,,,,,,With Brainslug No Barriers No Money,0,images/assets/snowy_original.jpg,learning,10,images/assets/success.jpg,images/assets/gameover.jpg,,,,,,,,,,,,,0,3,3,5,1,,,,,,,,,,,,,,,,,,,,,,,,,,,
,,,,,,,,,,,,66a66d138294ce022ab541fe,001,3,2024-10-09_12h25.15.335,avatar_quest_3AFC_legacy,2022.1.3,Win32,60.0240096,66a66d138294ce022ab541fe,62bca317d87d479cda00ba3d,6706ac6110c47621d1ac73e2,,,,,,,,,,,,,,,,,,,,,,No Brainslug Difficult 2 No Money,12,images/assets/snowy_original.jpg,learning,20,images/assets/success.jpg,images/assets/gameover.jpg,,,,,,,,,,,,,0,4,4,8,1,,,,,,,,,,,,,,,,,,,,,,,,,,,
,,,,,,,,,,,,66a66d138294ce022ab541fe,001,3,2024-10-09_12h25.15.335,avatar_quest_3AFC_legacy,2022.1.3,Win32,60.0240096,66a66d138294ce022ab541fe,62bca317d87d479cda00ba3d,6706ac6110c47621d1ac73e2,,,,,,,,,,,,,,,,,,,,,,With Brainslug Difficult 2 No Money,12,images/assets/snowy_original.jpg,learning,20,images/assets/success.jpg,images/assets/gameover.jpg,,,,,,,,,,,,,0,5,5,3,1,,,,,,,,,,,,,,,,,,,,,,,,,,,
,,,,,,,,,,,,66a66d138294ce022ab541fe,001,3,2024-10-09_12h25.15.335,avatar_quest_3AFC_legacy,2022.1.3,Win32,60.0240096,66a66d138294ce022ab541fe,62bca317d87d479cda00ba3d,6706ac6110c47621d1ac73e2,,,,,,,,,,,,,,,,,,,,,,With Brainslug Difficult 1 With Money,6,images/assets/snowy_money.jpg,learning,20,images/assets/success_money.jpg,images/assets/gameover.jpg,,,,,,,,,,,,,0,6,6,0,1,,,,,,,,,,,,,,,,,,,,,,,,,,,
,,,,,,,,,,,,66a66d138294ce022ab541fe,001,3,2024-10-09_12h25.15.335,avatar_quest_3AFC_legacy,2022.1.3,Win32,60.0240096,66a66d138294ce022ab541fe,62bca317d87d479cda00ba3d,6706ac6110c47621d1ac73e2,,,,,,,,,,,,,,,,,,,,,,No Brainslug Difficult 2 With Money,12,images/assets/snowy_money.jpg,learning,20,images/assets/success_money.jpg,images/assets/gameover.jpg,,,,,,,,,,,,,0,7,7,7,1,,,,,,,,,,,,,,,,,,,,,,,,,,,
,,,,,,,,,,,,66a66d138294ce022ab541fe,001,3,2024-10-09_12h25.15.335,avatar_quest_3AFC_legacy,2022.1.3,Win32,60.0240096,66a66d138294ce022ab541fe,62bca317d87d479cda00ba3d,6706ac6110c47621d1ac73e2,,,,,,,,,,,,,,,,,,,,,,With Brainslug Difficult 1 No Money,6,images/assets/snowy_original.jpg,learning,20,images/assets/success.jpg,images/assets/gameover.jpg,,,,,,,,,,,,,0,8,8,1,1,,,,,,,,,,,,,,,,,,,,,,,,,,,
,,,,,,,,,,,,66a66d138294ce022ab541fe,001,3,2024-10-09_12h25.15.335,avatar_quest_3AFC_legacy,2022.1.3,Win32,60.0240096,66a66d138294ce022ab541fe,62bca317d87d479cda00ba3d,6706ac6110c47621d1ac73e2,,,,,,,,,,,,,,,,,,,,,,With Brainslug Difficult 2 With Money,12,images/assets/snowy_money.jpg,learning,20,images/assets/success_money.jpg,images/assets/gameover.jpg,,,,,,,,,,,,,0,9,9,2,1,,,,,,,,,,,,,,,,,,,,,,,,,,,
,,,,,,,,,,,,66a66d138294ce022ab541fe,001,3,2024-10-09_12h25.15.335,avatar_quest_3AFC_legacy,2022.1.3,Win32,60.0240096,66a66d138294ce022ab541fe,62bca317d87d479cda00ba3d,6706ac6110c47621d1ac73e2,,,,,,,,,,,,,,,,,,,,,,No Brainslug Difficult 1 No Money,6,images/assets/snowy_original.jpg,learning,20,images/assets/success.jpg,images/assets/gameover.jpg,,,,,,,,,,,,,0,10,10,6,1,,,,,,,,,,,,,,,,,,,,,,,,,,,
,,,,,,,,,,,,66a66d138294ce022ab541fe,001,3,2024-10-09_12h25.15.335,avatar_quest_3AFC_legacy,2022.1.3,Win32,60.0240096,66a66d138294ce022ab541fe,62bca317d87d479cda00ba3d,6706ac6110c47621d1ac73e2,,,,,,,,,,,,,,,,,,,,,,,,,,,,,,,,,,,,,,,,,,,,,,,,,,,,,,,0,0,0,0,1,,,,,,,,,,,,,
,,,,,,,,,,,,66a66d138294ce022ab541fe,001,3,2024-10-09_12h25.15.335,avatar_quest_3AFC_legacy,2022.1.3,Win32,60.0240096,66a66d138294ce022ab541fe,62bca317d87d479cda00ba3d,6706ac6110c47621d1ac73e2,,,,,,,,,,,,,,,,,,,,,,With Brainslug Difficult 1 With Money,6,images/assets/snowy_money.jpg,learning,20,images/assets/success_money.jpg,images/assets/gameover.jpg,,,,,,,,No Brainslug No Barriers With Money,No Brainslug No Barriers No Money,right,0.897,"[""No Brainslug No Barriers No Money"",""No Brainslug Difficult 1 No Money""]",0,0,0,0,1,,,,,,,,,,,,,,,,,,,,,,,,,,,
,,,,,,,,,,,,66a66d138294ce022ab541fe,001,3,2024-10-09_12h25.15.335,avatar_quest_3AFC_legacy,2022.1.3,Win32,60.0240096,66a66d138294ce022ab541fe,62bca317d87d479cda00ba3d,6706ac6110c47621d1ac73e2,,,,,,,,,,,,,,,,,,,,,,No Brainslug No Barriers No Money,0,images/assets/snowy_original.jpg,learning,10,images/assets/success.jpg,images/assets/gameover.jpg,,,,,,,,,,,,,0,1,1,10,1,,,,,,,,,,,,,,,,,,,,,,,,,,,
,,,,,,,,,,,,66a66d138294ce022ab541fe,001,3,2024-10-09_12h25.15.335,avatar_quest_3AFC_legacy,2022.1.3,Win32,60.0240096,66a66d138294ce022ab541fe,62bca317d87d479cda00ba3d,6706ac6110c47621d1ac73e2,,,,,,,,,,,,,,,,,,,,,,With Brainslug Difficult 2 With Money,12,images/assets/snowy_money.jpg,learning,20,images/assets/success_money.jpg,images/assets/gameover.jpg,,,,,,,,,,,,,0,2,2,2,1,,,,,,,,,,,,,,,,,,,,,,,,,,,
,,,,,,,,,,,,66a66d138294ce022ab541fe,001,3,2024-10-09_12h25.15.335,avatar_quest_3AFC_legacy,2022.1.3,Win32,60.0240096,66a66d138294ce022ab541fe,62bca317d87d479cda00ba3d,6706ac6110c47621d1ac73e2,,,,,,,,,,,,,,,,,,,,,,No Brainslug Difficult 1 No Money,6,images/assets/snowy_original.jpg,learning,20,images/assets/success.jpg,images/assets/gameover.jpg,,,,,,,,,,,,,0,3,3,6,1,,,,,,,,,,,,,,,,,,,,,,,,,,,
,,,,,,,,,,,,66a66d138294ce022ab541fe,001,3,2024-10-09_12h25.15.335,avatar_quest_3AFC_legacy,2022.1.3,Win32,60.0240096,66a66d138294ce022ab541fe,62bca317d87d479cda00ba3d,6706ac6110c47621d1ac73e2,,,,,,,,,,,,,,,,,,,,,,With Brainslug Difficult 2 No Money,12,images/assets/snowy_original.jpg,learning,20,images/assets/success.jpg,images/assets/gameover.jpg,,,,,,,,,,,,,0,4,4,3,1,,,,,,,,,,,,,,,,,,,,,,,,,,,
,,,,,,,,,,,,66a66d138294ce022ab541fe,001,3,2024-10-09_12h25.15.335,avatar_quest_3AFC_legacy,2022.1.3,Win32,60.0240096,66a66d138294ce022ab541fe,62bca317d87d479cda00ba3d,6706ac6110c47621d1ac73e2,,,,,,,,,,,,,,,,,,,,,,With Brainslug Difficult 1 No Money,6,images/assets/snowy_original.jpg,learning,20,images/assets/success.jpg,images/assets/gameover.jpg,,,,,,,,,,,,,0,5,5,1,1,,,,,,,,,,,,,,,,,,,,,,,,,,,
,,,,,,,,,,,,66a66d138294ce022ab541fe,001,3,2024-10-09_12h25.15.335,avatar_quest_3AFC_legacy,2022.1.3,Win32,60.0240096,66a66d138294ce022ab541fe,62bca317d87d479cda00ba3d,6706ac6110c47621d1ac73e2,,,,,,,,,,,,,,,,,,,,,,With Brainslug No Barriers No Money,0,images/assets/snowy_original.jpg,learning,10,images/assets/success.jpg,images/assets/gameover.jpg,,,,,,,,,,,,,0,6,6,5,1,,,,,,,,,,,,,,,,,,,,,,,,,,,
,,,,,,,,,,,,66a66d138294ce022ab541fe,001,3,2024-10-09_12h25.15.335,avatar_quest_3AFC_legacy,2022.1.3,Win32,60.0240096,66a66d138294ce022ab541fe,62bca317d87d479cda00ba3d,6706ac6110c47621d1ac73e2,,,,,,,,,,,,,,,,,,,,,,No Brainslug Difficult 2 No Money,12,images/assets/snowy_original.jpg,learning,20,images/assets/success.jpg,images/assets/gameover.jpg,,,,,,,,,,,,,0,7,7,8,1,,,,,,,,,,,,,,,,,,,,,,,,,,,
,,,,,,,,,,,,66a66d138294ce022ab541fe,001,3,2024-10-09_12h25.15.335,avatar_quest_3AFC_legacy,2022.1.3,Win32,60.0240096,66a66d138294ce022ab541fe,62bca317d87d479cda00ba3d,6706ac6110c47621d1ac73e2,,,,,,,,,,,,,,,,,,,,,,No Brainslug Difficult 2 With Money,12,images/assets/snowy_money.jpg,learning,20,images/assets/success_money.jpg,images/assets/gameover.jpg,,,,,,,,,,,,,0,8,8,7,1,,,,,,,,,,,,,,,,,,,,,,,,,,,
,,,,,,,,,,,,66a66d138294ce022ab541fe,001,3,2024-10-09_12h25.15.335,avatar_quest_3AFC_legacy,2022.1.3,Win32,60.0240096,66a66d138294ce022ab541fe,62bca317d87d479cda00ba3d,6706ac6110c47621d1ac73e2,"[""left"",""right""]","[1.5349999999999682,3.771000000000015]",,calibration,No Brainslug No Barriers With Money,17,8.9512,8.966,2,0,307,FALSE,na,na,na,na,,,,,,,,,,,,,,,,,,,,,,,,,,,,,,,,,,0,0,0,0,1,,,,,,,,,,,,,,,,,,
,,,,,,,,,,,,66a66d138294ce022ab541fe,001,3,2024-10-09_12h25.15.335,avatar_quest_3AFC_legacy,2022.1.3,Win32,60.0240096,66a66d138294ce022ab541fe,62bca317d87d479cda00ba3d,6706ac6110c47621d1ac73e2,,,,,,,,,,,,,,,,,,,,,,No Brainslug No Barriers With Money,0,images/assets/snowy_money.jpg,learning,10,images/assets/success_money.jpg,images/assets/gameover.jpg,,,,,,,,,,,,,0,9,9,9,1,,,,,,,,,,,,,,,,,,,,,,,,,,,
,,,,,,,,,,,,66a66d138294ce022ab541fe,001,3,2024-10-09_12h25.15.335,avatar_quest_3AFC_legacy,2022.1.3,Win32,60.0240096,66a66d138294ce022ab541fe,62bca317d87d479cda00ba3d,6706ac6110c47621d1ac73e2,,,,,,,,,,,,,,,,,,,,,,With Brainslug No Barriers With Money,0,images/assets/snowy_money.jpg,learning,10,images/assets/success_money.jpg,images/assets/gameover.jpg,,,,,,,,,,,,,0,10,10,4,1,,,,,,,,,,,,,,,,,,,,,,,,,,,
,,,,,,,,,,,,66a66d138294ce022ab541fe,001,3,2024-10-09_12h25.15.335,avatar_quest_3AFC_legacy,2022.1.3,Win32,60.0240096,66a66d138294ce022ab541fe,62bca317d87d479cda00ba3d,6706ac6110c47621d1ac73e2,,,,,,,,,,,,,,,,,,,,,,,,,,,,,,,,,,,,,,,,,,,,,,,,,,,,,,,1,0,1,0,1,,,,,,,,,,,,,
,,,,,,,,,,,,66a66d138294ce022ab541fe,001,3,2024-10-09_12h25.15.335,avatar_quest_3AFC_legacy,2022.1.3,Win32,60.0240096,66a66d138294ce022ab541fe,62bca317d87d479cda00ba3d,6706ac6110c47621d1ac73e2,"[""left""]",[1.2549999999999955],,calibration,No Brainslug No Barriers No Money,18,8.9512,5.419,1,0,0,TRUE,na,na,na,na,,,,,,,,,,,,,,,,,,,,No Brainslug No Barriers No Money,No Brainslug No Barriers No Money,left,0.733,"[""No Brainslug Difficult 1 No Money"",""No Brainslug No Barriers With Money""]",,,,,,,,,,0,0,0,0,1,,,,,,,,,,,,,,,,,,
,,,,,,,,,,,,66a66d138294ce022ab541fe,001,3,2024-10-09_12h25.15.335,avatar_quest_3AFC_legacy,2022.1.3,Win32,60.0240096,66a66d138294ce022ab541fe,62bca317d87d479cda00ba3d,6706ac6110c47621d1ac73e2,,,,,,,,,,,,,,,,,,,,,,No Brainslug No Barriers No Money,0,images/assets/snowy_original.jpg,learning,10,images/assets/success.jpg,images/assets/gameover.jpg,,,,,,,,,,,,,0,0,0,10,1,,,,,,,,,,,,,,,,,,,,,,,,,,,
,,,,,,,,,,,,66a66d138294ce022ab541fe,001,3,2024-10-09_12h25.15.335,avatar_quest_3AFC_legacy,2022.1.3,Win32,60.0240096,66a66d138294ce022ab541fe,62bca317d87d479cda00ba3d,6706ac6110c47621d1ac73e2,,,,,,,,,,,,,,,,,,,,,,No Brainslug Difficult 1 No Money,6,images/assets/snowy_original.jpg,learning,20,images/assets/success.jpg,images/assets/gameover.jpg,,,,,,,,,,,,,0,1,1,6,1,,,,,,,,,,,,,,,,,,,,,,,,,,,
,,,,,,,,,,,,66a66d138294ce022ab541fe,001,3,2024-10-09_12h25.15.335,avatar_quest_3AFC_legacy,2022.1.3,Win32,60.0240096,66a66d138294ce022ab541fe,62bca317d87d479cda00ba3d,6706ac6110c47621d1ac73e2,,,,,,,,,,,,,,,,,,,,,,No Brainslug Difficult 2 With Money,12,images/assets/snowy_money.jpg,learning,20,images/assets/success_money.jpg,images/assets/gameover.jpg,,,,,,,,,,,,,0,2,2,7,1,,,,,,,,,,,,,,,,,,,,,,,,,,,
,,,,,,,,,,,,66a66d138294ce022ab541fe,001,3,2024-10-09_12h25.15.335,avatar_quest_3AFC_legacy,2022.1.3,Win32,60.0240096,66a66d138294ce022ab541fe,62bca317d87d479cda00ba3d,6706ac6110c47621d1ac73e2,,,,,,,,,,,,,,,,,,,,,,With Brainslug No Barriers With Money,0,images/assets/snowy_money.jpg,learning,10,images/assets/success_money.jpg,images/assets/gameover.jpg,,,,,,,,,,,,,0,3,3,4,1,,,,,,,,,,,,,,,,,,,,,,,,,,,
,,,,,,,,,,,,66a66d138294ce022ab541fe,001,3,2024-10-09_12h25.15.335,avatar_quest_3AFC_legacy,2022.1.3,Win32,60.0240096,66a66d138294ce022ab541fe,62bca317d87d479cda00ba3d,6706ac6110c47621d1ac73e2,,,,,,,,,,,,,,,,,,,,,,With Brainslug Difficult 1 With Money,6,images/assets/snowy_money.jpg,learning,20,images/assets/success_money.jpg,images/assets/gameover.jpg,,,,,,,,,,,,,0,4,4,0,1,,,,,,,,,,,,,,,,,,,,,,,,,,,
,,,,,,,,,,,,66a66d138294ce022ab541fe,001,3,2024-10-09_12h25.15.335,avatar_quest_3AFC_legacy,2022.1.3,Win32,60.0240096,66a66d138294ce022ab541fe,62bca317d87d479cda00ba3d,6706ac6110c47621d1ac73e2,,,,,,,,,,,,,,,,,,,,,,No Brainslug Difficult 2 No Money,12,images/assets/snowy_original.jpg,learning,20,images/assets/success.jpg,images/assets/gameover.jpg,,,,,,,,,,,,,0,5,5,8,1,,,,,,,,,,,,,,,,,,,,,,,,,,,
,,,,,,,,,,,,66a66d138294ce022ab541fe,001,3,2024-10-09_12h25.15.335,avatar_quest_3AFC_legacy,2022.1.3,Win32,60.0240096,66a66d138294ce022ab541fe,62bca317d87d479cda00ba3d,6706ac6110c47621d1ac73e2,,,,,,,,,,,,,,,,,,,,,,With Brainslug Difficult 2 No Money,12,images/assets/snowy_original.jpg,learning,20,images/assets/success.jpg,images/assets/gameover.jpg,,,,,,,,,,,,,0,6,6,3,1,,,,,,,,,,,,,,,,,,,,,,,,,,,
,,,,,,,,,,,,66a66d138294ce022ab541fe,001,3,2024-10-09_12h25.15.335,avatar_quest_3AFC_legacy,2022.1.3,Win32,60.0240096,66a66d138294ce022ab541fe,62bca317d87d479cda00ba3d,6706ac6110c47621d1ac73e2,,,,,,,,,,,,,,,,,,,,,,No Brainslug No Barriers With Money,0,images/assets/snowy_money.jpg,learning,10,images/assets/success_money.jpg,images/assets/gameover.jpg,,,,,,,,,,,,,0,7,7,9,1,,,,,,,,,,,,,,,,,,,,,,,,,,,
,,,,,,,,,,,,66a66d138294ce022ab541fe,001,3,2024-10-09_12h25.15.335,avatar_quest_3AFC_legacy,2022.1.3,Win32,60.0240096,66a66d138294ce022ab541fe,62bca317d87d479cda00ba3d,6706ac6110c47621d1ac73e2,,,,,,,,,,,,,,,,,,,,,,With Brainslug Difficult 2 With Money,12,images/assets/snowy_money.jpg,learning,20,images/assets/success_money.jpg,images/assets/gameover.jpg,,,,,,,,,,,,,0,8,8,2,1,,,,,,,,,,,,,,,,,,,,,,,,,,,
,,,,,,,,,,,,66a66d138294ce022ab541fe,001,3,2024-10-09_12h25.15.335,avatar_quest_3AFC_legacy,2022.1.3,Win32,60.0240096,66a66d138294ce022ab541fe,62bca317d87d479cda00ba3d,6706ac6110c47621d1ac73e2,,,,,,,,,,,,,,,,,,,,,,With Brainslug No Barriers No Money,0,images/assets/snowy_original.jpg,learning,10,images/assets/success.jpg,images/assets/gameover.jpg,,,,,,,,,,,,,0,9,9,5,1,,,,,,,,,,,,,,,,,,,,,,,,,,,
,,,,,,,,,,,,66a66d138294ce022ab541fe,001,3,2024-10-09_12h25.15.335,avatar_quest_3AFC_legacy,2022.1.3,Win32,60.0240096,66a66d138294ce022ab541fe,62bca317d87d479cda00ba3d,6706ac6110c47621d1ac73e2,,,,,,,,,,,,,,,,,,,,,,With Brainslug Difficult 1 No Money,6,images/assets/snowy_original.jpg,learning,20,images/assets/success.jpg,images/assets/gameover.jpg,,,,,,,,,,,,,0,10,10,1,1,,,,,,,,,,,,,,,,,,,,,,,,,,,
,,,,,,,,,,,,66a66d138294ce022ab541fe,001,3,2024-10-09_12h25.15.335,avatar_quest_3AFC_legacy,2022.1.3,Win32,60.0240096,66a66d138294ce022ab541fe,62bca317d87d479cda00ba3d,6706ac6110c47621d1ac73e2,,,,,,,,,,,,,,,,,,,,,,,,,,,,,,,,,,,,,,,,,,,,,,,,,,,,,,,2,0,2,0,1,,,,,,,,,,,,,
,,,,,,,,,,,,66a66d138294ce022ab541fe,001,3,2024-10-09_12h25.15.335,avatar_quest_3AFC_legacy,2022.1.3,Win32,60.0240096,66a66d138294ce022ab541fe,62bca317d87d479cda00ba3d,6706ac6110c47621d1ac73e2,,,,,,,,,,,,,,,,,,,,,,No Brainslug Difficult 2 With Money,12,images/assets/snowy_money.jpg,learning,20,images/assets/success_money.jpg,images/assets/gameover.jpg,,,,,,,,No Brainslug No Barriers No Money,No Brainslug No Barriers No Money,left,0.877,"[""No Brainslug Difficult 1 No Money"",""No Brainslug No Barriers With Money""]",0,0,0,7,1,,,,,,,,,,,,,,,,,,,,,,,,,,,
,,,,,,,,,,,,66a66d138294ce022ab541fe,001,3,2024-10-09_12h25.15.335,avatar_quest_3AFC_legacy,2022.1.3,Win32,60.0240096,66a66d138294ce022ab541fe,62bca317d87d479cda00ba3d,6706ac6110c47621d1ac73e2,,,,,,,,,,,,,,,,,,,,,,No Brainslug Difficult 2 No Money,12,images/assets/snowy_original.jpg,learning,20,images/assets/success.jpg,images/assets/gameover.jpg,,,,,,,,,,,,,0,1,1,8,1,,,,,,,,,,,,,,,,,,,,,,,,,,,
,,,,,,,,,,,,66a66d138294ce022ab541fe,001,3,2024-10-09_12h25.15.335,avatar_quest_3AFC_legacy,2022.1.3,Win32,60.0240096,66a66d138294ce022ab541fe,62bca317d87d479cda00ba3d,6706ac6110c47621d1ac73e2,,,,,,,,,,,,,,,,,,,,,,With Brainslug No Barriers No Money,0,images/assets/snowy_original.jpg,learning,10,images/assets/success.jpg,images/assets/gameover.jpg,,,,,,,,,,,,,0,2,2,5,1,,,,,,,,,,,,,,,,,,,,,,,,,,,
,,,,,,,,,,,,66a66d138294ce022ab541fe,001,3,2024-10-09_12h25.15.335,avatar_quest_3AFC_legacy,2022.1.3,Win32,60.0240096,66a66d138294ce022ab541fe,62bca317d87d479cda00ba3d,6706ac6110c47621d1ac73e2,,,,,,,,,,,,,,,,,,,,,,With Brainslug No Barriers With Money,0,images/assets/snowy_money.jpg,learning,10,images/assets/success_money.jpg,images/assets/gameover.jpg,,,,,,,,,,,,,0,3,3,4,1,,,,,,,,,,,,,,,,,,,,,,,,,,,
,,,,,,,,,,,,66a66d138294ce022ab541fe,001,3,2024-10-09_12h25.15.335,avatar_quest_3AFC_legacy,2022.1.3,Win32,60.0240096,66a66d138294ce022ab541fe,62bca317d87d479cda00ba3d,6706ac6110c47621d1ac73e2,"[""left"",""up""]","[1.8290000000000077,4.365000000000009]",,calibration,No Brainslug No Barriers No Money,19,8.9512,5.464,1,0,0,TRUE,na,na,na,na,,,,,,,,,,,,,,,,,,,,,,,,,,,,,,,,,,0,0,0,0,1,,,,,,,,,,,,,,,,,,
,,,,,,,,,,,,66a66d138294ce022ab541fe,001,3,2024-10-09_12h25.15.335,avatar_quest_3AFC_legacy,2022.1.3,Win32,60.0240096,66a66d138294ce022ab541fe,62bca317d87d479cda00ba3d,6706ac6110c47621d1ac73e2,,,,,,,,,,,,,,,,,,,,,,No Brainslug No Barriers No Money,0,images/assets/snowy_original.jpg,learning,10,images/assets/success.jpg,images/assets/gameover.jpg,,,,,,,,,,,,,0,4,4,10,1,,,,,,,,,,,,,,,,,,,,,,,,,,,
,,,,,,,,,,,,66a66d138294ce022ab541fe,001,3,2024-10-09_12h25.15.335,avatar_quest_3AFC_legacy,2022.1.3,Win32,60.0240096,66a66d138294ce022ab541fe,62bca317d87d479cda00ba3d,6706ac6110c47621d1ac73e2,,,,,,,,,,,,,,,,,,,,,,No Brainslug No Barriers With Money,0,images/assets/snowy_money.jpg,learning,10,images/assets/success_money.jpg,images/assets/gameover.jpg,,,,,,,,,,,,,0,5,5,9,1,,,,,,,,,,,,,,,,,,,,,,,,,,,
,,,,,,,,,,,,66a66d138294ce022ab541fe,001,3,2024-10-09_12h25.15.335,avatar_quest_3AFC_legacy,2022.1.3,Win32,60.0240096,66a66d138294ce022ab541fe,62bca317d87d479cda00ba3d,6706ac6110c47621d1ac73e2,,,,,,,,,,,,,,,,,,,,,,With Brainslug Difficult 2 With Money,12,images/assets/snowy_money.jpg,learning,20,images/assets/success_money.jpg,images/assets/gameover.jpg,,,,,,,,,,,,,0,6,6,2,1,,,,,,,,,,,,,,,,,,,,,,,,,,,
,,,,,,,,,,,,66a66d138294ce022ab541fe,001,3,2024-10-09_12h25.15.335,avatar_quest_3AFC_legacy,2022.1.3,Win32,60.0240096,66a66d138294ce022ab541fe,62bca317d87d479cda00ba3d,6706ac6110c47621d1ac73e2,,,,,,,,,,,,,,,,,,,,,,No Brainslug Difficult 1 No Money,6,images/assets/snowy_original.jpg,learning,20,images/assets/success.jpg,images/assets/gameover.jpg,,,,,,,,,,,,,0,7,7,6,1,,,,,,,,,,,,,,,,,,,,,,,,,,,
,,,,,,,,,,,,66a66d138294ce022ab541fe,001,3,2024-10-09_12h25.15.335,avatar_quest_3AFC_legacy,2022.1.3,Win32,60.0240096,66a66d138294ce022ab541fe,62bca317d87d479cda00ba3d,6706ac6110c47621d1ac73e2,,,,,,,,,,,,,,,,,,,,,,With Brainslug Difficult 1 No Money,6,images/assets/snowy_original.jpg,learning,20,images/assets/success.jpg,images/assets/gameover.jpg,,,,,,,,,,,,,0,8,8,1,1,,,,,,,,,,,,,,,,,,,,,,,,,,,
,,,,,,,,,,,,66a66d138294ce022ab541fe,001,3,2024-10-09_12h25.15.335,avatar_quest_3AFC_legacy,2022.1.3,Win32,60.0240096,66a66d138294ce022ab541fe,62bca317d87d479cda00ba3d,6706ac6110c47621d1ac73e2,,,,,,,,,,,,,,,,,,,,,,With Brainslug Difficult 2 No Money,12,images/assets/snowy_original.jpg,learning,20,images/assets/success.jpg,images/assets/gameover.jpg,,,,,,,,,,,,,0,9,9,3,1,,,,,,,,,,,,,,,,,,,,,,,,,,,
,,,,,,,,,,,,66a66d138294ce022ab541fe,001,3,2024-10-09_12h25.15.335,avatar_quest_3AFC_legacy,2022.1.3,Win32,60.0240096,66a66d138294ce022ab541fe,62bca317d87d479cda00ba3d,6706ac6110c47621d1ac73e2,,,,,,,,,,,,,,,,,,,,,,With Brainslug Difficult 1 With Money,6,images/assets/snowy_money.jpg,learning,20,images/assets/success_money.jpg,images/assets/gameover.jpg,,,,,,,,,,,,,0,10,10,0,1,,,,,,,,,,,,,,,,,,,,,,,,,,,
,,,,,,,,,,,,66a66d138294ce022ab541fe,001,3,2024-10-09_12h25.15.335,avatar_quest_3AFC_legacy,2022.1.3,Win32,60.0240096,66a66d138294ce022ab541fe,62bca317d87d479cda00ba3d,6706ac6110c47621d1ac73e2,,,,,,,,,,,,,,,,,,,,,,,,,,,,,,,,,,,,,,,,,,,,,,,,,,,,,,,3,0,3,0,1,,,,,,,,,,,,,
,,,,,,,,,,,,66a66d138294ce022ab541fe,001,3,2024-10-09_12h25.15.335,avatar_quest_3AFC_legacy,2022.1.3,Win32,60.0240096,66a66d138294ce022ab541fe,62bca317d87d479cda00ba3d,6706ac6110c47621d1ac73e2,,,,,,,,,,,,,,,,,,,,,,With Brainslug Difficult 1 With Money,6,images/assets/snowy_money.jpg,learning,20,images/assets/success_money.jpg,images/assets/gameover.jpg,,,,,,,,No Brainslug No Barriers No Money,No Brainslug No Barriers No Money,left,0.645,"[""No Brainslug Difficult 1 No Money"",""No Brainslug No Barriers With Money""]",0,0,0,0,1,,,,,,,,,,,,,,,,,,,,,,,,,,,
,,,,,,,,,,,,66a66d138294ce022ab541fe,001,3,2024-10-09_12h25.15.335,avatar_quest_3AFC_legacy,2022.1.3,Win32,60.0240096,66a66d138294ce022ab541fe,62bca317d87d479cda00ba3d,6706ac6110c47621d1ac73e2,,,,,,,,,,,,,,,,,,,,,,No Brainslug No Barriers With Money,0,images/assets/snowy_money.jpg,learning,10,images/assets/success_money.jpg,images/assets/gameover.jpg,,,,,,,,,,,,,0,1,1,9,1,,,,,,,,,,,,,,,,,,,,,,,,,,,
,,,,,,,,,,,,66a66d138294ce022ab541fe,001,3,2024-10-09_12h25.15.335,avatar_quest_3AFC_legacy,2022.1.3,Win32,60.0240096,66a66d138294ce022ab541fe,62bca317d87d479cda00ba3d,6706ac6110c47621d1ac73e2,,,,,,,,,,,,,,,,,,,,,,With Brainslug Difficult 1 No Money,6,images/assets/snowy_original.jpg,learning,20,images/assets/success.jpg,images/assets/gameover.jpg,,,,,,,,,,,,,0,2,2,1,1,,,,,,,,,,,,,,,,,,,,,,,,,,,
,,,,,,,,,,,,66a66d138294ce022ab541fe,001,3,2024-10-09_12h25.15.335,avatar_quest_3AFC_legacy,2022.1.3,Win32,60.0240096,66a66d138294ce022ab541fe,62bca317d87d479cda00ba3d,6706ac6110c47621d1ac73e2,,,,,,,,,,,,,,,,,,,,,,No Brainslug Difficult 2 With Money,12,images/assets/snowy_money.jpg,learning,20,images/assets/success_money.jpg,images/assets/gameover.jpg,,,,,,,,,,,,,0,3,3,7,1,,,,,,,,,,,,,,,,,,,,,,,,,,,
,,,,,,,,,,,,66a66d138294ce022ab541fe,001,3,2024-10-09_12h25.15.335,avatar_quest_3AFC_legacy,2022.1.3,Win32,60.0240096,66a66d138294ce022ab541fe,62bca317d87d479cda00ba3d,6706ac6110c47621d1ac73e2,,,,,,,,,,,,,,,,,,,,,,With Brainslug Difficult 2 With Money,12,images/assets/snowy_money.jpg,learning,20,images/assets/success_money.jpg,images/assets/gameover.jpg,,,,,,,,,,,,,0,4,4,2,1,,,,,,,,,,,,,,,,,,,,,,,,,,,
,,,,,,,,,,,,66a66d138294ce022ab541fe,001,3,2024-10-09_12h25.15.335,avatar_quest_3AFC_legacy,2022.1.3,Win32,60.0240096,66a66d138294ce022ab541fe,62bca317d87d479cda00ba3d,6706ac6110c47621d1ac73e2,,,,,,,,,,,,,,,,,,,,,,With Brainslug No Barriers With Money,0,images/assets/snowy_money.jpg,learning,10,images/assets/success_money.jpg,images/assets/gameover.jpg,,,,,,,,,,,,,0,5,5,4,1,,,,,,,,,,,,,,,,,,,,,,,,,,,
,,,,,,,,,,,,66a66d138294ce022ab541fe,001,3,2024-10-09_12h25.15.335,avatar_quest_3AFC_legacy,2022.1.3,Win32,60.0240096,66a66d138294ce022ab541fe,62bca317d87d479cda00ba3d,6706ac6110c47621d1ac73e2,"[""left""]",[4.670999999999992],,calibration,No Brainslug No Barriers No Money,20,8.9512,7.215,1,0,107,TRUE,na,na,na,na,,,,,,,,,,,,,,,,,,,,,,,,,,,,,,,,,,0,0,0,0,1,,,,,,,,,,,,,,,,,,
,,,,,,,,,,,,66a66d138294ce022ab541fe,001,3,2024-10-09_12h25.15.335,avatar_quest_3AFC_legacy,2022.1.3,Win32,60.0240096,66a66d138294ce022ab541fe,62bca317d87d479cda00ba3d,6706ac6110c47621d1ac73e2,,,,,,,,,,,,,,,,,,,,,,No Brainslug No Barriers No Money,0,images/assets/snowy_original.jpg,learning,10,images/assets/success.jpg,images/assets/gameover.jpg,,,,,,,,,,,,,0,6,6,10,1,,,,,,,,,,,,,,,,,,,,,,,,,,,
,,,,,,,,,,,,66a66d138294ce022ab541fe,001,3,2024-10-09_12h25.15.335,avatar_quest_3AFC_legacy,2022.1.3,Win32,60.0240096,66a66d138294ce022ab541fe,62bca317d87d479cda00ba3d,6706ac6110c47621d1ac73e2,,,,,,,,,,,,,,,,,,,,,,No Brainslug Difficult 1 No Money,6,images/assets/snowy_original.jpg,learning,20,images/assets/success.jpg,images/assets/gameover.jpg,,,,,,,,,,,,,0,7,7,6,1,,,,,,,,,,,,,,,,,,,,,,,,,,,
,,,,,,,,,,,,66a66d138294ce022ab541fe,001,3,2024-10-09_12h25.15.335,avatar_quest_3AFC_legacy,2022.1.3,Win32,60.0240096,66a66d138294ce022ab541fe,62bca317d87d479cda00ba3d,6706ac6110c47621d1ac73e2,,,,,,,,,,,,,,,,,,,,,,No Brainslug Difficult 2 No Money,12,images/assets/snowy_original.jpg,learning,20,images/assets/success.jpg,images/assets/gameover.jpg,,,,,,,,,,,,,0,8,8,8,1,,,,,,,,,,,,,,,,,,,,,,,,,,,
,,,,,,,,,,,,66a66d138294ce022ab541fe,001,3,2024-10-09_12h25.15.335,avatar_quest_3AFC_legacy,2022.1.3,Win32,60.0240096,66a66d138294ce022ab541fe,62bca317d87d479cda00ba3d,6706ac6110c47621d1ac73e2,,,,,,,,,,,,,,,,,,,,,,With Brainslug Difficult 2 No Money,12,images/assets/snowy_original.jpg,learning,20,images/assets/success.jpg,images/assets/gameover.jpg,,,,,,,,,,,,,0,9,9,3,1,,,,,,,,,,,,,,,,,,,,,,,,,,,
,,,,,,,,,,,,66a66d138294ce022ab541fe,001,3,2024-10-09_12h25.15.335,avatar_quest_3AFC_legacy,2022.1.3,Win32,60.0240096,66a66d138294ce022ab541fe,62bca317d87d479cda00ba3d,6706ac6110c47621d1ac73e2,,,,,,,,,,,,,,,,,,,,,,With Brainslug No Barriers No Money,0,images/assets/snowy_original.jpg,learning,10,images/assets/success.jpg,images/assets/gameover.jpg,,,,,,,,,,,,,0,10,10,5,1,,,,,,,,,,,,,,,,,,,,,,,,,,,
,,,,,,,,,,,,66a66d138294ce022ab541fe,001,3,2024-10-09_12h25.15.335,avatar_quest_3AFC_legacy,2022.1.3,Win32,60.0240096,66a66d138294ce022ab541fe,62bca317d87d479cda00ba3d,6706ac6110c47621d1ac73e2,,,,,,,,,,,,,,,,,,,,,,,,,,,,,,,,,,,,,,,,,,,,,,,,,,,,,,,4,0,4,0,1,,,,,,,,,,,,,
,,,,,,,,,,,,66a66d138294ce022ab541fe,001,3,2024-10-09_12h25.15.335,avatar_quest_3AFC_legacy,2022.1.3,Win32,60.0240096,66a66d138294ce022ab541fe,62bca317d87d479cda00ba3d,6706ac6110c47621d1ac73e2,,,,,,,,,,,,,,,,,,,,,,No Brainslug Difficult 1 No Money,6,images/assets/snowy_original.jpg,learning,20,images/assets/success.jpg,images/assets/gameover.jpg,,,,,,,,No Brainslug No Barriers With Money,No Brainslug No Barriers No Money,right,3.851,"[""No Brainslug No Barriers No Money"",""No Brainslug Difficult 1 No Money""]",0,0,0,6,1,,,,,,,,,,,,,,,,,,,,,,,,,,,
,,,,,,,,,,,,66a66d138294ce022ab541fe,001,3,2024-10-09_12h25.15.335,avatar_quest_3AFC_legacy,2022.1.3,Win32,60.0240096,66a66d138294ce022ab541fe,62bca317d87d479cda00ba3d,6706ac6110c47621d1ac73e2,,,,,,,,,,,,,,,,,,,,,,With Brainslug Difficult 2 No Money,12,images/assets/snowy_original.jpg,learning,20,images/assets/success.jpg,images/assets/gameover.jpg,,,,,,,,,,,,,0,1,1,3,1,,,,,,,,,,,,,,,,,,,,,,,,,,,
