instruction_mouse.x,instruction_mouse.y,instruction_mouse.leftButton,instruction_mouse.midButton,instruction_mouse.rightButton,instruction_mouse.clicked_name,introduce_general.thisRepN,introduce_general.thisTrialN,introduce_general.thisN,introduce_general.thisIndex,introduce_general.ran,thisInstruction,participant,session,game version,date,expName,psychopyVersion,OS,frameRate,PROLIFIC PID,STUDY ID,SESSION ID,move_resp.keys,move_resp.rt,end_resp.keys,phase,condition,trial_num,time_limit,completion_time,left_right_steps,number_of_obsticle_blocks,number_of_tree_blocks,quest_complete,responsivity_summary,av_inter_brainslug_intervals,proportion_jitter,jitter_direction_proportion_right,calibration_phase.thisRepN,calibration_phase.thisTrialN,calibration_phase.thisN,calibration_phase.thisIndex,calibration_phase.ran,BlockLabel,nObsticles,backgroundImage,phaseLabel,n_side_steps,success_im,gameover_im,success_condition,introduce_learning_or_choice.thisRepN,introduce_learning_or_choice.thisTrialN,introduce_learning_or_choice.thisN,introduce_learning_or_choice.thisIndex,introduce_learning_or_choice.ran,choice_resp.keys,chosen_quest,unchosen_quest,choice_resp_3afc.keys,choice_resp_3afc.rt,unchosen_quests,forced_choice_trial.thisRepN,forced_choice_trial.thisTrialN,forced_choice_trial.thisN,forced_choice_trial.thisIndex,forced_choice_trial.ran,enjoyment_slider.response,enjoyment_slider.rt,effort_slider.response,effort_slider.rt,show_loop2.thisRepN,show_loop2.thisTrialN,show_loop2.thisN,show_loop2.thisIndex,show_loop2.ran,trials_per_block.thisRepN,trials_per_block.thisTrialN,trials_per_block.thisN,trials_per_block.thisIndex,trials_per_block.ran,decision_phase_AFC.thisRepN,decision_phase_AFC.thisTrialN,decision_phase_AFC.thisN,decision_phase_AFC.thisIndex,decision_phase_AFC.ran,blockN,BlockLabel1,questIm1,BlockLabel2,questIm2,BlockLabel3,questIm3,quest_condition,showForcedChoice.thisRepN,showForcedChoice.thisTrialN,showForcedChoice.thisN,showForcedChoice.thisIndex,showForcedChoice.ran
0.42314812,-0.385185171,1,0,0,instruction_button,0,0,0,0,1,images/instructions_part1_LSM_taskversion1/Slide1.JPG,66eebc1a09c4c8c4a1447329,001,3,2024-10-09_11h54.08.688,avatar_quest_3AFC_legacy,2022.1.3,Win32,60.24096386,66eebc1a09c4c8c4a1447329,62bca317d87d479cda00ba3d,6706acca3c6b40c2f6dc5c2f,,,,,,,,,,,,,,,,,,,,,,,,,,,,,,,,,,,,,,,,,,,,,,,,,,,,,,,,,,,,,,,,,,,,,,,,,,,,,
0.390740712,-0.402777778,1,0,0,instruction_button,0,1,1,1,1,images/instructions_part1_LSM_taskversion1/Slide2.JPG,66eebc1a09c4c8c4a1447329,001,3,2024-10-09_11h54.08.688,avatar_quest_3AFC_legacy,2022.1.3,Win32,60.24096386,66eebc1a09c4c8c4a1447329,62bca317d87d479cda00ba3d,6706acca3c6b40c2f6dc5c2f,,,,,,,,,,,,,,,,,,,,,,,,,,,,,,,,,,,,,,,,,,,,,,,,,,,,,,,,,,,,,,,,,,,,,,,,,,,,,
0.422222279,-0.37962963,1,0,0,instruction_button,0,2,2,2,1,images/instructions_part1_LSM_taskversion1/Slide3.JPG,66eebc1a09c4c8c4a1447329,001,3,2024-10-09_11h54.08.688,avatar_quest_3AFC_legacy,2022.1.3,Win32,60.24096386,66eebc1a09c4c8c4a1447329,62bca317d87d479cda00ba3d,6706acca3c6b40c2f6dc5c2f,,,,,,,,,,,,,,,,,,,,,,,,,,,,,,,,,,,,,,,,,,,,,,,,,,,,,,,,,,,,,,,,,,,,,,,,,,,,,
0.422222279,-0.404629672,1,0,0,instruction_button,0,3,3,3,1,images/instructions_part1_LSM_taskversion1/Slide3.5.JPG,66eebc1a09c4c8c4a1447329,001,3,2024-10-09_11h54.08.688,avatar_quest_3AFC_legacy,2022.1.3,Win32,60.24096386,66eebc1a09c4c8c4a1447329,62bca317d87d479cda00ba3d,6706acca3c6b40c2f6dc5c2f,,,,,,,,,,,,,,,,,,,,,,,,,,,,,,,,,,,,,,,,,,,,,,,,,,,,,,,,,,,,,,,,,,,,,,,,,,,,,
0.375,-0.381481524,1,0,0,instruction_button,0,4,4,4,1,images/instructions_part1_LSM_taskversion1/Slide4.JPG,66eebc1a09c4c8c4a1447329,001,3,2024-10-09_11h54.08.688,avatar_quest_3AFC_legacy,2022.1.3,Win32,60.24096386,66eebc1a09c4c8c4a1447329,62bca317d87d479cda00ba3d,6706acca3c6b40c2f6dc5c2f,,,,,,,,,,,,,,,,,,,,,,,,,,,,,,,,,,,,,,,,,,,,,,,,,,,,,,,,,,,,,,,,,,,,,,,,,,,,,
0.404629601,-0.419444473,1,0,0,instruction_button,0,5,5,5,1,images/instructions_part1_LSM_taskversion1/Slide6.5.JPG,66eebc1a09c4c8c4a1447329,001,3,2024-10-09_11h54.08.688,avatar_quest_3AFC_legacy,2022.1.3,Win32,60.24096386,66eebc1a09c4c8c4a1447329,62bca317d87d479cda00ba3d,6706acca3c6b40c2f6dc5c2f,,,,,,,,,,,,,,,,,,,,,,,,,,,,,,,,,,,,,,,,,,,,,,,,,,,,,,,,,,,,,,,,,,,,,,,,,,,,,
,,,,,,,,,,,,66eebc1a09c4c8c4a1447329,001,3,2024-10-09_11h54.08.688,avatar_quest_3AFC_legacy,2022.1.3,Win32,60.24096386,66eebc1a09c4c8c4a1447329,62bca317d87d479cda00ba3d,6706acca3c6b40c2f6dc5c2f,"[""right"",""right"",""right"",""right"",""right"",""right"",""right"",""left"",""left"",""right"",""right"",""right""]","[1.5807000002861287,2.394200000286105,2.844900000095379,3.1448000001907417,3.4113000001907494,3.6637000002860987,3.9932000002860946,4.909600000381488,5.093500000000006,6.799500000000023,7.060600000381498,7.44160000038147]",,calibration,No Brainslug No Barriers No Money,1,100,7.5172,5,0,138,TRUE,na,na,na,na,0,0,0,1,1,No Brainslug No Barriers No Money,0,images/assets/snowy_original.jpg,calibration,10,images/assets/success.jpg,images/assets/gameover.jpg,never,,,,,,,,,,,,,,,,,,,,,,,,,,,,,,,,,,,,,,,,,,,,,,,,
,,,,,,,,,,,,66eebc1a09c4c8c4a1447329,001,3,2024-10-09_11h54.08.688,avatar_quest_3AFC_legacy,2022.1.3,Win32,60.24096386,66eebc1a09c4c8c4a1447329,62bca317d87d479cda00ba3d,6706acca3c6b40c2f6dc5c2f,"[""right"",""right"",""right"",""left"",""left"",""left"",""left"",""right"",""right"",""right"",""right"",""right"",""right"",""right""]","[0.20570000028612867,1.723900000095398,1.9370000000000118,2.4205999999046526,2.6229999999999905,2.8598000001907167,3.127599999904646,3.8249999999999886,4.071900000095354,4.34090000009536,4.618800000190731,4.902099999904635,5.135500000000036,5.36890000009538]",,calibration,No Brainslug No Barriers No Money,2,100,5.4421,9,0,0,TRUE,na,na,na,na,0,1,1,0,1,No Brainslug No Barriers No Money,0,images/assets/snowy_original.jpg,calibration,10,images/assets/success.jpg,images/assets/gameover.jpg,never,,,,,,,,,,,,,,,,,,,,,,,,,,,,,,,,,,,,,,,,,,,,,,,,
,,,,,,,,,,,,66eebc1a09c4c8c4a1447329,001,3,2024-10-09_11h54.08.688,avatar_quest_3AFC_legacy,2022.1.3,Win32,60.24096386,66eebc1a09c4c8c4a1447329,62bca317d87d479cda00ba3d,6706acca3c6b40c2f6dc5c2f,"[""right"",""left"",""left"",""left"",""left"",""left"",""left"",""left"",""left"",""up"",""up"",""up"",""up""]","[0.4067999997138827,1.5168999996185448,1.683999999999969,1.9167999997138736,2.824599999904649,3.300099999904603,3.5,3.68339999961853,3.8542999997138736,4.535500000000013,4.817099999904599,5.13289999961853,5.407699999809267]",,calibration,No Brainslug No Barriers No Money,3,100,5.4627,5,0,0,TRUE,na,na,na,na,0,2,2,2,1,No Brainslug No Barriers No Money,0,images/assets/snowy_original.jpg,calibration,10,images/assets/success.jpg,images/assets/gameover.jpg,never,,,,,,,,,,,,,,,,,,,,,,,,,,,,,,,,,,,,,,,,,,,,,,,,
0.415740826,-0.407407407,1,0,0,instruction_button,,,,,,images/instructions_part2_LSM_taskversion3.jpg,66eebc1a09c4c8c4a1447329,001,3,2024-10-09_11h54.08.688,avatar_quest_3AFC_legacy,2022.1.3,Win32,60.24096386,66eebc1a09c4c8c4a1447329,62bca317d87d479cda00ba3d,6706acca3c6b40c2f6dc5c2f,,,,,,,,,,,,,,,,,,,,,,,,,,,,,,0,0,0,0,1,,,,,,,,,,,,,,,,,,,,,,,,,,,,,,,,,,,,,,,,,,,
,,,,,,,,,,,,66eebc1a09c4c8c4a1447329,001,3,2024-10-09_11h54.08.688,avatar_quest_3AFC_legacy,2022.1.3,Win32,60.24096386,66eebc1a09c4c8c4a1447329,62bca317d87d479cda00ba3d,6706acca3c6b40c2f6dc5c2f,,,,,,,,,,,,,,,,,,,,,,No Brainslug Difficult 1 No Money,6,images/assets/snowy_original.jpg,learning,20,images/assets/success.jpg,images/assets/gameover.jpg,,,,,,,,With Brainslug Difficult 2 With Money,With Brainslug Difficult 1 No Money,right,8.0237,"[""With Brainslug Difficult 1 No Money"",""With Brainslug Difficult 2 No Money""]",0,0,0,6,1,,,,,,,,,,,,,,,,,,,,,,,,,,,,,,,,
,,,,,,,,,,,,66eebc1a09c4c8c4a1447329,001,3,2024-10-09_11h54.08.688,avatar_quest_3AFC_legacy,2022.1.3,Win32,60.24096386,66eebc1a09c4c8c4a1447329,62bca317d87d479cda00ba3d,6706acca3c6b40c2f6dc5c2f,,,,,,,,,,,,,,,,,,,,,,No Brainslug No Barriers No Money,0,images/assets/snowy_original.jpg,learning,10,images/assets/success.jpg,images/assets/gameover.jpg,,,,,,,,,,,,,0,1,1,10,1,,,,,,,,,,,,,,,,,,,,,,,,,,,,,,,,
,,,,,,,,,,,,66eebc1a09c4c8c4a1447329,001,3,2024-10-09_11h54.08.688,avatar_quest_3AFC_legacy,2022.1.3,Win32,60.24096386,66eebc1a09c4c8c4a1447329,62bca317d87d479cda00ba3d,6706acca3c6b40c2f6dc5c2f,,,,,,,,,,,,,,,,,,,,,,No Brainslug No Barriers With Money,0,images/assets/snowy_money.jpg,learning,10,images/assets/success_money.jpg,images/assets/gameover.jpg,,,,,,,,,,,,,0,2,2,9,1,,,,,,,,,,,,,,,,,,,,,,,,,,,,,,,,
,,,,,,,,,,,,66eebc1a09c4c8c4a1447329,001,3,2024-10-09_11h54.08.688,avatar_quest_3AFC_legacy,2022.1.3,Win32,60.24096386,66eebc1a09c4c8c4a1447329,62bca317d87d479cda00ba3d,6706acca3c6b40c2f6dc5c2f,,,,,,,,,,,,,,,,,,,,,,With Brainslug Difficult 1 No Money,6,images/assets/snowy_original.jpg,learning,20,images/assets/success.jpg,images/assets/gameover.jpg,,,,,,,,,,,,,0,3,3,1,1,,,,,,,,,,,,,,,,,,,,,,,,,,,,,,,,
,,,,,,,,,,,,66eebc1a09c4c8c4a1447329,001,3,2024-10-09_11h54.08.688,avatar_quest_3AFC_legacy,2022.1.3,Win32,60.24096386,66eebc1a09c4c8c4a1447329,62bca317d87d479cda00ba3d,6706acca3c6b40c2f6dc5c2f,"[""right"",""right"",""right"",""up"",""left"",""left"",""left"",""left"",""right"",""right"",""up"",""up"",""right"",""right"",""right"",""right""]","[1.2635000000000218,1.52800000000002,1.8781000003814938,3.077500000000043,4.261000000000024,4.527200000286143,4.827500000000043,5.094000000000051,6.01160000038152,6.280100000381481,7.527500000000032,7.813200000286145,8.210000000000036,8.460900000095364,8.743200000286151,9.059600000381522]",,calibration,With Brainslug Difficult 2 With Money,4,9.211,9.215,6,2,0,FALSE,na,na,na,na,,,,,,,,,,,,,,,,,,,,,,,,,,,,,,,,,,0,0,0,0,1,,,,,,,,,,,,,,,,,,,,,,,
,,,,,,,,,,,,66eebc1a09c4c8c4a1447329,001,3,2024-10-09_11h54.08.688,avatar_quest_3AFC_legacy,2022.1.3,Win32,60.24096386,66eebc1a09c4c8c4a1447329,62bca317d87d479cda00ba3d,6706acca3c6b40c2f6dc5c2f,,,,,,,,,,,,,,,,,,,,,,With Brainslug Difficult 2 With Money,12,images/assets/snowy_money.jpg,learning,20,images/assets/success_money.jpg,images/assets/gameover.jpg,,,,,,,,,,,,,0,4,4,2,1,,,,,,,,,,,,,,,,,,,,,,,,,,,,,,,,
,,,,,,,,,,,,66eebc1a09c4c8c4a1447329,001,3,2024-10-09_11h54.08.688,avatar_quest_3AFC_legacy,2022.1.3,Win32,60.24096386,66eebc1a09c4c8c4a1447329,62bca317d87d479cda00ba3d,6706acca3c6b40c2f6dc5c2f,,,,,,,,,,,,,,,,,,,,,,No Brainslug Difficult 2 With Money,12,images/assets/snowy_money.jpg,learning,20,images/assets/success_money.jpg,images/assets/gameover.jpg,,,,,,,,,,,,,0,5,5,7,1,,,,,,,,,,,,,,,,,,,,,,,,,,,,,,,,
,,,,,,,,,,,,66eebc1a09c4c8c4a1447329,001,3,2024-10-09_11h54.08.688,avatar_quest_3AFC_legacy,2022.1.3,Win32,60.24096386,66eebc1a09c4c8c4a1447329,62bca317d87d479cda00ba3d,6706acca3c6b40c2f6dc5c2f,,,,,,,,,,,,,,,,,,,,,,With Brainslug No Barriers No Money,0,images/assets/snowy_original.jpg,learning,10,images/assets/success.jpg,images/assets/gameover.jpg,,,,,,,,,,,,,0,6,6,5,1,,,,,,,,,,,,,,,,,,,,,,,,,,,,,,,,
,,,,,,,,,,,,66eebc1a09c4c8c4a1447329,001,3,2024-10-09_11h54.08.688,avatar_quest_3AFC_legacy,2022.1.3,Win32,60.24096386,66eebc1a09c4c8c4a1447329,62bca317d87d479cda00ba3d,6706acca3c6b40c2f6dc5c2f,,,,,,,,,,,,,,,,,,,,,,With Brainslug Difficult 2 No Money,12,images/assets/snowy_original.jpg,learning,20,images/assets/success.jpg,images/assets/gameover.jpg,,,,,,,,,,,,,0,7,7,3,1,,,,,,,,,,,,,,,,,,,,,,,,,,,,,,,,
,,,,,,,,,,,,66eebc1a09c4c8c4a1447329,001,3,2024-10-09_11h54.08.688,avatar_quest_3AFC_legacy,2022.1.3,Win32,60.24096386,66eebc1a09c4c8c4a1447329,62bca317d87d479cda00ba3d,6706acca3c6b40c2f6dc5c2f,,,,,,,,,,,,,,,,,,,,,,With Brainslug No Barriers With Money,0,images/assets/snowy_money.jpg,learning,10,images/assets/success_money.jpg,images/assets/gameover.jpg,,,,,,,,,,,,,0,8,8,4,1,,,,,,,,,,,,,,,,,,,,,,,,,,,,,,,,
,,,,,,,,,,,,66eebc1a09c4c8c4a1447329,001,3,2024-10-09_11h54.08.688,avatar_quest_3AFC_legacy,2022.1.3,Win32,60.24096386,66eebc1a09c4c8c4a1447329,62bca317d87d479cda00ba3d,6706acca3c6b40c2f6dc5c2f,,,,,,,,,,,,,,,,,,,,,,With Brainslug Difficult 1 With Money,6,images/assets/snowy_money.jpg,learning,20,images/assets/success_money.jpg,images/assets/gameover.jpg,,,,,,,,,,,,,0,9,9,0,1,,,,,,,,,,,,,,,,,,,,,,,,,,,,,,,,
,,,,,,,,,,,,66eebc1a09c4c8c4a1447329,001,3,2024-10-09_11h54.08.688,avatar_quest_3AFC_legacy,2022.1.3,Win32,60.24096386,66eebc1a09c4c8c4a1447329,62bca317d87d479cda00ba3d,6706acca3c6b40c2f6dc5c2f,,,,,,,,,,,,,,,,,,,,,,No Brainslug Difficult 2 No Money,12,images/assets/snowy_original.jpg,learning,20,images/assets/success.jpg,images/assets/gameover.jpg,,,,,,,,,,,,,0,10,10,8,1,,,,,,,,,,,,,,,,,,,,,,,,,,,,,,,,
,,,,,,,,,,,,66eebc1a09c4c8c4a1447329,001,3,2024-10-09_11h54.08.688,avatar_quest_3AFC_legacy,2022.1.3,Win32,60.24096386,66eebc1a09c4c8c4a1447329,62bca317d87d479cda00ba3d,6706acca3c6b40c2f6dc5c2f,,,,,,,,,,,,,,,,,,,,,,,,,,,,,,,,,,,,,,,,,,,,,,,,,,,,,,,0,0,0,0,1,,,,,,,,,,,,,,,,,,
,,,,,,,,,,,,66eebc1a09c4c8c4a1447329,001,3,2024-10-09_11h54.08.688,avatar_quest_3AFC_legacy,2022.1.3,Win32,60.24096386,66eebc1a09c4c8c4a1447329,62bca317d87d479cda00ba3d,6706acca3c6b40c2f6dc5c2f,,,,,,,,,,,,,,,,,,,,,,No Brainslug Difficult 2 With Money,12,images/assets/snowy_money.jpg,learning,20,images/assets/success_money.jpg,images/assets/gameover.jpg,,,,,,,,With Brainslug Difficult 2 With Money,With Brainslug Difficult 1 No Money,right,5.0149,"[""With Brainslug Difficult 1 No Money"",""With Brainslug Difficult 2 No Money""]",0,0,0,7,1,,,,,,,,,,,,,,,,,,,,,,,,,,,,,,,,
,,,,,,,,,,,,66eebc1a09c4c8c4a1447329,001,3,2024-10-09_11h54.08.688,avatar_quest_3AFC_legacy,2022.1.3,Win32,60.24096386,66eebc1a09c4c8c4a1447329,62bca317d87d479cda00ba3d,6706acca3c6b40c2f6dc5c2f,,,,,,,,,,,,,,,,,,,,,,No Brainslug No Barriers No Money,0,images/assets/snowy_original.jpg,learning,10,images/assets/success.jpg,images/assets/gameover.jpg,,,,,,,,,,,,,0,1,1,10,1,,,,,,,,,,,,,,,,,,,,,,,,,,,,,,,,
,,,,,,,,,,,,66eebc1a09c4c8c4a1447329,001,3,2024-10-09_11h54.08.688,avatar_quest_3AFC_legacy,2022.1.3,Win32,60.24096386,66eebc1a09c4c8c4a1447329,62bca317d87d479cda00ba3d,6706acca3c6b40c2f6dc5c2f,,,,,,,,,,,,,,,,,,,,,,With Brainslug Difficult 1 No Money,6,images/assets/snowy_original.jpg,learning,20,images/assets/success.jpg,images/assets/gameover.jpg,,,,,,,,,,,,,0,2,2,1,1,,,,,,,,,,,,,,,,,,,,,,,,,,,,,,,,
,,,,,,,,,,,,66eebc1a09c4c8c4a1447329,001,3,2024-10-09_11h54.08.688,avatar_quest_3AFC_legacy,2022.1.3,Win32,60.24096386,66eebc1a09c4c8c4a1447329,62bca317d87d479cda00ba3d,6706acca3c6b40c2f6dc5c2f,,,,,,,,,,,,,,,,,,,,,,No Brainslug No Barriers With Money,0,images/assets/snowy_money.jpg,learning,10,images/assets/success_money.jpg,images/assets/gameover.jpg,,,,,,,,,,,,,0,3,3,9,1,,,,,,,,,,,,,,,,,,,,,,,,,,,,,,,,
,,,,,,,,,,,,66eebc1a09c4c8c4a1447329,001,3,2024-10-09_11h54.08.688,avatar_quest_3AFC_legacy,2022.1.3,Win32,60.24096386,66eebc1a09c4c8c4a1447329,62bca317d87d479cda00ba3d,6706acca3c6b40c2f6dc5c2f,,,,,,,,,,,,,,,,,,,,,,No Brainslug Difficult 2 No Money,12,images/assets/snowy_original.jpg,learning,20,images/assets/success.jpg,images/assets/gameover.jpg,,,,,,,,,,,,,0,4,4,8,1,,,,,,,,,,,,,,,,,,,,,,,,,,,,,,,,
,,,,,,,,,,,,66eebc1a09c4c8c4a1447329,001,3,2024-10-09_11h54.08.688,avatar_quest_3AFC_legacy,2022.1.3,Win32,60.24096386,66eebc1a09c4c8c4a1447329,62bca317d87d479cda00ba3d,6706acca3c6b40c2f6dc5c2f,,,,,,,,,,,,,,,,,,,,,,With Brainslug No Barriers No Money,0,images/assets/snowy_original.jpg,learning,10,images/assets/success.jpg,images/assets/gameover.jpg,,,,,,,,,,,,,0,5,5,5,1,,,,,,,,,,,,,,,,,,,,,,,,,,,,,,,,
,,,,,,,,,,,,66eebc1a09c4c8c4a1447329,001,3,2024-10-09_11h54.08.688,avatar_quest_3AFC_legacy,2022.1.3,Win32,60.24096386,66eebc1a09c4c8c4a1447329,62bca317d87d479cda00ba3d,6706acca3c6b40c2f6dc5c2f,,,,,,,,,,,,,,,,,,,,,,No Brainslug Difficult 1 No Money,6,images/assets/snowy_original.jpg,learning,20,images/assets/success.jpg,images/assets/gameover.jpg,,,,,,,,,,,,,0,6,6,6,1,,,,,,,,,,,,,,,,,,,,,,,,,,,,,,,,
,,,,,,,,,,,,66eebc1a09c4c8c4a1447329,001,3,2024-10-09_11h54.08.688,avatar_quest_3AFC_legacy,2022.1.3,Win32,60.24096386,66eebc1a09c4c8c4a1447329,62bca317d87d479cda00ba3d,6706acca3c6b40c2f6dc5c2f,,,,,,,,,,,,,,,,,,,,,,With Brainslug No Barriers With Money,0,images/assets/snowy_money.jpg,learning,10,images/assets/success_money.jpg,images/assets/gameover.jpg,,,,,,,,,,,,,0,7,7,4,1,,,,,,,,,,,,,,,,,,,,,,,,,,,,,,,,
,,,,,,,,,,,,66eebc1a09c4c8c4a1447329,001,3,2024-10-09_11h54.08.688,avatar_quest_3AFC_legacy,2022.1.3,Win32,60.24096386,66eebc1a09c4c8c4a1447329,62bca317d87d479cda00ba3d,6706acca3c6b40c2f6dc5c2f,,,,,,,,,,,,,,,,,,,,,,With Brainslug Difficult 1 With Money,6,images/assets/snowy_money.jpg,learning,20,images/assets/success_money.jpg,images/assets/gameover.jpg,,,,,,,,,,,,,0,8,8,0,1,,,,,,,,,,,,,,,,,,,,,,,,,,,,,,,,
,,,,,,,,,,,,66eebc1a09c4c8c4a1447329,001,3,2024-10-09_11h54.08.688,avatar_quest_3AFC_legacy,2022.1.3,Win32,60.24096386,66eebc1a09c4c8c4a1447329,62bca317d87d479cda00ba3d,6706acca3c6b40c2f6dc5c2f,,,,,,,,,,,,,,,,,,,,,,With Brainslug Difficult 2 No Money,12,images/assets/snowy_original.jpg,learning,20,images/assets/success.jpg,images/assets/gameover.jpg,,,,,,,,,,,,,0,9,9,3,1,,,,,,,,,,,,,,,,,,,,,,,,,,,,,,,,
,,,,,,,,,,,,66eebc1a09c4c8c4a1447329,001,3,2024-10-09_11h54.08.688,avatar_quest_3AFC_legacy,2022.1.3,Win32,60.24096386,66eebc1a09c4c8c4a1447329,62bca317d87d479cda00ba3d,6706acca3c6b40c2f6dc5c2f,"[""left"",""left"",""left"",""down"",""right"",""right"",""right"",""right"",""right"",""left""]","[2.893900000095357,3.3270999999046467,3.576999999999998,4.410800000190704,5.726999999999975,6.059500000000014,6.376800000190713,7.043599999904643,7.493499999999983,8.843500000000006]",,calibration,With Brainslug Difficult 2 With Money,5,9.211,9.2206,6,4,0,FALSE,na,na,na,na,,,,,,,,,,,,,,,,,,,,,,,,,,,,,,,,,,0,0,0,0,1,,,,,,,,,,,,,,,,,,,,,,,
,,,,,,,,,,,,66eebc1a09c4c8c4a1447329,001,3,2024-10-09_11h54.08.688,avatar_quest_3AFC_legacy,2022.1.3,Win32,60.24096386,66eebc1a09c4c8c4a1447329,62bca317d87d479cda00ba3d,6706acca3c6b40c2f6dc5c2f,,,,,,,,,,,,,,,,,,,,,,With Brainslug Difficult 2 With Money,12,images/assets/snowy_money.jpg,learning,20,images/assets/success_money.jpg,images/assets/gameover.jpg,,,,,,,,,,,,,0,10,10,2,1,,,,,,,,,,,,,,,,,,,,,,,,,,,,,,,,
,,,,,,,,,,,,66eebc1a09c4c8c4a1447329,001,3,2024-10-09_11h54.08.688,avatar_quest_3AFC_legacy,2022.1.3,Win32,60.24096386,66eebc1a09c4c8c4a1447329,62bca317d87d479cda00ba3d,6706acca3c6b40c2f6dc5c2f,,,,,,,,,,,,,,,,,,,,,,,,,,,,,,,,,,,,,,,,,,,,,,,,,,,,,,,1,0,1,0,1,,,,,,,,,,,,,,,,,,
,,,,,,,,,,,,66eebc1a09c4c8c4a1447329,001,3,2024-10-09_11h54.08.688,avatar_quest_3AFC_legacy,2022.1.3,Win32,60.24096386,66eebc1a09c4c8c4a1447329,62bca317d87d479cda00ba3d,6706acca3c6b40c2f6dc5c2f,"[""left"",""left"",""left"",""left"",""left"",""left"",""right"",""right"",""right"",""right"",""right"",""left"",""left"",""left"",""up"",""up"",""right""]","[1.9783000001906998,2.220999999999947,2.5059000000953233,2.720900000095355,3.0214000000953547,3.354100000381436,4.104300000190733,4.404300000190688,4.620900000095332,4.854600000381424,5.103999999999985,6.5447000002860705,6.8279999999999745,7.061900000095363,8.160800000190704,8.461800000190692,9.011600000381463]",,calibration,With Brainslug Difficult 2 With Money,6,9.211,9.2149,7,4,0,FALSE,na,na,na,na,,,,,,,,,,,,,,,,,,,,With Brainslug Difficult 2 With Money,With Brainslug Difficult 1 No Money,right,2.4889,"[""With Brainslug Difficult 1 No Money"",""With Brainslug Difficult 2 No Money""]",,,,,,,,,,0,0,0,0,1,,,,,,,,,,,,,,,,,,,,,,,
,,,,,,,,,,,,66eebc1a09c4c8c4a1447329,001,3,2024-10-09_11h54.08.688,avatar_quest_3AFC_legacy,2022.1.3,Win32,60.24096386,66eebc1a09c4c8c4a1447329,62bca317d87d479cda00ba3d,6706acca3c6b40c2f6dc5c2f,,,,,,,,,,,,,,,,,,,,,,With Brainslug Difficult 2 With Money,12,images/assets/snowy_money.jpg,learning,20,images/assets/success_money.jpg,images/assets/gameover.jpg,,,,,,,,,,,,,0,0,0,2,1,,,,,,,,,,,,,,,,,,,,,,,,,,,,,,,,
,,,,,,,,,,,,66eebc1a09c4c8c4a1447329,001,3,2024-10-09_11h54.08.688,avatar_quest_3AFC_legacy,2022.1.3,Win32,60.24096386,66eebc1a09c4c8c4a1447329,62bca317d87d479cda00ba3d,6706acca3c6b40c2f6dc5c2f,,,,,,,,,,,,,,,,,,,,,,No Brainslug No Barriers With Money,0,images/assets/snowy_money.jpg,learning,10,images/assets/success_money.jpg,images/assets/gameover.jpg,,,,,,,,,,,,,0,1,1,9,1,,,,,,,,,,,,,,,,,,,,,,,,,,,,,,,,
,,,,,,,,,,,,66eebc1a09c4c8c4a1447329,001,3,2024-10-09_11h54.08.688,avatar_quest_3AFC_legacy,2022.1.3,Win32,60.24096386,66eebc1a09c4c8c4a1447329,62bca317d87d479cda00ba3d,6706acca3c6b40c2f6dc5c2f,,,,,,,,,,,,,,,,,,,,,,With Brainslug Difficult 1 With Money,6,images/assets/snowy_money.jpg,learning,20,images/assets/success_money.jpg,images/assets/gameover.jpg,,,,,,,,,,,,,0,2,2,0,1,,,,,,,,,,,,,,,,,,,,,,,,,,,,,,,,
,,,,,,,,,,,,66eebc1a09c4c8c4a1447329,001,3,2024-10-09_11h54.08.688,avatar_quest_3AFC_legacy,2022.1.3,Win32,60.24096386,66eebc1a09c4c8c4a1447329,62bca317d87d479cda00ba3d,6706acca3c6b40c2f6dc5c2f,,,,,,,,,,,,,,,,,,,,,,No Brainslug Difficult 1 No Money,6,images/assets/snowy_original.jpg,learning,20,images/assets/success.jpg,images/assets/gameover.jpg,,,,,,,,,,,,,0,3,3,6,1,,,,,,,,,,,,,,,,,,,,,,,,,,,,,,,,
,,,,,,,,,,,,66eebc1a09c4c8c4a1447329,001,3,2024-10-09_11h54.08.688,avatar_quest_3AFC_legacy,2022.1.3,Win32,60.24096386,66eebc1a09c4c8c4a1447329,62bca317d87d479cda00ba3d,6706acca3c6b40c2f6dc5c2f,,,,,,,,,,,,,,,,,,,,,,No Brainslug No Barriers No Money,0,images/assets/snowy_original.jpg,learning,10,images/assets/success.jpg,images/assets/gameover.jpg,,,,,,,,,,,,,0,4,4,10,1,,,,,,,,,,,,,,,,,,,,,,,,,,,,,,,,
,,,,,,,,,,,,66eebc1a09c4c8c4a1447329,001,3,2024-10-09_11h54.08.688,avatar_quest_3AFC_legacy,2022.1.3,Win32,60.24096386,66eebc1a09c4c8c4a1447329,62bca317d87d479cda00ba3d,6706acca3c6b40c2f6dc5c2f,,,,,,,,,,,,,,,,,,,,,,No Brainslug Difficult 2 No Money,12,images/assets/snowy_original.jpg,learning,20,images/assets/success.jpg,images/assets/gameover.jpg,,,,,,,,,,,,,0,5,5,8,1,,,,,,,,,,,,,,,,,,,,,,,,,,,,,,,,
,,,,,,,,,,,,66eebc1a09c4c8c4a1447329,001,3,2024-10-09_11h54.08.688,avatar_quest_3AFC_legacy,2022.1.3,Win32,60.24096386,66eebc1a09c4c8c4a1447329,62bca317d87d479cda00ba3d,6706acca3c6b40c2f6dc5c2f,,,,,,,,,,,,,,,,,,,,,,No Brainslug Difficult 2 With Money,12,images/assets/snowy_money.jpg,learning,20,images/assets/success_money.jpg,images/assets/gameover.jpg,,,,,,,,,,,,,0,6,6,7,1,,,,,,,,,,,,,,,,,,,,,,,,,,,,,,,,
,,,,,,,,,,,,66eebc1a09c4c8c4a1447329,001,3,2024-10-09_11h54.08.688,avatar_quest_3AFC_legacy,2022.1.3,Win32,60.24096386,66eebc1a09c4c8c4a1447329,62bca317d87d479cda00ba3d,6706acca3c6b40c2f6dc5c2f,,,,,,,,,,,,,,,,,,,,,,With Brainslug Difficult 2 No Money,12,images/assets/snowy_original.jpg,learning,20,images/assets/success.jpg,images/assets/gameover.jpg,,,,,,,,,,,,,0,7,7,3,1,,,,,,,,,,,,,,,,,,,,,,,,,,,,,,,,
,,,,,,,,,,,,66eebc1a09c4c8c4a1447329,001,3,2024-10-09_11h54.08.688,avatar_quest_3AFC_legacy,2022.1.3,Win32,60.24096386,66eebc1a09c4c8c4a1447329,62bca317d87d479cda00ba3d,6706acca3c6b40c2f6dc5c2f,,,,,,,,,,,,,,,,,,,,,,With Brainslug No Barriers No Money,0,images/assets/snowy_original.jpg,learning,10,images/assets/success.jpg,images/assets/gameover.jpg,,,,,,,,,,,,,0,8,8,5,1,,,,,,,,,,,,,,,,,,,,,,,,,,,,,,,,
,,,,,,,,,,,,66eebc1a09c4c8c4a1447329,001,3,2024-10-09_11h54.08.688,avatar_quest_3AFC_legacy,2022.1.3,Win32,60.24096386,66eebc1a09c4c8c4a1447329,62bca317d87d479cda00ba3d,6706acca3c6b40c2f6dc5c2f,,,,,,,,,,,,,,,,,,,,,,With Brainslug Difficult 1 No Money,6,images/assets/snowy_original.jpg,learning,20,images/assets/success.jpg,images/assets/gameover.jpg,,,,,,,,,,,,,0,9,9,1,1,,,,,,,,,,,,,,,,,,,,,,,,,,,,,,,,
,,,,,,,,,,,,66eebc1a09c4c8c4a1447329,001,3,2024-10-09_11h54.08.688,avatar_quest_3AFC_legacy,2022.1.3,Win32,60.24096386,66eebc1a09c4c8c4a1447329,62bca317d87d479cda00ba3d,6706acca3c6b40c2f6dc5c2f,,,,,,,,,,,,,,,,,,,,,,With Brainslug No Barriers With Money,0,images/assets/snowy_money.jpg,learning,10,images/assets/success_money.jpg,images/assets/gameover.jpg,,,,,,,,,,,,,0,10,10,4,1,,,,,,,,,,,,,,,,,,,,,,,,,,,,,,,,
,,,,,,,,,,,,66eebc1a09c4c8c4a1447329,001,3,2024-10-09_11h54.08.688,avatar_quest_3AFC_legacy,2022.1.3,Win32,60.24096386,66eebc1a09c4c8c4a1447329,62bca317d87d479cda00ba3d,6706acca3c6b40c2f6dc5c2f,,,,,,,,,,,,,,,,,,,,,,,,,,,,,,,,,,,,,,,,,,,,,,,,,,,,,,,2,0,2,0,1,,,,,,,,,,,,,,,,,,
,,,,,,,,,,,,66eebc1a09c4c8c4a1447329,001,3,2024-10-09_11h54.08.688,avatar_quest_3AFC_legacy,2022.1.3,Win32,60.24096386,66eebc1a09c4c8c4a1447329,62bca317d87d479cda00ba3d,6706acca3c6b40c2f6dc5c2f,,,,,,,,,,,,,,,,,,,,,,No Brainslug No Barriers With Money,0,images/assets/snowy_money.jpg,learning,10,images/assets/success_money.jpg,images/assets/gameover.jpg,,,,,,,,With Brainslug Difficult 2 With Money,With Brainslug Difficult 1 No Money,right,19.6939,"[""With Brainslug Difficult 1 No Money"",""With Brainslug Difficult 2 No Money""]",0,0,0,9,1,,,,,,,,,,,,,,,,,,,,,,,,,,,,,,,,
,,,,,,,,,,,,66eebc1a09c4c8c4a1447329,001,3,2024-10-09_11h54.08.688,avatar_quest_3AFC_legacy,2022.1.3,Win32,60.24096386,66eebc1a09c4c8c4a1447329,62bca317d87d479cda00ba3d,6706acca3c6b40c2f6dc5c2f,,,,,,,,,,,,,,,,,,,,,,With Brainslug Difficult 1 No Money,6,images/assets/snowy_original.jpg,learning,20,images/assets/success.jpg,images/assets/gameover.jpg,,,,,,,,,,,,,0,1,1,1,1,,,,,,,,,,,,,,,,,,,,,,,,,,,,,,,,
,,,,,,,,,,,,66eebc1a09c4c8c4a1447329,001,3,2024-10-09_11h54.08.688,avatar_quest_3AFC_legacy,2022.1.3,Win32,60.24096386,66eebc1a09c4c8c4a1447329,62bca317d87d479cda00ba3d,6706acca3c6b40c2f6dc5c2f,,,,,,,,,,,,,,,,,,,,,,No Brainslug Difficult 1 No Money,6,images/assets/snowy_original.jpg,learning,20,images/assets/success.jpg,images/assets/gameover.jpg,,,,,,,,,,,,,0,2,2,6,1,,,,,,,,,,,,,,,,,,,,,,,,,,,,,,,,
,,,,,,,,,,,,66eebc1a09c4c8c4a1447329,001,3,2024-10-09_11h54.08.688,avatar_quest_3AFC_legacy,2022.1.3,Win32,60.24096386,66eebc1a09c4c8c4a1447329,62bca317d87d479cda00ba3d,6706acca3c6b40c2f6dc5c2f,,,,,,,,,,,,,,,,,,,,,,No Brainslug Difficult 2 With Money,12,images/assets/snowy_money.jpg,learning,20,images/assets/success_money.jpg,images/assets/gameover.jpg,,,,,,,,,,,,,0,3,3,7,1,,,,,,,,,,,,,,,,,,,,,,,,,,,,,,,,
,,,,,,,,,,,,66eebc1a09c4c8c4a1447329,001,3,2024-10-09_11h54.08.688,avatar_quest_3AFC_legacy,2022.1.3,Win32,60.24096386,66eebc1a09c4c8c4a1447329,62bca317d87d479cda00ba3d,6706acca3c6b40c2f6dc5c2f,,,,,,,,,,,,,,,,,,,,,,With Brainslug Difficult 2 No Money,12,images/assets/snowy_original.jpg,learning,20,images/assets/success.jpg,images/assets/gameover.jpg,,,,,,,,,,,,,0,4,4,3,1,,,,,,,,,,,,,,,,,,,,,,,,,,,,,,,,
,,,,,,,,,,,,66eebc1a09c4c8c4a1447329,001,3,2024-10-09_11h54.08.688,avatar_quest_3AFC_legacy,2022.1.3,Win32,60.24096386,66eebc1a09c4c8c4a1447329,62bca317d87d479cda00ba3d,6706acca3c6b40c2f6dc5c2f,,,,,,,,,,,,,,,,,,,,,,With Brainslug No Barriers With Money,0,images/assets/snowy_money.jpg,learning,10,images/assets/success_money.jpg,images/assets/gameover.jpg,,,,,,,,,,,,,0,5,5,4,1,,,,,,,,,,,,,,,,,,,,,,,,,,,,,,,,
,,,,,,,,,,,,66eebc1a09c4c8c4a1447329,001,3,2024-10-09_11h54.08.688,avatar_quest_3AFC_legacy,2022.1.3,Win32,60.24096386,66eebc1a09c4c8c4a1447329,62bca317d87d479cda00ba3d,6706acca3c6b40c2f6dc5c2f,,,,,,,,,,,,,,,,,,,,,,With Brainslug No Barriers No Money,0,images/assets/snowy_original.jpg,learning,10,images/assets/success.jpg,images/assets/gameover.jpg,,,,,,,,,,,,,0,6,6,5,1,,,,,,,,,,,,,,,,,,,,,,,,,,,,,,,,
,,,,,,,,,,,,66eebc1a09c4c8c4a1447329,001,3,2024-10-09_11h54.08.688,avatar_quest_3AFC_legacy,2022.1.3,Win32,60.24096386,66eebc1a09c4c8c4a1447329,62bca317d87d479cda00ba3d,6706acca3c6b40c2f6dc5c2f,"[""left"",""left"",""left"",""down"",""right"",""right"",""right"",""up"",""down"",""down"",""down"",""down"",""down"",""right"",""right""]","[1.6514999999999986,1.8857999997138677,2.2180000000000177,3.7350000000000136,4.268199999809269,5.252799999713886,5.768599999904609,6.784699999809277,7.217799999713918,7.451000000000022,7.80069999980924,8.067699999809236,8.301299999713876,8.66740000009537,8.917799999713907]",,calibration,With Brainslug Difficult 2 With Money,7,9.211,9.215,5,2,0,FALSE,na,na,na,na,,,,,,,,,,,,,,,,,,,,,,,,,,,,,,,,,,0,0,0,0,1,,,,,,,,,,,,,,,,,,,,,,,
,,,,,,,,,,,,66eebc1a09c4c8c4a1447329,001,3,2024-10-09_11h54.08.688,avatar_quest_3AFC_legacy,2022.1.3,Win32,60.24096386,66eebc1a09c4c8c4a1447329,62bca317d87d479cda00ba3d,6706acca3c6b40c2f6dc5c2f,,,,,,,,,,,,,,,,,,,,,,With Brainslug Difficult 2 With Money,12,images/assets/snowy_money.jpg,learning,20,images/assets/success_money.jpg,images/assets/gameover.jpg,,,,,,,,,,,,,0,7,7,2,1,,,,,,,,,,,,,,,,,,,,,,,,,,,,,,,,
,,,,,,,,,,,,66eebc1a09c4c8c4a1447329,001,3,2024-10-09_11h54.08.688,avatar_quest_3AFC_legacy,2022.1.3,Win32,60.24096386,66eebc1a09c4c8c4a1447329,62bca317d87d479cda00ba3d,6706acca3c6b40c2f6dc5c2f,,,,,,,,,,,,,,,,,,,,,,No Brainslug Difficult 2 No Money,12,images/assets/snowy_original.jpg,learning,20,images/assets/success.jpg,images/assets/gameover.jpg,,,,,,,,,,,,,0,8,8,8,1,,,,,,,,,,,,,,,,,,,,,,,,,,,,,,,,
,,,,,,,,,,,,66eebc1a09c4c8c4a1447329,001,3,2024-10-09_11h54.08.688,avatar_quest_3AFC_legacy,2022.1.3,Win32,60.24096386,66eebc1a09c4c8c4a1447329,62bca317d87d479cda00ba3d,6706acca3c6b40c2f6dc5c2f,,,,,,,,,,,,,,,,,,,,,,No Brainslug No Barriers No Money,0,images/assets/snowy_original.jpg,learning,10,images/assets/success.jpg,images/assets/gameover.jpg,,,,,,,,,,,,,0,9,9,10,1,,,,,,,,,,,,,,,,,,,,,,,,,,,,,,,,
,,,,,,,,,,,,66eebc1a09c4c8c4a1447329,001,3,2024-10-09_11h54.08.688,avatar_quest_3AFC_legacy,2022.1.3,Win32,60.24096386,66eebc1a09c4c8c4a1447329,62bca317d87d479cda00ba3d,6706acca3c6b40c2f6dc5c2f,,,,,,,,,,,,,,,,,,,,,,With Brainslug Difficult 1 With Money,6,images/assets/snowy_money.jpg,learning,20,images/assets/success_money.jpg,images/assets/gameover.jpg,,,,,,,,,,,,,0,10,10,0,1,,,,,,,,,,,,,,,,,,,,,,,,,,,,,,,,
,,,,,,,,,,,,66eebc1a09c4c8c4a1447329,001,3,2024-10-09_11h54.08.688,avatar_quest_3AFC_legacy,2022.1.3,Win32,60.24096386,66eebc1a09c4c8c4a1447329,62bca317d87d479cda00ba3d,6706acca3c6b40c2f6dc5c2f,,,,,,,,,,,,,,,,,,,,,,,,,,,,,,,,,,,,,,,,,,,,,,,,,,,,,,,3,0,3,0,1,,,,,,,,,,,,,,,,,,
,,,,,,,,,,,,66eebc1a09c4c8c4a1447329,001,3,2024-10-09_11h54.08.688,avatar_quest_3AFC_legacy,2022.1.3,Win32,60.24096386,66eebc1a09c4c8c4a1447329,62bca317d87d479cda00ba3d,6706acca3c6b40c2f6dc5c2f,,,,,,,,,,,,,,,,,,,,,,With Brainslug No Barriers With Money,0,images/assets/snowy_money.jpg,learning,10,images/assets/success_money.jpg,images/assets/gameover.jpg,,,,,,,,With Brainslug Difficult 2 With Money,With Brainslug Difficult 1 No Money,right,1.4619,"[""With Brainslug Difficult 1 No Money"",""With Brainslug Difficult 2 No Money""]",0,0,0,4,1,,,,,,,,,,,,,,,,,,,,,,,,,,,,,,,,
,,,,,,,,,,,,66eebc1a09c4c8c4a1447329,001,3,2024-10-09_11h54.08.688,avatar_quest_3AFC_legacy,2022.1.3,Win32,60.24096386,66eebc1a09c4c8c4a1447329,62bca317d87d479cda00ba3d,6706acca3c6b40c2f6dc5c2f,,,,,,,,,,,,,,,,,,,,,,No Brainslug No Barriers With Money,0,images/assets/snowy_money.jpg,learning,10,images/assets/success_money.jpg,images/assets/gameover.jpg,,,,,,,,,,,,,0,1,1,9,1,,,,,,,,,,,,,,,,,,,,,,,,,,,,,,,,
,,,,,,,,,,,,66eebc1a09c4c8c4a1447329,001,3,2024-10-09_11h54.08.688,avatar_quest_3AFC_legacy,2022.1.3,Win32,60.24096386,66eebc1a09c4c8c4a1447329,62bca317d87d479cda00ba3d,6706acca3c6b40c2f6dc5c2f,,,,,,,,,,,,,,,,,,,,,,No Brainslug Difficult 1 No Money,6,images/assets/snowy_original.jpg,learning,20,images/assets/success.jpg,images/assets/gameover.jpg,,,,,,,,,,,,,0,2,2,6,1,,,,,,,,,,,,,,,,,,,,,,,,,,,,,,,,
,,,,,,,,,,,,66eebc1a09c4c8c4a1447329,001,3,2024-10-09_11h54.08.688,avatar_quest_3AFC_legacy,2022.1.3,Win32,60.24096386,66eebc1a09c4c8c4a1447329,62bca317d87d479cda00ba3d,6706acca3c6b40c2f6dc5c2f,,,,,,,,,,,,,,,,,,,,,,No Brainslug Difficult 2 No Money,12,images/assets/snowy_original.jpg,learning,20,images/assets/success.jpg,images/assets/gameover.jpg,,,,,,,,,,,,,0,3,3,8,1,,,,,,,,,,,,,,,,,,,,,,,,,,,,,,,,
,,,,,,,,,,,,66eebc1a09c4c8c4a1447329,001,3,2024-10-09_11h54.08.688,avatar_quest_3AFC_legacy,2022.1.3,Win32,60.24096386,66eebc1a09c4c8c4a1447329,62bca317d87d479cda00ba3d,6706acca3c6b40c2f6dc5c2f,,,,,,,,,,,,,,,,,,,,,,No Brainslug No Barriers No Money,0,images/assets/snowy_original.jpg,learning,10,images/assets/success.jpg,images/assets/gameover.jpg,,,,,,,,,,,,,0,4,4,10,1,,,,,,,,,,,,,,,,,,,,,,,,,,,,,,,,
,,,,,,,,,,,,66eebc1a09c4c8c4a1447329,001,3,2024-10-09_11h54.08.688,avatar_quest_3AFC_legacy,2022.1.3,Win32,60.24096386,66eebc1a09c4c8c4a1447329,62bca317d87d479cda00ba3d,6706acca3c6b40c2f6dc5c2f,,,,,,,,,,,,,,,,,,,,,,With Brainslug Difficult 1 With Money,6,images/assets/snowy_money.jpg,learning,20,images/assets/success_money.jpg,images/assets/gameover.jpg,,,,,,,,,,,,,0,5,5,0,1,,,,,,,,,,,,,,,,,,,,,,,,,,,,,,,,
,,,,,,,,,,,,66eebc1a09c4c8c4a1447329,001,3,2024-10-09_11h54.08.688,avatar_quest_3AFC_legacy,2022.1.3,Win32,60.24096386,66eebc1a09c4c8c4a1447329,62bca317d87d479cda00ba3d,6706acca3c6b40c2f6dc5c2f,,,,,,,,,,,,,,,,,,,,,,With Brainslug No Barriers No Money,0,images/assets/snowy_original.jpg,learning,10,images/assets/success.jpg,images/assets/gameover.jpg,,,,,,,,,,,,,0,6,6,5,1,,,,,,,,,,,,,,,,,,,,,,,,,,,,,,,,
,,,,,,,,,,,,66eebc1a09c4c8c4a1447329,001,3,2024-10-09_11h54.08.688,avatar_quest_3AFC_legacy,2022.1.3,Win32,60.24096386,66eebc1a09c4c8c4a1447329,62bca317d87d479cda00ba3d,6706acca3c6b40c2f6dc5c2f,,,,,,,,,,,,,,,,,,,,,,With Brainslug Difficult 2 No Money,12,images/assets/snowy_original.jpg,learning,20,images/assets/success.jpg,images/assets/gameover.jpg,,,,,,,,,,,,,0,7,7,3,1,,,,,,,,,,,,,,,,,,,,,,,,,,,,,,,,
,,,,,,,,,,,,66eebc1a09c4c8c4a1447329,001,3,2024-10-09_11h54.08.688,avatar_quest_3AFC_legacy,2022.1.3,Win32,60.24096386,66eebc1a09c4c8c4a1447329,62bca317d87d479cda00ba3d,6706acca3c6b40c2f6dc5c2f,,,,,,,,,,,,,,,,,,,,,,No Brainslug Difficult 2 With Money,12,images/assets/snowy_money.jpg,learning,20,images/assets/success_money.jpg,images/assets/gameover.jpg,,,,,,,,,,,,,0,8,8,7,1,,,,,,,,,,,,,,,,,,,,,,,,,,,,,,,,
,,,,,,,,,,,,66eebc1a09c4c8c4a1447329,001,3,2024-10-09_11h54.08.688,avatar_quest_3AFC_legacy,2022.1.3,Win32,60.24096386,66eebc1a09c4c8c4a1447329,62bca317d87d479cda00ba3d,6706acca3c6b40c2f6dc5c2f,"[""left"",""left"",""left"",""left"",""left"",""right"",""right"",""right"",""right"",""right"",""right"",""right"",""right"",""right"",""right"",""up""]","[3.556500000000028,3.906800000190742,4.125699999809285,4.406400000095346,4.655999999999949,5.5244000000953974,5.722999999999956,5.972499999999968,6.223099999904662,6.472900000095365,6.705500000000029,6.990499999999997,7.273500000000013,7.538999999999987,7.871900000095366,8.337400000095386]",,calibration,With Brainslug Difficult 2 With Money,8,9.211,9.2138,4,3,0,FALSE,na,na,na,na,,,,,,,,,,,,,,,,,,,,,,,,,,,,,,,,,,0,0,0,0,1,,,,,,,,,,,,,,,,,,,,,,,
,,,,,,,,,,,,66eebc1a09c4c8c4a1447329,001,3,2024-10-09_11h54.08.688,avatar_quest_3AFC_legacy,2022.1.3,Win32,60.24096386,66eebc1a09c4c8c4a1447329,62bca317d87d479cda00ba3d,6706acca3c6b40c2f6dc5c2f,,,,,,,,,,,,,,,,,,,,,,With Brainslug Difficult 2 With Money,12,images/assets/snowy_money.jpg,learning,20,images/assets/success_money.jpg,images/assets/gameover.jpg,,,,,,,,,,,,,0,9,9,2,1,,,,,,,,,,,,,,,,,,,,,,,,,,,,,,,,
,,,,,,,,,,,,66eebc1a09c4c8c4a1447329,001,3,2024-10-09_11h54.08.688,avatar_quest_3AFC_legacy,2022.1.3,Win32,60.24096386,66eebc1a09c4c8c4a1447329,62bca317d87d479cda00ba3d,6706acca3c6b40c2f6dc5c2f,,,,,,,,,,,,,,,,,,,,,,With Brainslug Difficult 1 No Money,6,images/assets/snowy_original.jpg,learning,20,images/assets/success.jpg,images/assets/gameover.jpg,,,,,,,,,,,,,0,10,10,1,1,,,,,,,,,,,,,,,,,,,,,,,,,,,,,,,,
,,,,,,,,,,,,66eebc1a09c4c8c4a1447329,001,3,2024-10-09_11h54.08.688,avatar_quest_3AFC_legacy,2022.1.3,Win32,60.24096386,66eebc1a09c4c8c4a1447329,62bca317d87d479cda00ba3d,6706acca3c6b40c2f6dc5c2f,,,,,,,,,,,,,,,,,,,,,,,,,,,,,,,,,,,,,,,,,,,,,,,,,,,,,,,4,0,4,0,1,,,,,,,,,,,,,,,,,,
,,,,,,,,,,,,66eebc1a09c4c8c4a1447329,001,3,2024-10-09_11h54.08.688,avatar_quest_3AFC_legacy,2022.1.3,Win32,60.24096386,66eebc1a09c4c8c4a1447329,62bca317d87d479cda00ba3d,6706acca3c6b40c2f6dc5c2f,"[""right"",""right"",""left"",""left"",""left"",""left""]","[0.0007999997139904735,2.2580999999047435,3.474299999713935,4.057799999714007,4.3582999997139495,4.97439999961864]",,calibration,With Brainslug Difficult 2 With Money,9,9.211,9.221,2,3,0,FALSE,na,na,na,na,,,,,,,,,,,,,,,,,,,,With Brainslug Difficult 2 With Money,With Brainslug Difficult 1 No Money,right,84.17,"[""With Brainslug Difficult 1 No Money"",""With Brainslug Difficult 2 No Money""]",,,,,,,,,,0,0,0,0,1,,,,,,,,,,,,,,,,,,,,,,,
,,,,,,,,,,,,66eebc1a09c4c8c4a1447329,001,3,2024-10-09_11h54.08.688,avatar_quest_3AFC_legacy,2022.1.3,Win32,60.24096386,66eebc1a09c4c8c4a1447329,62bca317d87d479cda00ba3d,6706acca3c6b40c2f6dc5c2f,,,,,,,,,,,,,,,,,,,,,,With Brainslug Difficult 2 With Money,12,images/assets/snowy_money.jpg,learning,20,images/assets/success_money.jpg,images/assets/gameover.jpg,,,,,,,,,,,,,0,0,0,2,1,,,,,,,,,,,,,,,,,,,,,,,,,,,,,,,,
,,,,,,,,,,,,66eebc1a09c4c8c4a1447329,001,3,2024-10-09_11h54.08.688,avatar_quest_3AFC_legacy,2022.1.3,Win32,60.24096386,66eebc1a09c4c8c4a1447329,62bca317d87d479cda00ba3d,6706acca3c6b40c2f6dc5c2f,,,,,,,,,,,,,,,,,,,,,,With Brainslug No Barriers With Money,0,images/assets/snowy_money.jpg,learning,10,images/assets/success_money.jpg,images/assets/gameover.jpg,,,,,,,,,,,,,0,1,1,4,1,,,,,,,,,,,,,,,,,,,,,,,,,,,,,,,,
,,,,,,,,,,,,66eebc1a09c4c8c4a1447329,001,3,2024-10-09_11h54.08.688,avatar_quest_3AFC_legacy,2022.1.3,Win32,60.24096386,66eebc1a09c4c8c4a1447329,62bca317d87d479cda00ba3d,6706acca3c6b40c2f6dc5c2f,,,,,,,,,,,,,,,,,,,,,,No Brainslug Difficult 2 No Money,12,images/assets/snowy_original.jpg,learning,20,images/assets/success.jpg,images/assets/gameover.jpg,,,,,,,,,,,,,0,2,2,8,1,,,,,,,,,,,,,,,,,,,,,,,,,,,,,,,,
,,,,,,,,,,,,66eebc1a09c4c8c4a1447329,001,3,2024-10-09_11h54.08.688,avatar_quest_3AFC_legacy,2022.1.3,Win32,60.24096386,66eebc1a09c4c8c4a1447329,62bca317d87d479cda00ba3d,6706acca3c6b40c2f6dc5c2f,,,,,,,,,,,,,,,,,,,,,,No Brainslug Difficult 1 No Money,6,images/assets/snowy_original.jpg,learning,20,images/assets/success.jpg,images/assets/gameover.jpg,,,,,,,,,,,,,0,3,3,6,1,,,,,,,,,,,,,,,,,,,,,,,,,,,,,,,,
,,,,,,,,,,,,66eebc1a09c4c8c4a1447329,001,3,2024-10-09_11h54.08.688,avatar_quest_3AFC_legacy,2022.1.3,Win32,60.24096386,66eebc1a09c4c8c4a1447329,62bca317d87d479cda00ba3d,6706acca3c6b40c2f6dc5c2f,,,,,,,,,,,,,,,,,,,,,,No Brainslug No Barriers With Money,0,images/assets/snowy_money.jpg,learning,10,images/assets/success_money.jpg,images/assets/gameover.jpg,,,,,,,,,,,,,0,4,4,9,1,,,,,,,,,,,,,,,,,,,,,,,,,,,,,,,,
,,,,,,,,,,,,66eebc1a09c4c8c4a1447329,001,3,2024-10-09_11h54.08.688,avatar_quest_3AFC_legacy,2022.1.3,Win32,60.24096386,66eebc1a09c4c8c4a1447329,62bca317d87d479cda00ba3d,6706acca3c6b40c2f6dc5c2f,,,,,,,,,,,,,,,,,,,,,,With Brainslug Difficult 1 No Money,6,images/assets/snowy_original.jpg,learning,20,images/assets/success.jpg,images/assets/gameover.jpg,,,,,,,,,,,,,0,5,5,1,1,,,,,,,,,,,,,,,,,,,,,,,,,,,,,,,,
,,,,,,,,,,,,66eebc1a09c4c8c4a1447329,001,3,2024-10-09_11h54.08.688,avatar_quest_3AFC_legacy,2022.1.3,Win32,60.24096386,66eebc1a09c4c8c4a1447329,62bca317d87d479cda00ba3d,6706acca3c6b40c2f6dc5c2f,,,,,,,,,,,,,,,,,,,,,,No Brainslug Difficult 2 With Money,12,images/assets/snowy_money.jpg,learning,20,images/assets/success_money.jpg,images/assets/gameover.jpg,,,,,,,,,,,,,0,6,6,7,1,,,,,,,,,,,,,,,,,,,,,,,,,,,,,,,,
,,,,,,,,,,,,66eebc1a09c4c8c4a1447329,001,3,2024-10-09_11h54.08.688,avatar_quest_3AFC_legacy,2022.1.3,Win32,60.24096386,66eebc1a09c4c8c4a1447329,62bca317d87d479cda00ba3d,6706acca3c6b40c2f6dc5c2f,,,,,,,,,,,,,,,,,,,,,,No Brainslug No Barriers No Money,0,images/assets/snowy_original.jpg,learning,10,images/assets/success.jpg,images/assets/gameover.jpg,,,,,,,,,,,,,0,7,7,10,1,,,,,,,,,,,,,,,,,,,,,,,,,,,,,,,,
,,,,,,,,,,,,66eebc1a09c4c8c4a1447329,001,3,2024-10-09_11h54.08.688,avatar_quest_3AFC_legacy,2022.1.3,Win32,60.24096386,66eebc1a09c4c8c4a1447329,62bca317d87d479cda00ba3d,6706acca3c6b40c2f6dc5c2f,,,,,,,,,,,,,,,,,,,,,,With Brainslug Difficult 2 No Money,12,images/assets/snowy_original.jpg,learning,20,images/assets/success.jpg,images/assets/gameover.jpg,,,,,,,,,,,,,0,8,8,3,1,,,,,,,,,,,,,,,,,,,,,,,,,,,,,,,,
,,,,,,,,,,,,66eebc1a09c4c8c4a1447329,001,3,2024-10-09_11h54.08.688,avatar_quest_3AFC_legacy,2022.1.3,Win32,60.24096386,66eebc1a09c4c8c4a1447329,62bca317d87d479cda00ba3d,6706acca3c6b40c2f6dc5c2f,,,,,,,,,,,,,,,,,,,,,,With Brainslug No Barriers No Money,0,images/assets/snowy_original.jpg,learning,10,images/assets/success.jpg,images/assets/gameover.jpg,,,,,,,,,,,,,0,9,9,5,1,,,,,,,,,,,,,,,,,,,,,,,,,,,,,,,,
,,,,,,,,,,,,66eebc1a09c4c8c4a1447329,001,3,2024-10-09_11h54.08.688,avatar_quest_3AFC_legacy,2022.1.3,Win32,60.24096386,66eebc1a09c4c8c4a1447329,62bca317d87d479cda00ba3d,6706acca3c6b40c2f6dc5c2f,,,,,,,,,,,,,,,,,,,,,,With Brainslug Difficult 1 With Money,6,images/assets/snowy_money.jpg,learning,20,images/assets/success_money.jpg,images/assets/gameover.jpg,,,,,,,,,,,,,0,10,10,0,1,,,,,,,,,,,,,,,,,,,,,,,,,,,,,,,,
,,,,,,,,,,,,66eebc1a09c4c8c4a1447329,001,3,2024-10-09_11h54.08.688,avatar_quest_3AFC_legacy,2022.1.3,Win32,60.24096386,66eebc1a09c4c8c4a1447329,62bca317d87d479cda00ba3d,6706acca3c6b40c2f6dc5c2f,,,,,,,,,,,,,,,,,,,,,,,,,,,,,,,,,,,,,,,,,,,,,,,,,,,,,,,5,0,5,0,1,,,,,,,,,,,,,,,,,,
,,,,,,,,,,,,66eebc1a09c4c8c4a1447329,001,3,2024-10-09_11h54.08.688,avatar_quest_3AFC_legacy,2022.1.3,Win32,60.24096386,66eebc1a09c4c8c4a1447329,62bca317d87d479cda00ba3d,6706acca3c6b40c2f6dc5c2f,,,,,,,,,,,,,,,,,,,,,,With Brainslug No Barriers No Money,0,images/assets/snowy_original.jpg,learning,10,images/assets/success.jpg,images/assets/gameover.jpg,,,,,,,,With Brainslug Difficult 2 With Money,With Brainslug Difficult 1 No Money,right,14.6704,"[""With Brainslug Difficult 1 No Money"",""With Brainslug Difficult 2 No Money""]",0,0,0,5,1,,,,,,,,,,,,,,,,,,,,,,,,,,,,,,,,
,,,,,,,,,,,,66eebc1a09c4c8c4a1447329,001,3,2024-10-09_11h54.08.688,avatar_quest_3AFC_legacy,2022.1.3,Win32,60.24096386,66eebc1a09c4c8c4a1447329,62bca317d87d479cda00ba3d,6706acca3c6b40c2f6dc5c2f,,,,,,,,,,,,,,,,,,,,,,No Brainslug Difficult 2 With Money,12,images/assets/snowy_money.jpg,learning,20,images/assets/success_money.jpg,images/assets/gameover.jpg,,,,,,,,,,,,,0,1,1,7,1,,,,,,,,,,,,,,,,,,,,,,,,,,,,,,,,
,,,,,,,,,,,,66eebc1a09c4c8c4a1447329,001,3,2024-10-09_11h54.08.688,avatar_quest_3AFC_legacy,2022.1.3,Win32,60.24096386,66eebc1a09c4c8c4a1447329,62bca317d87d479cda00ba3d,6706acca3c6b40c2f6dc5c2f,,,,,,,,,,,,,,,,,,,,,,No Brainslug No Barriers With Money,0,images/assets/snowy_money.jpg,learning,10,images/assets/success_money.jpg,images/assets/gameover.jpg,,,,,,,,,,,,,0,2,2,9,1,,,,,,,,,,,,,,,,,,,,,,,,,,,,,,,,
,,,,,,,,,,,,66eebc1a09c4c8c4a1447329,001,3,2024-10-09_11h54.08.688,avatar_quest_3AFC_legacy,2022.1.3,Win32,60.24096386,66eebc1a09c4c8c4a1447329,62bca317d87d479cda00ba3d,6706acca3c6b40c2f6dc5c2f,,,,,,,,,,,,,,,,,,,,,,With Brainslug Difficult 2 No Money,12,images/assets/snowy_original.jpg,learning,20,images/assets/success.jpg,images/assets/gameover.jpg,,,,,,,,,,,,,0,3,3,3,1,,,,,,,,,,,,,,,,,,,,,,,,,,,,,,,,
,,,,,,,,,,,,66eebc1a09c4c8c4a1447329,001,3,2024-10-09_11h54.08.688,avatar_quest_3AFC_legacy,2022.1.3,Win32,60.24096386,66eebc1a09c4c8c4a1447329,62bca317d87d479cda00ba3d,6706acca3c6b40c2f6dc5c2f,,,,,,,,,,,,,,,,,,,,,,No Brainslug Difficult 2 No Money,12,images/assets/snowy_original.jpg,learning,20,images/assets/success.jpg,images/assets/gameover.jpg,,,,,,,,,,,,,0,4,4,8,1,,,,,,,,,,,,,,,,,,,,,,,,,,,,,,,,
,,,,,,,,,,,,66eebc1a09c4c8c4a1447329,001,3,2024-10-09_11h54.08.688,avatar_quest_3AFC_legacy,2022.1.3,Win32,60.24096386,66eebc1a09c4c8c4a1447329,62bca317d87d479cda00ba3d,6706acca3c6b40c2f6dc5c2f,,,,,,,,,,,,,,,,,,,,,,No Brainslug No Barriers No Money,0,images/assets/snowy_original.jpg,learning,10,images/assets/success.jpg,images/assets/gameover.jpg,,,,,,,,,,,,,0,5,5,10,1,,,,,,,,,,,,,,,,,,,,,,,,,,,,,,,,
,,,,,,,,,,,,66eebc1a09c4c8c4a1447329,001,3,2024-10-09_11h54.08.688,avatar_quest_3AFC_legacy,2022.1.3,Win32,60.24096386,66eebc1a09c4c8c4a1447329,62bca317d87d479cda00ba3d,6706acca3c6b40c2f6dc5c2f,,,,,,,,,,,,,,,,,,,,,,With Brainslug No Barriers With Money,0,images/assets/snowy_money.jpg,learning,10,images/assets/success_money.jpg,images/assets/gameover.jpg,,,,,,,,,,,,,0,6,6,4,1,,,,,,,,,,,,,,,,,,,,,,,,,,,,,,,,
,,,,,,,,,,,,66eebc1a09c4c8c4a1447329,001,3,2024-10-09_11h54.08.688,avatar_quest_3AFC_legacy,2022.1.3,Win32,60.24096386,66eebc1a09c4c8c4a1447329,62bca317d87d479cda00ba3d,6706acca3c6b40c2f6dc5c2f,,,,,,,,,,,,,,,,,,,,,,With Brainslug Difficult 1 No Money,6,images/assets/snowy_original.jpg,learning,20,images/assets/success.jpg,images/assets/gameover.jpg,,,,,,,,,,,,,0,7,7,1,1,,,,,,,,,,,,,,,,,,,,,,,,,,,,,,,,
,,,,,,,,,,,,66eebc1a09c4c8c4a1447329,001,3,2024-10-09_11h54.08.688,avatar_quest_3AFC_legacy,2022.1.3,Win32,60.24096386,66eebc1a09c4c8c4a1447329,62bca317d87d479cda00ba3d,6706acca3c6b40c2f6dc5c2f,"[""left"",""left"",""left"",""left"",""left"",""left"",""right"",""right"",""right"",""right"",""right"",""right""]","[2.601600000381495,3.4514000000954184,3.8167000002861187,4.385499999999979,4.801900000095316,5.169400000095379,5.9358000001907385,6.4356000003814415,6.718700000286049,7.485500000000002,8.034999999999968,8.501600000381472]",,calibration,With Brainslug Difficult 2 With Money,10,9.211,9.2148,7,3,0,FALSE,na,na,na,na,,,,,,,,,,,,,,,,,,,,,,,,,,,,,,,,,,0,0,0,0,1,,,,,,,,,,,,,,,,,,,,,,,
,,,,,,,,,,,,66eebc1a09c4c8c4a1447329,001,3,2024-10-09_11h54.08.688,avatar_quest_3AFC_legacy,2022.1.3,Win32,60.24096386,66eebc1a09c4c8c4a1447329,62bca317d87d479cda00ba3d,6706acca3c6b40c2f6dc5c2f,,,,,,,,,,,,,,,,,,,,,,With Brainslug Difficult 2 With Money,12,images/assets/snowy_money.jpg,learning,20,images/assets/success_money.jpg,images/assets/gameover.jpg,,,,,,,,,,,,,0,8,8,2,1,,,,,,,,,,,,,,,,,,,,,,,,,,,,,,,,
,,,,,,,,,,,,66eebc1a09c4c8c4a1447329,001,3,2024-10-09_11h54.08.688,avatar_quest_3AFC_legacy,2022.1.3,Win32,60.24096386,66eebc1a09c4c8c4a1447329,62bca317d87d479cda00ba3d,6706acca3c6b40c2f6dc5c2f,,,,,,,,,,,,,,,,,,,,,,No Brainslug Difficult 1 No Money,6,images/assets/snowy_original.jpg,learning,20,images/assets/success.jpg,images/assets/gameover.jpg,,,,,,,,,,,,,0,9,9,6,1,,,,,,,,,,,,,,,,,,,,,,,,,,,,,,,,
,,,,,,,,,,,,66eebc1a09c4c8c4a1447329,001,3,2024-10-09_11h54.08.688,avatar_quest_3AFC_legacy,2022.1.3,Win32,60.24096386,66eebc1a09c4c8c4a1447329,62bca317d87d479cda00ba3d,6706acca3c6b40c2f6dc5c2f,,,,,,,,,,,,,,,,,,,,,,With Brainslug Difficult 1 With Money,6,images/assets/snowy_money.jpg,learning,20,images/assets/success_money.jpg,images/assets/gameover.jpg,,,,,,,,,,,,,0,10,10,0,1,,,,,,,,,,,,,,,,,,,,,,,,,,,,,,,,
,,,,,,,,,,,,66eebc1a09c4c8c4a1447329,001,3,2024-10-09_11h54.08.688,avatar_quest_3AFC_legacy,2022.1.3,Win32,60.24096386,66eebc1a09c4c8c4a1447329,62bca317d87d479cda00ba3d,6706acca3c6b40c2f6dc5c2f,,,,,,,,,,,,,,,,,,,,,,,,,,,,,,,,,,,,,,,,,,,,,,,,,,,,,,,6,0,6,0,1,,,,,,,,,,,,,,,,,,
,,,,,,,,,,,,66eebc1a09c4c8c4a1447329,001,3,2024-10-09_11h54.08.688,avatar_quest_3AFC_legacy,2022.1.3,Win32,60.24096386,66eebc1a09c4c8c4a1447329,62bca317d87d479cda00ba3d,6706acca3c6b40c2f6dc5c2f,"[""left"",""left"",""right"",""right"",""right"",""right"",""right"",""right"",""left"",""left"",""left"",""left"",""left"",""left"",""left"",""right"",""right"",""right"",""right"",""right""]","[0.9876999998092515,1.603699999809237,2.137499999999932,2.337199999809286,3.003500000000031,3.303799999713874,3.5533999996184775,3.8029999999999973,4.820199999809233,5.1870999999046035,5.420099999904664,5.736899999618458,5.986699999809275,6.269799999713882,6.572899999618471,7.086399999618493,7.303199999809294,7.553099999904589,7.771199999809255,8.002599999904646]",,calibration,With Brainslug Difficult 2 With Money,11,9.211,9.2147,11,5,0,FALSE,na,na,na,na,,,,,,,,,,,,,,,,,,,,With Brainslug Difficult 2 With Money,With Brainslug Difficult 1 No Money,right,47.7367,"[""With Brainslug Difficult 1 No Money"",""With Brainslug Difficult 2 No Money""]",,,,,,,,,,0,0,0,0,1,,,,,,,,,,,,,,,,,,,,,,,
,,,,,,,,,,,,66eebc1a09c4c8c4a1447329,001,3,2024-10-09_11h54.08.688,avatar_quest_3AFC_legacy,2022.1.3,Win32,60.24096386,66eebc1a09c4c8c4a1447329,62bca317d87d479cda00ba3d,6706acca3c6b40c2f6dc5c2f,,,,,,,,,,,,,,,,,,,,,,With Brainslug Difficult 2 With Money,12,images/assets/snowy_money.jpg,learning,20,images/assets/success_money.jpg,images/assets/gameover.jpg,,,,,,,,,,,,,0,0,0,2,1,,,,,,,,,,,,,,,,,,,,,,,,,,,,,,,,
,,,,,,,,,,,,66eebc1a09c4c8c4a1447329,001,3,2024-10-09_11h54.08.688,avatar_quest_3AFC_legacy,2022.1.3,Win32,60.24096386,66eebc1a09c4c8c4a1447329,62bca317d87d479cda00ba3d,6706acca3c6b40c2f6dc5c2f,,,,,,,,,,,,,,,,,,,,,,With Brainslug No Barriers With Money,0,images/assets/snowy_money.jpg,learning,10,images/assets/success_money.jpg,images/assets/gameover.jpg,,,,,,,,,,,,,0,1,1,4,1,,,,,,,,,,,,,,,,,,,,,,,,,,,,,,,,
,,,,,,,,,,,,66eebc1a09c4c8c4a1447329,001,3,2024-10-09_11h54.08.688,avatar_quest_3AFC_legacy,2022.1.3,Win32,60.24096386,66eebc1a09c4c8c4a1447329,62bca317d87d479cda00ba3d,6706acca3c6b40c2f6dc5c2f,,,,,,,,,,,,,,,,,,,,,,No Brainslug No Barriers With Money,0,images/assets/snowy_money.jpg,learning,10,images/assets/success_money.jpg,images/assets/gameover.jpg,,,,,,,,,,,,,0,2,2,9,1,,,,,,,,,,,,,,,,,,,,,,,,,,,,,,,,
,,,,,,,,,,,,66eebc1a09c4c8c4a1447329,001,3,2024-10-09_11h54.08.688,avatar_quest_3AFC_legacy,2022.1.3,Win32,60.24096386,66eebc1a09c4c8c4a1447329,62bca317d87d479cda00ba3d,6706acca3c6b40c2f6dc5c2f,,,,,,,,,,,,,,,,,,,,,,With Brainslug No Barriers No Money,0,images/assets/snowy_original.jpg,learning,10,images/assets/success.jpg,images/assets/gameover.jpg,,,,,,,,,,,,,0,3,3,5,1,,,,,,,,,,,,,,,,,,,,,,,,,,,,,,,,
,,,,,,,,,,,,66eebc1a09c4c8c4a1447329,001,3,2024-10-09_11h54.08.688,avatar_quest_3AFC_legacy,2022.1.3,Win32,60.24096386,66eebc1a09c4c8c4a1447329,62bca317d87d479cda00ba3d,6706acca3c6b40c2f6dc5c2f,,,,,,,,,,,,,,,,,,,,,,With Brainslug Difficult 2 No Money,12,images/assets/snowy_original.jpg,learning,20,images/assets/success.jpg,images/assets/gameover.jpg,,,,,,,,,,,,,0,4,4,3,1,,,,,,,,,,,,,,,,,,,,,,,,,,,,,,,,
,,,,,,,,,,,,66eebc1a09c4c8c4a1447329,001,3,2024-10-09_11h54.08.688,avatar_quest_3AFC_legacy,2022.1.3,Win32,60.24096386,66eebc1a09c4c8c4a1447329,62bca317d87d479cda00ba3d,6706acca3c6b40c2f6dc5c2f,,,,,,,,,,,,,,,,,,,,,,With Brainslug Difficult 1 With Money,6,images/assets/snowy_money.jpg,learning,20,images/assets/success_money.jpg,images/assets/gameover.jpg,,,,,,,,,,,,,0,5,5,0,1,,,,,,,,,,,,,,,,,,,,,,,,,,,,,,,,
,,,,,,,,,,,,66eebc1a09c4c8c4a1447329,001,3,2024-10-09_11h54.08.688,avatar_quest_3AFC_legacy,2022.1.3,Win32,60.24096386,66eebc1a09c4c8c4a1447329,62bca317d87d479cda00ba3d,6706acca3c6b40c2f6dc5c2f,,,,,,,,,,,,,,,,,,,,,,No Brainslug Difficult 1 No Money,6,images/assets/snowy_original.jpg,learning,20,images/assets/success.jpg,images/assets/gameover.jpg,,,,,,,,,,,,,0,6,6,6,1,,,,,,,,,,,,,,,,,,,,,,,,,,,,,,,,
,,,,,,,,,,,,66eebc1a09c4c8c4a1447329,001,3,2024-10-09_11h54.08.688,avatar_quest_3AFC_legacy,2022.1.3,Win32,60.24096386,66eebc1a09c4c8c4a1447329,62bca317d87d479cda00ba3d,6706acca3c6b40c2f6dc5c2f,,,,,,,,,,,,,,,,,,,,,,No Brainslug Difficult 2 With Money,12,images/assets/snowy_money.jpg,learning,20,images/assets/success_money.jpg,images/assets/gameover.jpg,,,,,,,,,,,,,0,7,7,7,1,,,,,,,,,,,,,,,,,,,,,,,,,,,,,,,,
,,,,,,,,,,,,66eebc1a09c4c8c4a1447329,001,3,2024-10-09_11h54.08.688,avatar_quest_3AFC_legacy,2022.1.3,Win32,60.24096386,66eebc1a09c4c8c4a1447329,62bca317d87d479cda00ba3d,6706acca3c6b40c2f6dc5c2f,,,,,,,,,,,,,,,,,,,,,,No Brainslug No Barriers No Money,0,images/assets/snowy_original.jpg,learning,10,images/assets/success.jpg,images/assets/gameover.jpg,,,,,,,,,,,,,0,8,8,10,1,,,,,,,,,,,,,,,,,,,,,,,,,,,,,,,,
,,,,,,,,,,,,66eebc1a09c4c8c4a1447329,001,3,2024-10-09_11h54.08.688,avatar_quest_3AFC_legacy,2022.1.3,Win32,60.24096386,66eebc1a09c4c8c4a1447329,62bca317d87d479cda00ba3d,6706acca3c6b40c2f6dc5c2f,,,,,,,,,,,,,,,,,,,,,,No Brainslug Difficult 2 No Money,12,images/assets/snowy_original.jpg,learning,20,images/assets/success.jpg,images/assets/gameover.jpg,,,,,,,,,,,,,0,9,9,8,1,,,,,,,,,,,,,,,,,,,,,,,,,,,,,,,,
,,,,,,,,,,,,66eebc1a09c4c8c4a1447329,001,3,2024-10-09_11h54.08.688,avatar_quest_3AFC_legacy,2022.1.3,Win32,60.24096386,66eebc1a09c4c8c4a1447329,62bca317d87d479cda00ba3d,6706acca3c6b40c2f6dc5c2f,,,,,,,,,,,,,,,,,,,,,,With Brainslug Difficult 1 No Money,6,images/assets/snowy_original.jpg,learning,20,images/assets/success.jpg,images/assets/gameover.jpg,,,,,,,,,,,,,0,10,10,1,1,,,,,,,,,,,,,,,,,,,,,,,,,,,,,,,,
,,,,,,,,,,,,66eebc1a09c4c8c4a1447329,001,3,2024-10-09_11h54.08.688,avatar_quest_3AFC_legacy,2022.1.3,Win32,60.24096386,66eebc1a09c4c8c4a1447329,62bca317d87d479cda00ba3d,6706acca3c6b40c2f6dc5c2f,,,,,,,,,,,,,,,,,,,,,,,,,,,,,,,,,,,,,,,,,,,,,,,,,,,,,,,7,0,7,0,1,,,,,,,,,,,,,,,,,,
,,,,,,,,,,,,66eebc1a09c4c8c4a1447329,001,3,2024-10-09_11h54.08.688,avatar_quest_3AFC_legacy,2022.1.3,Win32,60.24096386,66eebc1a09c4c8c4a1447329,62bca317d87d479cda00ba3d,6706acca3c6b40c2f6dc5c2f,,,,,,,,,,,,,,,,,,,,,,No Brainslug No Barriers With Money,0,images/assets/snowy_money.jpg,learning,10,images/assets/success_money.jpg,images/assets/gameover.jpg,,,,,,,,With Brainslug Difficult 2 With Money,With Brainslug Difficult 1 No Money,right,1.5644,"[""With Brainslug Difficult 1 No Money"",""With Brainslug Difficult 2 No Money""]",0,0,0,9,1,,,,,,,,,,,,,,,,,,,,,,,,,,,,,,,,
,,,,,,,,,,,,66eebc1a09c4c8c4a1447329,001,3,2024-10-09_11h54.08.688,avatar_quest_3AFC_legacy,2022.1.3,Win32,60.24096386,66eebc1a09c4c8c4a1447329,62bca317d87d479cda00ba3d,6706acca3c6b40c2f6dc5c2f,,,,,,,,,,,,,,,,,,,,,,No Brainslug Difficult 2 No Money,12,images/assets/snowy_original.jpg,learning,20,images/assets/success.jpg,images/assets/gameover.jpg,,,,,,,,,,,,,0,1,1,8,1,,,,,,,,,,,,,,,,,,,,,,,,,,,,,,,,
,,,,,,,,,,,,66eebc1a09c4c8c4a1447329,001,3,2024-10-09_11h54.08.688,avatar_quest_3AFC_legacy,2022.1.3,Win32,60.24096386,66eebc1a09c4c8c4a1447329,62bca317d87d479cda00ba3d,6706acca3c6b40c2f6dc5c2f,,,,,,,,,,,,,,,,,,,,,,With Brainslug Difficult 1 No Money,6,images/assets/snowy_original.jpg,learning,20,images/assets/success.jpg,images/assets/gameover.jpg,,,,,,,,,,,,,0,2,2,1,1,,,,,,,,,,,,,,,,,,,,,,,,,,,,,,,,
,,,,,,,,,,,,66eebc1a09c4c8c4a1447329,001,3,2024-10-09_11h54.08.688,avatar_quest_3AFC_legacy,2022.1.3,Win32,60.24096386,66eebc1a09c4c8c4a1447329,62bca317d87d479cda00ba3d,6706acca3c6b40c2f6dc5c2f,,,,,,,,,,,,,,,,,,,,,,With Brainslug No Barriers With Money,0,images/assets/snowy_money.jpg,learning,10,images/assets/success_money.jpg,images/assets/gameover.jpg,,,,,,,,,,,,,0,3,3,4,1,,,,,,,,,,,,,,,,,,,,,,,,,,,,,,,,
,,,,,,,,,,,,66eebc1a09c4c8c4a1447329,001,3,2024-10-09_11h54.08.688,avatar_quest_3AFC_legacy,2022.1.3,Win32,60.24096386,66eebc1a09c4c8c4a1447329,62bca317d87d479cda00ba3d,6706acca3c6b40c2f6dc5c2f,,,,,,,,,,,,,,,,,,,,,,With Brainslug Difficult 1 With Money,6,images/assets/snowy_money.jpg,learning,20,images/assets/success_money.jpg,images/assets/gameover.jpg,,,,,,,,,,,,,0,4,4,0,1,,,,,,,,,,,,,,,,,,,,,,,,,,,,,,,,
,,,,,,,,,,,,66eebc1a09c4c8c4a1447329,001,3,2024-10-09_11h54.08.688,avatar_quest_3AFC_legacy,2022.1.3,Win32,60.24096386,66eebc1a09c4c8c4a1447329,62bca317d87d479cda00ba3d,6706acca3c6b40c2f6dc5c2f,,,,,,,,,,,,,,,,,,,,,,With Brainslug No Barriers No Money,0,images/assets/snowy_original.jpg,learning,10,images/assets/success.jpg,images/assets/gameover.jpg,,,,,,,,,,,,,0,5,5,5,1,,,,,,,,,,,,,,,,,,,,,,,,,,,,,,,,
,,,,,,,,,,,,66eebc1a09c4c8c4a1447329,001,3,2024-10-09_11h54.08.688,avatar_quest_3AFC_legacy,2022.1.3,Win32,60.24096386,66eebc1a09c4c8c4a1447329,62bca317d87d479cda00ba3d,6706acca3c6b40c2f6dc5c2f,,,,,,,,,,,,,,,,,,,,,,No Brainslug Difficult 1 No Money,6,images/assets/snowy_original.jpg,learning,20,images/assets/success.jpg,images/assets/gameover.jpg,,,,,,,,,,,,,0,6,6,6,1,,,,,,,,,,,,,,,,,,,,,,,,,,,,,,,,
,,,,,,,,,,,,66eebc1a09c4c8c4a1447329,001,3,2024-10-09_11h54.08.688,avatar_quest_3AFC_legacy,2022.1.3,Win32,60.24096386,66eebc1a09c4c8c4a1447329,62bca317d87d479cda00ba3d,6706acca3c6b40c2f6dc5c2f,,,,,,,,,,,,,,,,,,,,,,With Brainslug Difficult 2 No Money,12,images/assets/snowy_original.jpg,learning,20,images/assets/success.jpg,images/assets/gameover.jpg,,,,,,,,,,,,,0,7,7,3,1,,,,,,,,,,,,,,,,,,,,,,,,,,,,,,,,
,,,,,,,,,,,,66eebc1a09c4c8c4a1447329,001,3,2024-10-09_11h54.08.688,avatar_quest_3AFC_legacy,2022.1.3,Win32,60.24096386,66eebc1a09c4c8c4a1447329,62bca317d87d479cda00ba3d,6706acca3c6b40c2f6dc5c2f,"[""left"",""left"",""left"",""left"",""left"",""left"",""left"",""right"",""right"",""right"",""down"",""down"",""down"",""down"",""down"",""right"",""right"",""right"",""right"",""right"",""right"",""right"",""right"",""right"",""right"",""right"",""right"",""right"",""left"",""left"",""left"",""left"",""left"",""left"",""right"",""right"",""right""]","[1.1664000000954502,1.366400000095382,1.5329000000954238,1.732800000190764,1.8828000001907412,2.082599999904687,2.2329000000954693,2.6325999999046417,2.8325000000000955,3.015900000095371,3.2995999999046717,3.5163000001907676,3.7160999999047135,3.8828000001907412,4.099099999904638,4.33240000009539,4.54950000000008,4.732400000095367,4.915900000095462,5.115800000190802,5.265900000095371,5.466300000190813,5.665700000286165,5.866099999904691,6.049000000000092,6.232300000190776,6.398900000095409,6.615800000190802,6.965800000190825,7.165700000286165,7.315599999904634,7.515500000000088,7.876300000190781,8.12280000019075,8.639499999999998,8.855700000286106,9.04730000019083]",,calibration,With Brainslug Difficult 2 With Money,12,9.211,9.222,11,4,0,FALSE,na,na,na,na,,,,,,,,,,,,,,,,,,,,,,,,,,,,,,,,,,0,0,0,0,1,,,,,,,,,,,,,,,,,,,,,,,
,,,,,,,,,,,,66eebc1a09c4c8c4a1447329,001,3,2024-10-09_11h54.08.688,avatar_quest_3AFC_legacy,2022.1.3,Win32,60.24096386,66eebc1a09c4c8c4a1447329,62bca317d87d479cda00ba3d,6706acca3c6b40c2f6dc5c2f,,,,,,,,,,,,,,,,,,,,,,With Brainslug Difficult 2 With Money,12,images/assets/snowy_money.jpg,learning,20,images/assets/success_money.jpg,images/assets/gameover.jpg,,,,,,,,,,,,,0,8,8,2,1,,,,,,,,,,,,,,,,,,,,,,,,,,,,,,,,
,,,,,,,,,,,,66eebc1a09c4c8c4a1447329,001,3,2024-10-09_11h54.08.688,avatar_quest_3AFC_legacy,2022.1.3,Win32,60.24096386,66eebc1a09c4c8c4a1447329,62bca317d87d479cda00ba3d,6706acca3c6b40c2f6dc5c2f,,,,,,,,,,,,,,,,,,,,,,No Brainslug Difficult 2 With Money,12,images/assets/snowy_money.jpg,learning,20,images/assets/success_money.jpg,images/assets/gameover.jpg,,,,,,,,,,,,,0,9,9,7,1,,,,,,,,,,,,,,,,,,,,,,,,,,,,,,,,
,,,,,,,,,,,,66eebc1a09c4c8c4a1447329,001,3,2024-10-09_11h54.08.688,avatar_quest_3AFC_legacy,2022.1.3,Win32,60.24096386,66eebc1a09c4c8c4a1447329,62bca317d87d479cda00ba3d,6706acca3c6b40c2f6dc5c2f,,,,,,,,,,,,,,,,,,,,,,No Brainslug No Barriers No Money,0,images/assets/snowy_original.jpg,learning,10,images/assets/success.jpg,images/assets/gameover.jpg,,,,,,,,,,,,,0,10,10,10,1,,,,,,,,,,,,,,,,,,,,,,,,,,,,,,,,
,,,,,,,,,,,,66eebc1a09c4c8c4a1447329,001,3,2024-10-09_11h54.08.688,avatar_quest_3AFC_legacy,2022.1.3,Win32,60.24096386,66eebc1a09c4c8c4a1447329,62bca317d87d479cda00ba3d,6706acca3c6b40c2f6dc5c2f,,,,,,,,,,,,,,,,,,,,,,,,,,,,,,,,,,,,,,,,,,,,,,,,,,,,,,,8,0,8,0,1,,,,,,,,,,,,,,,,,,
,,,,,,,,,,,,66eebc1a09c4c8c4a1447329,001,3,2024-10-09_11h54.08.688,avatar_quest_3AFC_legacy,2022.1.3,Win32,60.24096386,66eebc1a09c4c8c4a1447329,62bca317d87d479cda00ba3d,6706acca3c6b40c2f6dc5c2f,,,,,,,,,,,,,,,,,,,,,,With Brainslug Difficult 2 No Money,12,images/assets/snowy_original.jpg,learning,20,images/assets/success.jpg,images/assets/gameover.jpg,,,,,,,,With Brainslug Difficult 2 With Money,With Brainslug Difficult 1 No Money,right,69.7315,"[""With Brainslug Difficult 1 No Money"",""With Brainslug Difficult 2 No Money""]",0,0,0,3,1,,,,,,,,,,,,,,,,,,,,,,,,,,,,,,,,
,,,,,,,,,,,,66eebc1a09c4c8c4a1447329,001,3,2024-10-09_11h54.08.688,avatar_quest_3AFC_legacy,2022.1.3,Win32,60.24096386,66eebc1a09c4c8c4a1447329,62bca317d87d479cda00ba3d,6706acca3c6b40c2f6dc5c2f,,,,,,,,,,,,,,,,,,,,,,With Brainslug No Barriers No Money,0,images/assets/snowy_original.jpg,learning,10,images/assets/success.jpg,images/assets/gameover.jpg,,,,,,,,,,,,,0,1,1,5,1,,,,,,,,,,,,,,,,,,,,,,,,,,,,,,,,
,,,,,,,,,,,,66eebc1a09c4c8c4a1447329,001,3,2024-10-09_11h54.08.688,avatar_quest_3AFC_legacy,2022.1.3,Win32,60.24096386,66eebc1a09c4c8c4a1447329,62bca317d87d479cda00ba3d,6706acca3c6b40c2f6dc5c2f,,,,,,,,,,,,,,,,,,,,,,With Brainslug Difficult 1 No Money,6,images/assets/snowy_original.jpg,learning,20,images/assets/success.jpg,images/assets/gameover.jpg,,,,,,,,,,,,,0,2,2,1,1,,,,,,,,,,,,,,,,,,,,,,,,,,,,,,,,
,,,,,,,,,,,,66eebc1a09c4c8c4a1447329,001,3,2024-10-09_11h54.08.688,avatar_quest_3AFC_legacy,2022.1.3,Win32,60.24096386,66eebc1a09c4c8c4a1447329,62bca317d87d479cda00ba3d,6706acca3c6b40c2f6dc5c2f,,,,,,,,,,,,,,,,,,,,,,No Brainslug Difficult 2 No Money,12,images/assets/snowy_original.jpg,learning,20,images/assets/success.jpg,images/assets/gameover.jpg,,,,,,,,,,,,,0,3,3,8,1,,,,,,,,,,,,,,,,,,,,,,,,,,,,,,,,
,,,,,,,,,,,,66eebc1a09c4c8c4a1447329,001,3,2024-10-09_11h54.08.688,avatar_quest_3AFC_legacy,2022.1.3,Win32,60.24096386,66eebc1a09c4c8c4a1447329,62bca317d87d479cda00ba3d,6706acca3c6b40c2f6dc5c2f,,,,,,,,,,,,,,,,,,,,,,No Brainslug Difficult 1 No Money,6,images/assets/snowy_original.jpg,learning,20,images/assets/success.jpg,images/assets/gameover.jpg,,,,,,,,,,,,,0,4,4,6,1,,,,,,,,,,,,,,,,,,,,,,,,,,,,,,,,
,,,,,,,,,,,,66eebc1a09c4c8c4a1447329,001,3,2024-10-09_11h54.08.688,avatar_quest_3AFC_legacy,2022.1.3,Win32,60.24096386,66eebc1a09c4c8c4a1447329,62bca317d87d479cda00ba3d,6706acca3c6b40c2f6dc5c2f,,,,,,,,,,,,,,,,,,,,,,No Brainslug No Barriers With Money,0,images/assets/snowy_money.jpg,learning,10,images/assets/success_money.jpg,images/assets/gameover.jpg,,,,,,,,,,,,,0,5,5,9,1,,,,,,,,,,,,,,,,,,,,,,,,,,,,,,,,
,,,,,,,,,,,,66eebc1a09c4c8c4a1447329,001,3,2024-10-09_11h54.08.688,avatar_quest_3AFC_legacy,2022.1.3,Win32,60.24096386,66eebc1a09c4c8c4a1447329,62bca317d87d479cda00ba3d,6706acca3c6b40c2f6dc5c2f,"[""right"",""left"",""left"",""left"",""left"",""left"",""left"",""left"",""left"",""left"",""right"",""right"",""right"",""right"",""right"",""right"",""right"",""right"",""right"",""right"",""right"",""right"",""right"",""right"",""right"",""right"",""right"",""right"",""right"",""right"",""right"",""right""]","[0.000900000095384712,1.5090000000000146,2.058799999713983,2.2751999998092742,2.492099999904667,2.6917999997139077,2.9089000000954,3.1254000000953965,3.325299999713934,3.558299999713995,4.091699999809293,4.291500000000042,4.491699999809271,4.691900000095416,4.908299999713904,5.275199999809274,5.525500000000079,5.8582999997139495,6.091699999809293,6.308400000095389,6.508699999809323,6.7084000000953665,6.974900000095431,7.191599999904724,7.409400000095388,7.615799999713886,7.799199999809275,7.999299999713912,8.199199999809252,8.432299999713905,8.718199999809258,8.999000000000024]",,calibration,With Brainslug Difficult 2 With Money,13,9.211,9.2146,9,4,0,FALSE,na,na,na,na,,,,,,,,,,,,,,,,,,,,,,,,,,,,,,,,,,0,0,0,0,1,,,,,,,,,,,,,,,,,,,,,,,
,,,,,,,,,,,,66eebc1a09c4c8c4a1447329,001,3,2024-10-09_11h54.08.688,avatar_quest_3AFC_legacy,2022.1.3,Win32,60.24096386,66eebc1a09c4c8c4a1447329,62bca317d87d479cda00ba3d,6706acca3c6b40c2f6dc5c2f,,,,,,,,,,,,,,,,,,,,,,With Brainslug Difficult 2 With Money,12,images/assets/snowy_money.jpg,learning,20,images/assets/success_money.jpg,images/assets/gameover.jpg,,,,,,,,,,,,,0,6,6,2,1,,,,,,,,,,,,,,,,,,,,,,,,,,,,,,,,
,,,,,,,,,,,,66eebc1a09c4c8c4a1447329,001,3,2024-10-09_11h54.08.688,avatar_quest_3AFC_legacy,2022.1.3,Win32,60.24096386,66eebc1a09c4c8c4a1447329,62bca317d87d479cda00ba3d,6706acca3c6b40c2f6dc5c2f,,,,,,,,,,,,,,,,,,,,,,With Brainslug Difficult 1 With Money,6,images/assets/snowy_money.jpg,learning,20,images/assets/success_money.jpg,images/assets/gameover.jpg,,,,,,,,,,,,,0,7,7,0,1,,,,,,,,,,,,,,,,,,,,,,,,,,,,,,,,
,,,,,,,,,,,,66eebc1a09c4c8c4a1447329,001,3,2024-10-09_11h54.08.688,avatar_quest_3AFC_legacy,2022.1.3,Win32,60.24096386,66eebc1a09c4c8c4a1447329,62bca317d87d479cda00ba3d,6706acca3c6b40c2f6dc5c2f,,,,,,,,,,,,,,,,,,,,,,With Brainslug No Barriers With Money,0,images/assets/snowy_money.jpg,learning,10,images/assets/success_money.jpg,images/assets/gameover.jpg,,,,,,,,,,,,,0,8,8,4,1,,,,,,,,,,,,,,,,,,,,,,,,,,,,,,,,
,,,,,,,,,,,,66eebc1a09c4c8c4a1447329,001,3,2024-10-09_11h54.08.688,avatar_quest_3AFC_legacy,2022.1.3,Win32,60.24096386,66eebc1a09c4c8c4a1447329,62bca317d87d479cda00ba3d,6706acca3c6b40c2f6dc5c2f,,,,,,,,,,,,,,,,,,,,,,No Brainslug Difficult 2 With Money,12,images/assets/snowy_money.jpg,learning,20,images/assets/success_money.jpg,images/assets/gameover.jpg,,,,,,,,,,,,,0,9,9,7,1,,,,,,,,,,,,,,,,,,,,,,,,,,,,,,,,
,,,,,,,,,,,,66eebc1a09c4c8c4a1447329,001,3,2024-10-09_11h54.08.688,avatar_quest_3AFC_legacy,2022.1.3,Win32,60.24096386,66eebc1a09c4c8c4a1447329,62bca317d87d479cda00ba3d,6706acca3c6b40c2f6dc5c2f,,,,,,,,,,,,,,,,,,,,,,No Brainslug No Barriers No Money,0,images/assets/snowy_original.jpg,learning,10,images/assets/success.jpg,images/assets/gameover.jpg,,,,,,,,,,,,,0,10,10,10,1,,,,,,,,,,,,,,,,,,,,,,,,,,,,,,,,
,,,,,,,,,,,,66eebc1a09c4c8c4a1447329,001,3,2024-10-09_11h54.08.688,avatar_quest_3AFC_legacy,2022.1.3,Win32,60.24096386,66eebc1a09c4c8c4a1447329,62bca317d87d479cda00ba3d,6706acca3c6b40c2f6dc5c2f,,,,,,,,,,,,,,,,,,,,,,,,,,,,,,,,,,,,,,,,,,,,,,,,,,,,,,,9,0,9,0,1,,,,,,,,,,,,,,,,,,
,,,,,,,,,,,,66eebc1a09c4c8c4a1447329,001,3,2024-10-09_11h54.08.688,avatar_quest_3AFC_legacy,2022.1.3,Win32,60.24096386,66eebc1a09c4c8c4a1447329,62bca317d87d479cda00ba3d,6706acca3c6b40c2f6dc5c2f,,,,,,,,,,,,,,,,,,,,,,No Brainslug Difficult 2 With Money,12,images/assets/snowy_money.jpg,learning,20,images/assets/success_money.jpg,images/assets/gameover.jpg,,,,,,,,With Brainslug Difficult 2 With Money,With Brainslug Difficult 1 No Money,right,0.694,"[""With Brainslug Difficult 1 No Money"",""With Brainslug Difficult 2 No Money""]",0,0,0,7,1,,,,,,,,,,,,,,,,,,,,,,,,,,,,,,,,
,,,,,,,,,,,,66eebc1a09c4c8c4a1447329,001,3,2024-10-09_11h54.08.688,avatar_quest_3AFC_legacy,2022.1.3,Win32,60.24096386,66eebc1a09c4c8c4a1447329,62bca317d87d479cda00ba3d,6706acca3c6b40c2f6dc5c2f,,,,,,,,,,,,,,,,,,,,,,With Brainslug No Barriers No Money,0,images/assets/snowy_original.jpg,learning,10,images/assets/success.jpg,images/assets/gameover.jpg,,,,,,,,,,,,,0,1,1,5,1,,,,,,,,,,,,,,,,,,,,,,,,,,,,,,,,
,,,,,,,,,,,,66eebc1a09c4c8c4a1447329,001,3,2024-10-09_11h54.08.688,avatar_quest_3AFC_legacy,2022.1.3,Win32,60.24096386,66eebc1a09c4c8c4a1447329,62bca317d87d479cda00ba3d,6706acca3c6b40c2f6dc5c2f,,,,,,,,,,,,,,,,,,,,,,No Brainslug No Barriers No Money,0,images/assets/snowy_original.jpg,learning,10,images/assets/success.jpg,images/assets/gameover.jpg,,,,,,,,,,,,,0,2,2,10,1,,,,,,,,,,,,,,,,,,,,,,,,,,,,,,,,
,,,,,,,,,,,,66eebc1a09c4c8c4a1447329,001,3,2024-10-09_11h54.08.688,avatar_quest_3AFC_legacy,2022.1.3,Win32,60.24096386,66eebc1a09c4c8c4a1447329,62bca317d87d479cda00ba3d,6706acca3c6b40c2f6dc5c2f,,,,,,,,,,,,,,,,,,,,,,No Brainslug Difficult 1 No Money,6,images/assets/snowy_original.jpg,learning,20,images/assets/success.jpg,images/assets/gameover.jpg,,,,,,,,,,,,,0,3,3,6,1,,,,,,,,,,,,,,,,,,,,,,,,,,,,,,,,
,,,,,,,,,,,,66eebc1a09c4c8c4a1447329,001,3,2024-10-09_11h54.08.688,avatar_quest_3AFC_legacy,2022.1.3,Win32,60.24096386,66eebc1a09c4c8c4a1447329,62bca317d87d479cda00ba3d,6706acca3c6b40c2f6dc5c2f,"[""left"",""left"",""left"",""left"",""left"",""right"",""right"",""right"",""right"",""right"",""right"",""left"",""left""]","[5.179499999999962,5.346599999904697,5.5468000001907285,5.76340000009543,5.979599999904622,6.563200000286088,6.780400000095369,7.011900000095352,7.246599999904674,7.530200000286072,7.830000000000041,8.74840000009533,8.939200000286064]",,calibration,With Brainslug Difficult 2 With Money,14,9.211,9.221,3,3,0,FALSE,na,na,na,na,,,,,,,,,,,,,,,,,,,,,,,,,,,,,,,,,,0,0,0,0,1,,,,,,,,,,,,,,,,,,,,,,,
,,,,,,,,,,,,66eebc1a09c4c8c4a1447329,001,3,2024-10-09_11h54.08.688,avatar_quest_3AFC_legacy,2022.1.3,Win32,60.24096386,66eebc1a09c4c8c4a1447329,62bca317d87d479cda00ba3d,6706acca3c6b40c2f6dc5c2f,,,,,,,,,,,,,,,,,,,,,,With Brainslug Difficult 2 With Money,12,images/assets/snowy_money.jpg,learning,20,images/assets/success_money.jpg,images/assets/gameover.jpg,,,,,,,,,,,,,0,4,4,2,1,,,,,,,,,,,,,,,,,,,,,,,,,,,,,,,,
,,,,,,,,,,,,66eebc1a09c4c8c4a1447329,001,3,2024-10-09_11h54.08.688,avatar_quest_3AFC_legacy,2022.1.3,Win32,60.24096386,66eebc1a09c4c8c4a1447329,62bca317d87d479cda00ba3d,6706acca3c6b40c2f6dc5c2f,,,,,,,,,,,,,,,,,,,,,,With Brainslug Difficult 2 No Money,12,images/assets/snowy_original.jpg,learning,20,images/assets/success.jpg,images/assets/gameover.jpg,,,,,,,,,,,,,0,5,5,3,1,,,,,,,,,,,,,,,,,,,,,,,,,,,,,,,,
,,,,,,,,,,,,66eebc1a09c4c8c4a1447329,001,3,2024-10-09_11h54.08.688,avatar_quest_3AFC_legacy,2022.1.3,Win32,60.24096386,66eebc1a09c4c8c4a1447329,62bca317d87d479cda00ba3d,6706acca3c6b40c2f6dc5c2f,,,,,,,,,,,,,,,,,,,,,,With Brainslug No Barriers With Money,0,images/assets/snowy_money.jpg,learning,10,images/assets/success_money.jpg,images/assets/gameover.jpg,,,,,,,,,,,,,0,6,6,4,1,,,,,,,,,,,,,,,,,,,,,,,,,,,,,,,,
,,,,,,,,,,,,66eebc1a09c4c8c4a1447329,001,3,2024-10-09_11h54.08.688,avatar_quest_3AFC_legacy,2022.1.3,Win32,60.24096386,66eebc1a09c4c8c4a1447329,62bca317d87d479cda00ba3d,6706acca3c6b40c2f6dc5c2f,,,,,,,,,,,,,,,,,,,,,,No Brainslug Difficult 2 No Money,12,images/assets/snowy_original.jpg,learning,20,images/assets/success.jpg,images/assets/gameover.jpg,,,,,,,,,,,,,0,7,7,8,1,,,,,,,,,,,,,,,,,,,,,,,,,,,,,,,,
,,,,,,,,,,,,66eebc1a09c4c8c4a1447329,001,3,2024-10-09_11h54.08.688,avatar_quest_3AFC_legacy,2022.1.3,Win32,60.24096386,66eebc1a09c4c8c4a1447329,62bca317d87d479cda00ba3d,6706acca3c6b40c2f6dc5c2f,,,,,,,,,,,,,,,,,,,,,,With Brainslug Difficult 1 No Money,6,images/assets/snowy_original.jpg,learning,20,images/assets/success.jpg,images/assets/gameover.jpg,,,,,,,,,,,,,0,8,8,1,1,,,,,,,,,,,,,,,,,,,,,,,,,,,,,,,,
,,,,,,,,,,,,66eebc1a09c4c8c4a1447329,001,3,2024-10-09_11h54.08.688,avatar_quest_3AFC_legacy,2022.1.3,Win32,60.24096386,66eebc1a09c4c8c4a1447329,62bca317d87d479cda00ba3d,6706acca3c6b40c2f6dc5c2f,,,,,,,,,,,,,,,,,,,,,,With Brainslug Difficult 1 With Money,6,images/assets/snowy_money.jpg,learning,20,images/assets/success_money.jpg,images/assets/gameover.jpg,,,,,,,,,,,,,0,9,9,0,1,,,,,,,,,,,,,,,,,,,,,,,,,,,,,,,,
,,,,,,,,,,,,66eebc1a09c4c8c4a1447329,001,3,2024-10-09_11h54.08.688,avatar_quest_3AFC_legacy,2022.1.3,Win32,60.24096386,66eebc1a09c4c8c4a1447329,62bca317d87d479cda00ba3d,6706acca3c6b40c2f6dc5c2f,,,,,,,,,,,,,,,,,,,,,,No Brainslug No Barriers With Money,0,images/assets/snowy_money.jpg,learning,10,images/assets/success_money.jpg,images/assets/gameover.jpg,,,,,,,,,,,,,0,10,10,9,1,,,,,,,,,,,,,,,,,,,,,,,,,,,,,,,,
,,,,,,,,,,,,66eebc1a09c4c8c4a1447329,001,3,2024-10-09_11h54.08.688,avatar_quest_3AFC_legacy,2022.1.3,Win32,60.24096386,66eebc1a09c4c8c4a1447329,62bca317d87d479cda00ba3d,6706acca3c6b40c2f6dc5c2f,,,,,,,,,,,,,,,,,,,,,,,,,,,,,,,,,,,,,,,,,,,,,,,,,,,,,,,10,0,10,0,1,,,,,,,,,,,,,,,,,,
,,,,,,,,,,,,66eebc1a09c4c8c4a1447329,001,3,2024-10-09_11h54.08.688,avatar_quest_3AFC_legacy,2022.1.3,Win32,60.24096386,66eebc1a09c4c8c4a1447329,62bca317d87d479cda00ba3d,6706acca3c6b40c2f6dc5c2f,,,,,,,,,,,,,,,,,,,,,,With Brainslug Difficult 2 No Money,12,images/assets/snowy_original.jpg,learning,20,images/assets/success.jpg,images/assets/gameover.jpg,,,,,,,,With Brainslug Difficult 2 With Money,With Brainslug Difficult 1 No Money,right,1.5171,"[""With Brainslug Difficult 1 No Money"",""With Brainslug Difficult 2 No Money""]",0,0,0,3,1,,,,,,,,,,,,,,,,,,,,,,,,,,,,,,,,
,,,,,,,,,,,,66eebc1a09c4c8c4a1447329,001,3,2024-10-09_11h54.08.688,avatar_quest_3AFC_legacy,2022.1.3,Win32,60.24096386,66eebc1a09c4c8c4a1447329,62bca317d87d479cda00ba3d,6706acca3c6b40c2f6dc5c2f,,,,,,,,,,,,,,,,,,,,,,No Brainslug Difficult 1 No Money,6,images/assets/snowy_original.jpg,learning,20,images/assets/success.jpg,images/assets/gameover.jpg,,,,,,,,,,,,,0,1,1,6,1,,,,,,,,,,,,,,,,,,,,,,,,,,,,,,,,
,,,,,,,,,,,,66eebc1a09c4c8c4a1447329,001,3,2024-10-09_11h54.08.688,avatar_quest_3AFC_legacy,2022.1.3,Win32,60.24096386,66eebc1a09c4c8c4a1447329,62bca317d87d479cda00ba3d,6706acca3c6b40c2f6dc5c2f,"[""right"",""right"",""right"",""right"",""right"",""right"",""right"",""right"",""left"",""left"",""left"",""left"",""left"",""left"",""left"",""right"",""right"",""right"",""right"",""right"",""right"",""right"",""right"",""right"",""right"",""right"",""right"",""right"",""right"",""right"",""right""]","[0.06369999980927332,0.28119999980924604,0.54849999999999,0.7647999997138868,1.0212999997138468,1.2487999997138104,1.5819000000952883,1.9164999999999281,2.582199999809177,2.848599999904536,3.231699999809166,3.498599999904627,3.831099999904609,4.162900000095306,4.613900000095327,4.9477999997138795,5.297599999904605,5.531099999904541,5.781199999809246,6.064400000095361,6.3484999999999445,6.598099999904548,6.881999999999948,7.181299999713815,7.46429999971383,7.748099999904639,8.031699999809234,8.247299999713846,8.514699999809181,8.798400000095285,9.017499999999927]",,calibration,With Brainslug Difficult 2 With Money,15,9.211,9.2145,9,4,0,FALSE,na,na,na,na,,,,,,,,,,,,,,,,,,,,,,,,,,,,,,,,,,0,0,0,0,1,,,,,,,,,,,,,,,,,,,,,,,
,,,,,,,,,,,,66eebc1a09c4c8c4a1447329,001,3,2024-10-09_11h54.08.688,avatar_quest_3AFC_legacy,2022.1.3,Win32,60.24096386,66eebc1a09c4c8c4a1447329,62bca317d87d479cda00ba3d,6706acca3c6b40c2f6dc5c2f,,,,,,,,,,,,,,,,,,,,,,With Brainslug Difficult 2 With Money,12,images/assets/snowy_money.jpg,learning,20,images/assets/success_money.jpg,images/assets/gameover.jpg,,,,,,,,,,,,,0,2,2,2,1,,,,,,,,,,,,,,,,,,,,,,,,,,,,,,,,
,,,,,,,,,,,,66eebc1a09c4c8c4a1447329,001,3,2024-10-09_11h54.08.688,avatar_quest_3AFC_legacy,2022.1.3,Win32,60.24096386,66eebc1a09c4c8c4a1447329,62bca317d87d479cda00ba3d,6706acca3c6b40c2f6dc5c2f,,,,,,,,,,,,,,,,,,,,,,With Brainslug No Barriers No Money,0,images/assets/snowy_original.jpg,learning,10,images/assets/success.jpg,images/assets/gameover.jpg,,,,,,,,,,,,,0,3,3,5,1,,,,,,,,,,,,,,,,,,,,,,,,,,,,,,,,
,,,,,,,,,,,,66eebc1a09c4c8c4a1447329,001,3,2024-10-09_11h54.08.688,avatar_quest_3AFC_legacy,2022.1.3,Win32,60.24096386,66eebc1a09c4c8c4a1447329,62bca317d87d479cda00ba3d,6706acca3c6b40c2f6dc5c2f,,,,,,,,,,,,,,,,,,,,,,With Brainslug No Barriers With Money,0,images/assets/snowy_money.jpg,learning,10,images/assets/success_money.jpg,images/assets/gameover.jpg,,,,,,,,,,,,,0,4,4,4,1,,,,,,,,,,,,,,,,,,,,,,,,,,,,,,,,
,,,,,,,,,,,,66eebc1a09c4c8c4a1447329,001,3,2024-10-09_11h54.08.688,avatar_quest_3AFC_legacy,2022.1.3,Win32,60.24096386,66eebc1a09c4c8c4a1447329,62bca317d87d479cda00ba3d,6706acca3c6b40c2f6dc5c2f,,,,,,,,,,,,,,,,,,,,,,No Brainslug Difficult 2 No Money,12,images/assets/snowy_original.jpg,learning,20,images/assets/success.jpg,images/assets/gameover.jpg,,,,,,,,,,,,,0,5,5,8,1,,,,,,,,,,,,,,,,,,,,,,,,,,,,,,,,
,,,,,,,,,,,,66eebc1a09c4c8c4a1447329,001,3,2024-10-09_11h54.08.688,avatar_quest_3AFC_legacy,2022.1.3,Win32,60.24096386,66eebc1a09c4c8c4a1447329,62bca317d87d479cda00ba3d,6706acca3c6b40c2f6dc5c2f,,,,,,,,,,,,,,,,,,,,,,With Brainslug Difficult 1 No Money,6,images/assets/snowy_original.jpg,learning,20,images/assets/success.jpg,images/assets/gameover.jpg,,,,,,,,,,,,,0,6,6,1,1,,,,,,,,,,,,,,,,,,,,,,,,,,,,,,,,
,,,,,,,,,,,,66eebc1a09c4c8c4a1447329,001,3,2024-10-09_11h54.08.688,avatar_quest_3AFC_legacy,2022.1.3,Win32,60.24096386,66eebc1a09c4c8c4a1447329,62bca317d87d479cda00ba3d,6706acca3c6b40c2f6dc5c2f,,,,,,,,,,,,,,,,,,,,,,No Brainslug Difficult 2 With Money,12,images/assets/snowy_money.jpg,learning,20,images/assets/success_money.jpg,images/assets/gameover.jpg,,,,,,,,,,,,,0,7,7,7,1,,,,,,,,,,,,,,,,,,,,,,,,,,,,,,,,
,,,,,,,,,,,,66eebc1a09c4c8c4a1447329,001,3,2024-10-09_11h54.08.688,avatar_quest_3AFC_legacy,2022.1.3,Win32,60.24096386,66eebc1a09c4c8c4a1447329,62bca317d87d479cda00ba3d,6706acca3c6b40c2f6dc5c2f,,,,,,,,,,,,,,,,,,,,,,No Brainslug No Barriers No Money,0,images/assets/snowy_original.jpg,learning,10,images/assets/success.jpg,images/assets/gameover.jpg,,,,,,,,,,,,,0,8,8,10,1,,,,,,,,,,,,,,,,,,,,,,,,,,,,,,,,
,,,,,,,,,,,,66eebc1a09c4c8c4a1447329,001,3,2024-10-09_11h54.08.688,avatar_quest_3AFC_legacy,2022.1.3,Win32,60.24096386,66eebc1a09c4c8c4a1447329,62bca317d87d479cda00ba3d,6706acca3c6b40c2f6dc5c2f,,,,,,,,,,,,,,,,,,,,,,No Brainslug No Barriers With Money,0,images/assets/snowy_money.jpg,learning,10,images/assets/success_money.jpg,images/assets/gameover.jpg,,,,,,,,,,,,,0,9,9,9,1,,,,,,,,,,,,,,,,,,,,,,,,,,,,,,,,
,,,,,,,,,,,,66eebc1a09c4c8c4a1447329,001,3,2024-10-09_11h54.08.688,avatar_quest_3AFC_legacy,2022.1.3,Win32,60.24096386,66eebc1a09c4c8c4a1447329,62bca317d87d479cda00ba3d,6706acca3c6b40c2f6dc5c2f,,,,,,,,,,,,,,,,,,,,,,With Brainslug Difficult 1 With Money,6,images/assets/snowy_money.jpg,learning,20,images/assets/success_money.jpg,images/assets/gameover.jpg,,,,,,,,,,,,,0,10,10,0,1,,,,,,,,,,,,,,,,,,,,,,,,,,,,,,,,
,,,,,,,,,,,,66eebc1a09c4c8c4a1447329,001,3,2024-10-09_11h54.08.688,avatar_quest_3AFC_legacy,2022.1.3,Win32,60.24096386,66eebc1a09c4c8c4a1447329,62bca317d87d479cda00ba3d,6706acca3c6b40c2f6dc5c2f,,,,,,,,,,,,,,,,,,,,,,,,,,,,,,,,,,,,,,,,,,,,,,,,,,,,,,,11,0,11,0,1,,,,,,,,,,,,,,,,,,
,,,,,,,,,,,,66eebc1a09c4c8c4a1447329,001,3,2024-10-09_11h54.08.688,avatar_quest_3AFC_legacy,2022.1.3,Win32,60.24096386,66eebc1a09c4c8c4a1447329,62bca317d87d479cda00ba3d,6706acca3c6b40c2f6dc5c2f,,,,,,,,,,,,,,,,,,,,,,,,,,,,,,,,,,,,,,,,,,,,,,,,,,,,,,,,,,,,0,0,0,0,1,1,With Brainslug Difficult 1 No Money,images/assets/With Brainslug Difficult 1 No Money.png,With Brainslug Difficult 2 No Money,images/assets/With Brainslug Difficult 2 No Money.png,With Brainslug Difficult 2 With Money,images/assets/With Brainslug Difficult 2 With Money.png,Achievement vs. money,,,,,
,,,,,,,,,,,,66eebc1a09c4c8c4a1447329,001,3,2024-10-09_11h54.08.688,avatar_quest_3AFC_legacy,2022.1.3,Win32,60.24096386,66eebc1a09c4c8c4a1447329,62bca317d87d479cda00ba3d,6706acca3c6b40c2f6dc5c2f,,,,,,,,,,,,,,,,,,,,,,No Brainslug No Barriers No Money,0,images/assets/snowy_original.jpg,learning,10,images/assets/success.jpg,images/assets/gameover.jpg,,,,,,,,No Brainslug No Barriers With Money,No Brainslug No Barriers No Money,right,0.0008,"[""No Brainslug No Barriers No Money"",""No Brainslug Difficult 1 No Money""]",0,0,0,10,1,,,,,,,,,,,,,,,,,,,,,,,,,,,,,,,,
,,,,,,,,,,,,66eebc1a09c4c8c4a1447329,001,3,2024-10-09_11h54.08.688,avatar_quest_3AFC_legacy,2022.1.3,Win32,60.24096386,66eebc1a09c4c8c4a1447329,62bca317d87d479cda00ba3d,6706acca3c6b40c2f6dc5c2f,,,,,,,,,,,,,,,,,,,,,,With Brainslug Difficult 1 No Money,6,images/assets/snowy_original.jpg,learning,20,images/assets/success.jpg,images/assets/gameover.jpg,,,,,,,,,,,,,0,1,1,1,1,,,,,,,,,,,,,,,,,,,,,,,,,,,,,,,,
,,,,,,,,,,,,66eebc1a09c4c8c4a1447329,001,3,2024-10-09_11h54.08.688,avatar_quest_3AFC_legacy,2022.1.3,Win32,60.24096386,66eebc1a09c4c8c4a1447329,62bca317d87d479cda00ba3d,6706acca3c6b40c2f6dc5c2f,,,,,,,,,,,,,,,,,,,,,,No Brainslug Difficult 1 No Money,6,images/assets/snowy_original.jpg,learning,20,images/assets/success.jpg,images/assets/gameover.jpg,,,,,,,,,,,,,0,2,2,6,1,,,,,,,,,,,,,,,,,,,,,,,,,,,,,,,,
,,,,,,,,,,,,66eebc1a09c4c8c4a1447329,001,3,2024-10-09_11h54.08.688,avatar_quest_3AFC_legacy,2022.1.3,Win32,60.24096386,66eebc1a09c4c8c4a1447329,62bca317d87d479cda00ba3d,6706acca3c6b40c2f6dc5c2f,"[""right"",""right"",""right"",""right"",""right"",""right"",""right"",""right"",""right"",""right"",""right"",""left"",""left"",""left"",""left"",""left"",""left"",""left"",""left"",""left"",""left"",""left""]","[0.2335000000000491,0.767300000190744,1.1349000000953993,1.335099999904628,1.6526999998093288,1.951699999809307,2.1845999999046626,2.585400000095433,2.90140000009535,3.1516999998092388,3.4515999999046016,4.93530000019075,5.101099999904704,5.326000000000022,5.534300000190797,5.743000000000052,6.050900000095339,6.267699999809338,6.66759999990461,6.851999999999975,7.068900000095368,7.267400000095336]",,calibration,No Brainslug No Barriers With Money,16,7.3688,7.3775,5,0,132,FALSE,na,na,na,na,,,,,,,,,,,,,,,,,,,,,,,,,,,,,,,,,,0,0,0,0,1,,,,,,,,,,,,,,,,,,,,,,,
,,,,,,,,,,,,66eebc1a09c4c8c4a1447329,001,3,2024-10-09_11h54.08.688,avatar_quest_3AFC_legacy,2022.1.3,Win32,60.24096386,66eebc1a09c4c8c4a1447329,62bca317d87d479cda00ba3d,6706acca3c6b40c2f6dc5c2f,,,,,,,,,,,,,,,,,,,,,,No Brainslug No Barriers With Money,0,images/assets/snowy_money.jpg,learning,10,images/assets/success_money.jpg,images/assets/gameover.jpg,,,,,,,,,,,,,0,3,3,9,1,,,,,,,,,,,,,,,,,,,,,,,,,,,,,,,,
,,,,,,,,,,,,66eebc1a09c4c8c4a1447329,001,3,2024-10-09_11h54.08.688,avatar_quest_3AFC_legacy,2022.1.3,Win32,60.24096386,66eebc1a09c4c8c4a1447329,62bca317d87d479cda00ba3d,6706acca3c6b40c2f6dc5c2f,,,,,,,,,,,,,,,,,,,,,,With Brainslug Difficult 2 No Money,12,images/assets/snowy_original.jpg,learning,20,images/assets/success.jpg,images/assets/gameover.jpg,,,,,,,,,,,,,0,4,4,3,1,,,,,,,,,,,,,,,,,,,,,,,,,,,,,,,,
,,,,,,,,,,,,66eebc1a09c4c8c4a1447329,001,3,2024-10-09_11h54.08.688,avatar_quest_3AFC_legacy,2022.1.3,Win32,60.24096386,66eebc1a09c4c8c4a1447329,62bca317d87d479cda00ba3d,6706acca3c6b40c2f6dc5c2f,,,,,,,,,,,,,,,,,,,,,,With Brainslug No Barriers With Money,0,images/assets/snowy_money.jpg,learning,10,images/assets/success_money.jpg,images/assets/gameover.jpg,,,,,,,,,,,,,0,5,5,4,1,,,,,,,,,,,,,,,,,,,,,,,,,,,,,,,,
,,,,,,,,,,,,66eebc1a09c4c8c4a1447329,001,3,2024-10-09_11h54.08.688,avatar_quest_3AFC_legacy,2022.1.3,Win32,60.24096386,66eebc1a09c4c8c4a1447329,62bca317d87d479cda00ba3d,6706acca3c6b40c2f6dc5c2f,,,,,,,,,,,,,,,,,,,,,,With Brainslug No Barriers No Money,0,images/assets/snowy_original.jpg,learning,10,images/assets/success.jpg,images/assets/gameover.jpg,,,,,,,,,,,,,0,6,6,5,1,,,,,,,,,,,,,,,,,,,,,,,,,,,,,,,,
,,,,,,,,,,,,66eebc1a09c4c8c4a1447329,001,3,2024-10-09_11h54.08.688,avatar_quest_3AFC_legacy,2022.1.3,Win32,60.24096386,66eebc1a09c4c8c4a1447329,62bca317d87d479cda00ba3d,6706acca3c6b40c2f6dc5c2f,,,,,,,,,,,,,,,,,,,,,,With Brainslug Difficult 2 With Money,12,images/assets/snowy_money.jpg,learning,20,images/assets/success_money.jpg,images/assets/gameover.jpg,,,,,,,,,,,,,0,7,7,2,1,,,,,,,,,,,,,,,,,,,,,,,,,,,,,,,,
,,,,,,,,,,,,66eebc1a09c4c8c4a1447329,001,3,2024-10-09_11h54.08.688,avatar_quest_3AFC_legacy,2022.1.3,Win32,60.24096386,66eebc1a09c4c8c4a1447329,62bca317d87d479cda00ba3d,6706acca3c6b40c2f6dc5c2f,,,,,,,,,,,,,,,,,,,,,,No Brainslug Difficult 2 No Money,12,images/assets/snowy_original.jpg,learning,20,images/assets/success.jpg,images/assets/gameover.jpg,,,,,,,,,,,,,0,8,8,8,1,,,,,,,,,,,,,,,,,,,,,,,,,,,,,,,,
,,,,,,,,,,,,66eebc1a09c4c8c4a1447329,001,3,2024-10-09_11h54.08.688,avatar_quest_3AFC_legacy,2022.1.3,Win32,60.24096386,66eebc1a09c4c8c4a1447329,62bca317d87d479cda00ba3d,6706acca3c6b40c2f6dc5c2f,,,,,,,,,,,,,,,,,,,,,,With Brainslug Difficult 1 With Money,6,images/assets/snowy_money.jpg,learning,20,images/assets/success_money.jpg,images/assets/gameover.jpg,,,,,,,,,,,,,0,9,9,0,1,,,,,,,,,,,,,,,,,,,,,,,,,,,,,,,,
,,,,,,,,,,,,66eebc1a09c4c8c4a1447329,001,3,2024-10-09_11h54.08.688,avatar_quest_3AFC_legacy,2022.1.3,Win32,60.24096386,66eebc1a09c4c8c4a1447329,62bca317d87d479cda00ba3d,6706acca3c6b40c2f6dc5c2f,,,,,,,,,,,,,,,,,,,,,,No Brainslug Difficult 2 With Money,12,images/assets/snowy_money.jpg,learning,20,images/assets/success_money.jpg,images/assets/gameover.jpg,,,,,,,,,,,,,0,10,10,7,1,,,,,,,,,,,,,,,,,,,,,,,,,,,,,,,,
,,,,,,,,,,,,66eebc1a09c4c8c4a1447329,001,3,2024-10-09_11h54.08.688,avatar_quest_3AFC_legacy,2022.1.3,Win32,60.24096386,66eebc1a09c4c8c4a1447329,62bca317d87d479cda00ba3d,6706acca3c6b40c2f6dc5c2f,,,,,,,,,,,,,,,,,,,,,,,,,,,,,,,,,,,,,,,,,,,,,,,,,,,,,,,0,0,0,0,1,,,,,,,,,,,,,,,,,,
,,,,,,,,,,,,66eebc1a09c4c8c4a1447329,001,3,2024-10-09_11h54.08.688,avatar_quest_3AFC_legacy,2022.1.3,Win32,60.24096386,66eebc1a09c4c8c4a1447329,62bca317d87d479cda00ba3d,6706acca3c6b40c2f6dc5c2f,"[""right"",""right"",""right"",""right"",""right"",""right"",""right"",""right"",""right"",""right"",""right"",""right"",""right"",""right"",""left"",""left"",""left"",""left"",""left"",""left"",""left"",""left"",""left""]","[0.34749999999996817,0.6604000000953647,0.9434000000953802,1.343499999999949,1.6599999999999682,1.937100000381406,2.300999999999931,2.592999999999961,2.8764999999999645,3.1263000001906676,3.3857000002860786,3.6748000001907712,3.9259000000953392,4.186600000381418,4.792100000381424,5.292400000095313,5.525499999999965,5.77640000009535,5.99249999999995,6.218600000381457,6.500600000381496,6.753100000381437,7.031100000381457]",,calibration,No Brainslug No Barriers No Money,17,7.3688,7.3873,5,0,149,FALSE,na,na,na,na,,,,,,,,,,,,,,,,,,,,No Brainslug No Barriers No Money,No Brainslug No Barriers No Money,left,0.0948,"[""No Brainslug Difficult 1 No Money"",""No Brainslug No Barriers With Money""]",,,,,,,,,,0,0,0,0,1,,,,,,,,,,,,,,,,,,,,,,,
,,,,,,,,,,,,66eebc1a09c4c8c4a1447329,001,3,2024-10-09_11h54.08.688,avatar_quest_3AFC_legacy,2022.1.3,Win32,60.24096386,66eebc1a09c4c8c4a1447329,62bca317d87d479cda00ba3d,6706acca3c6b40c2f6dc5c2f,,,,,,,,,,,,,,,,,,,,,,No Brainslug No Barriers No Money,0,images/assets/snowy_original.jpg,learning,10,images/assets/success.jpg,images/assets/gameover.jpg,,,,,,,,,,,,,0,0,0,10,1,,,,,,,,,,,,,,,,,,,,,,,,,,,,,,,,
,,,,,,,,,,,,66eebc1a09c4c8c4a1447329,001,3,2024-10-09_11h54.08.688,avatar_quest_3AFC_legacy,2022.1.3,Win32,60.24096386,66eebc1a09c4c8c4a1447329,62bca317d87d479cda00ba3d,6706acca3c6b40c2f6dc5c2f,,,,,,,,,,,,,,,,,,,,,,With Brainslug No Barriers With Money,0,images/assets/snowy_money.jpg,learning,10,images/assets/success_money.jpg,images/assets/gameover.jpg,,,,,,,,,,,,,0,1,1,4,1,,,,,,,,,,,,,,,,,,,,,,,,,,,,,,,,
,,,,,,,,,,,,66eebc1a09c4c8c4a1447329,001,3,2024-10-09_11h54.08.688,avatar_quest_3AFC_legacy,2022.1.3,Win32,60.24096386,66eebc1a09c4c8c4a1447329,62bca317d87d479cda00ba3d,6706acca3c6b40c2f6dc5c2f,,,,,,,,,,,,,,,,,,,,,,No Brainslug Difficult 2 No Money,12,images/assets/snowy_original.jpg,learning,20,images/assets/success.jpg,images/assets/gameover.jpg,,,,,,,,,,,,,0,2,2,8,1,,,,,,,,,,,,,,,,,,,,,,,,,,,,,,,,
,,,,,,,,,,,,66eebc1a09c4c8c4a1447329,001,3,2024-10-09_11h54.08.688,avatar_quest_3AFC_legacy,2022.1.3,Win32,60.24096386,66eebc1a09c4c8c4a1447329,62bca317d87d479cda00ba3d,6706acca3c6b40c2f6dc5c2f,,,,,,,,,,,,,,,,,,,,,,No Brainslug No Barriers With Money,0,images/assets/snowy_money.jpg,learning,10,images/assets/success_money.jpg,images/assets/gameover.jpg,,,,,,,,,,,,,0,3,3,9,1,,,,,,,,,,,,,,,,,,,,,,,,,,,,,,,,
,,,,,,,,,,,,66eebc1a09c4c8c4a1447329,001,3,2024-10-09_11h54.08.688,avatar_quest_3AFC_legacy,2022.1.3,Win32,60.24096386,66eebc1a09c4c8c4a1447329,62bca317d87d479cda00ba3d,6706acca3c6b40c2f6dc5c2f,,,,,,,,,,,,,,,,,,,,,,With Brainslug Difficult 1 With Money,6,images/assets/snowy_money.jpg,learning,20,images/assets/success_money.jpg,images/assets/gameover.jpg,,,,,,,,,,,,,0,4,4,0,1,,,,,,,,,,,,,,,,,,,,,,,,,,,,,,,,
,,,,,,,,,,,,66eebc1a09c4c8c4a1447329,001,3,2024-10-09_11h54.08.688,avatar_quest_3AFC_legacy,2022.1.3,Win32,60.24096386,66eebc1a09c4c8c4a1447329,62bca317d87d479cda00ba3d,6706acca3c6b40c2f6dc5c2f,,,,,,,,,,,,,,,,,,,,,,With Brainslug Difficult 1 No Money,6,images/assets/snowy_original.jpg,learning,20,images/assets/success.jpg,images/assets/gameover.jpg,,,,,,,,,,,,,0,5,5,1,1,,,,,,,,,,,,,,,,,,,,,,,,,,,,,,,,
,,,,,,,,,,,,66eebc1a09c4c8c4a1447329,001,3,2024-10-09_11h54.08.688,avatar_quest_3AFC_legacy,2022.1.3,Win32,60.24096386,66eebc1a09c4c8c4a1447329,62bca317d87d479cda00ba3d,6706acca3c6b40c2f6dc5c2f,,,,,,,,,,,,,,,,,,,,,,No Brainslug Difficult 2 With Money,12,images/assets/snowy_money.jpg,learning,20,images/assets/success_money.jpg,images/assets/gameover.jpg,,,,,,,,,,,,,0,6,6,7,1,,,,,,,,,,,,,,,,,,,,,,,,,,,,,,,,
,,,,,,,,,,,,66eebc1a09c4c8c4a1447329,001,3,2024-10-09_11h54.08.688,avatar_quest_3AFC_legacy,2022.1.3,Win32,60.24096386,66eebc1a09c4c8c4a1447329,62bca317d87d479cda00ba3d,6706acca3c6b40c2f6dc5c2f,,,,,,,,,,,,,,,,,,,,,,With Brainslug No Barriers No Money,0,images/assets/snowy_original.jpg,learning,10,images/assets/success.jpg,images/assets/gameover.jpg,,,,,,,,,,,,,0,7,7,5,1,,,,,,,,,,,,,,,,,,,,,,,,,,,,,,,,
,,,,,,,,,,,,66eebc1a09c4c8c4a1447329,001,3,2024-10-09_11h54.08.688,avatar_quest_3AFC_legacy,2022.1.3,Win32,60.24096386,66eebc1a09c4c8c4a1447329,62bca317d87d479cda00ba3d,6706acca3c6b40c2f6dc5c2f,,,,,,,,,,,,,,,,,,,,,,No Brainslug Difficult 1 No Money,6,images/assets/snowy_original.jpg,learning,20,images/assets/success.jpg,images/assets/gameover.jpg,,,,,,,,,,,,,0,8,8,6,1,,,,,,,,,,,,,,,,,,,,,,,,,,,,,,,,
,,,,,,,,,,,,66eebc1a09c4c8c4a1447329,001,3,2024-10-09_11h54.08.688,avatar_quest_3AFC_legacy,2022.1.3,Win32,60.24096386,66eebc1a09c4c8c4a1447329,62bca317d87d479cda00ba3d,6706acca3c6b40c2f6dc5c2f,,,,,,,,,,,,,,,,,,,,,,With Brainslug Difficult 2 No Money,12,images/assets/snowy_original.jpg,learning,20,images/assets/success.jpg,images/assets/gameover.jpg,,,,,,,,,,,,,0,9,9,3,1,,,,,,,,,,,,,,,,,,,,,,,,,,,,,,,,
,,,,,,,,,,,,66eebc1a09c4c8c4a1447329,001,3,2024-10-09_11h54.08.688,avatar_quest_3AFC_legacy,2022.1.3,Win32,60.24096386,66eebc1a09c4c8c4a1447329,62bca317d87d479cda00ba3d,6706acca3c6b40c2f6dc5c2f,,,,,,,,,,,,,,,,,,,,,,With Brainslug Difficult 2 With Money,12,images/assets/snowy_money.jpg,learning,20,images/assets/success_money.jpg,images/assets/gameover.jpg,,,,,,,,,,,,,0,10,10,2,1,,,,,,,,,,,,,,,,,,,,,,,,,,,,,,,,
,,,,,,,,,,,,66eebc1a09c4c8c4a1447329,001,3,2024-10-09_11h54.08.688,avatar_quest_3AFC_legacy,2022.1.3,Win32,60.24096386,66eebc1a09c4c8c4a1447329,62bca317d87d479cda00ba3d,6706acca3c6b40c2f6dc5c2f,,,,,,,,,,,,,,,,,,,,,,,,,,,,,,,,,,,,,,,,,,,,,,,,,,,,,,,1,0,1,0,1,,,,,,,,,,,,,,,,,,
,,,,,,,,,,,,66eebc1a09c4c8c4a1447329,001,3,2024-10-09_11h54.08.688,avatar_quest_3AFC_legacy,2022.1.3,Win32,60.24096386,66eebc1a09c4c8c4a1447329,62bca317d87d479cda00ba3d,6706acca3c6b40c2f6dc5c2f,,,,,,,,,,,,,,,,,,,,,,No Brainslug Difficult 2 No Money,12,images/assets/snowy_original.jpg,learning,20,images/assets/success.jpg,images/assets/gameover.jpg,,,,,,,,No Brainslug No Barriers With Money,No Brainslug No Barriers No Money,right,0.4612,"[""No Brainslug No Barriers No Money"",""No Brainslug Difficult 1 No Money""]",0,0,0,8,1,,,,,,,,,,,,,,,,,,,,,,,,,,,,,,,,
,,,,,,,,,,,,66eebc1a09c4c8c4a1447329,001,3,2024-10-09_11h54.08.688,avatar_quest_3AFC_legacy,2022.1.3,Win32,60.24096386,66eebc1a09c4c8c4a1447329,62bca317d87d479cda00ba3d,6706acca3c6b40c2f6dc5c2f,,,,,,,,,,,,,,,,,,,,,,No Brainslug Difficult 1 No Money,6,images/assets/snowy_original.jpg,learning,20,images/assets/success.jpg,images/assets/gameover.jpg,,,,,,,,,,,,,0,1,1,6,1,,,,,,,,,,,,,,,,,,,,,,,,,,,,,,,,
,,,,,,,,,,,,66eebc1a09c4c8c4a1447329,001,3,2024-10-09_11h54.08.688,avatar_quest_3AFC_legacy,2022.1.3,Win32,60.24096386,66eebc1a09c4c8c4a1447329,62bca317d87d479cda00ba3d,6706acca3c6b40c2f6dc5c2f,,,,,,,,,,,,,,,,,,,,,,With Brainslug Difficult 2 With Money,12,images/assets/snowy_money.jpg,learning,20,images/assets/success_money.jpg,images/assets/gameover.jpg,,,,,,,,,,,,,0,2,2,2,1,,,,,,,,,,,,,,,,,,,,,,,,,,,,,,,,
,,,,,,,,,,,,66eebc1a09c4c8c4a1447329,001,3,2024-10-09_11h54.08.688,avatar_quest_3AFC_legacy,2022.1.3,Win32,60.24096386,66eebc1a09c4c8c4a1447329,62bca317d87d479cda00ba3d,6706acca3c6b40c2f6dc5c2f,,,,,,,,,,,,,,,,,,,,,,No Brainslug No Barriers No Money,0,images/assets/snowy_original.jpg,learning,10,images/assets/success.jpg,images/assets/gameover.jpg,,,,,,,,,,,,,0,3,3,10,1,,,,,,,,,,,,,,,,,,,,,,,,,,,,,,,,
,,,,,,,,,,,,66eebc1a09c4c8c4a1447329,001,3,2024-10-09_11h54.08.688,avatar_quest_3AFC_legacy,2022.1.3,Win32,60.24096386,66eebc1a09c4c8c4a1447329,62bca317d87d479cda00ba3d,6706acca3c6b40c2f6dc5c2f,,,,,,,,,,,,,,,,,,,,,,With Brainslug Difficult 2 No Money,12,images/assets/snowy_original.jpg,learning,20,images/assets/success.jpg,images/assets/gameover.jpg,,,,,,,,,,,,,0,4,4,3,1,,,,,,,,,,,,,,,,,,,,,,,,,,,,,,,,
,,,,,,,,,,,,66eebc1a09c4c8c4a1447329,001,3,2024-10-09_11h54.08.688,avatar_quest_3AFC_legacy,2022.1.3,Win32,60.24096386,66eebc1a09c4c8c4a1447329,62bca317d87d479cda00ba3d,6706acca3c6b40c2f6dc5c2f,,,,,,,,,,,,,,,,,,,,,,With Brainslug Difficult 1 No Money,6,images/assets/snowy_original.jpg,learning,20,images/assets/success.jpg,images/assets/gameover.jpg,,,,,,,,,,,,,0,5,5,1,1,,,,,,,,,,,,,,,,,,,,,,,,,,,,,,,,
,,,,,,,,,,,,66eebc1a09c4c8c4a1447329,001,3,2024-10-09_11h54.08.688,avatar_quest_3AFC_legacy,2022.1.3,Win32,60.24096386,66eebc1a09c4c8c4a1447329,62bca317d87d479cda00ba3d,6706acca3c6b40c2f6dc5c2f,,,,,,,,,,,,,,,,,,,,,,With Brainslug Difficult 1 With Money,6,images/assets/snowy_money.jpg,learning,20,images/assets/success_money.jpg,images/assets/gameover.jpg,,,,,,,,,,,,,0,6,6,0,1,,,,,,,,,,,,,,,,,,,,,,,,,,,,,,,,
,,,,,,,,,,,,66eebc1a09c4c8c4a1447329,001,3,2024-10-09_11h54.08.688,avatar_quest_3AFC_legacy,2022.1.3,Win32,60.24096386,66eebc1a09c4c8c4a1447329,62bca317d87d479cda00ba3d,6706acca3c6b40c2f6dc5c2f,,,,,,,,,,,,,,,,,,,,,,With Brainslug No Barriers With Money,0,images/assets/snowy_money.jpg,learning,10,images/assets/success_money.jpg,images/assets/gameover.jpg,,,,,,,,,,,,,0,7,7,4,1,,,,,,,,,,,,,,,,,,,,,,,,,,,,,,,,
,,,,,,,,,,,,66eebc1a09c4c8c4a1447329,001,3,2024-10-09_11h54.08.688,avatar_quest_3AFC_legacy,2022.1.3,Win32,60.24096386,66eebc1a09c4c8c4a1447329,62bca317d87d479cda00ba3d,6706acca3c6b40c2f6dc5c2f,,,,,,,,,,,,,,,,,,,,,,No Brainslug Difficult 2 With Money,12,images/assets/snowy_money.jpg,learning,20,images/assets/success_money.jpg,images/assets/gameover.jpg,,,,,,,,,,,,,0,8,8,7,1,,,,,,,,,,,,,,,,,,,,,,,,,,,,,,,,
,,,,,,,,,,,,66eebc1a09c4c8c4a1447329,001,3,2024-10-09_11h54.08.688,avatar_quest_3AFC_legacy,2022.1.3,Win32,60.24096386,66eebc1a09c4c8c4a1447329,62bca317d87d479cda00ba3d,6706acca3c6b40c2f6dc5c2f,,,,,,,,,,,,,,,,,,,,,,With Brainslug No Barriers No Money,0,images/assets/snowy_original.jpg,learning,10,images/assets/success.jpg,images/assets/gameover.jpg,,,,,,,,,,,,,0,9,9,5,1,,,,,,,,,,,,,,,,,,,,,,,,,,,,,,,,
,,,,,,,,,,,,66eebc1a09c4c8c4a1447329,001,3,2024-10-09_11h54.08.688,avatar_quest_3AFC_legacy,2022.1.3,Win32,60.24096386,66eebc1a09c4c8c4a1447329,62bca317d87d479cda00ba3d,6706acca3c6b40c2f6dc5c2f,"[""right"",""right"",""right"",""right"",""right"",""right"",""right"",""right"",""right"",""right"",""left"",""left"",""left"",""left"",""left"",""left"",""left"",""left"",""left"",""left"",""left""]","[0.1915000000000191,0.5917000002860959,0.92349999999999,1.2753000001907822,1.561200000286135,1.9560000000000173,2.222499999999968,2.9041000003815043,3.1891000003814725,3.5389999999999873,4.3936000003814115,4.708300000190775,4.891900000095347,5.141400000095359,5.355600000381514,5.605700000286106,5.855900000095403,6.076999999999998,6.293100000381514,6.522300000190739,6.793800000190686]",,calibration,No Brainslug No Barriers With Money,18,7.3688,7.2492,5,0,114,TRUE,na,na,na,na,,,,,,,,,,,,,,,,,,,,,,,,,,,,,,,,,,0,0,0,0,1,,,,,,,,,,,,,,,,,,,,,,,
,,,,,,,,,,,,66eebc1a09c4c8c4a1447329,001,3,2024-10-09_11h54.08.688,avatar_quest_3AFC_legacy,2022.1.3,Win32,60.24096386,66eebc1a09c4c8c4a1447329,62bca317d87d479cda00ba3d,6706acca3c6b40c2f6dc5c2f,,,,,,,,,,,,,,,,,,,,,,No Brainslug No Barriers With Money,0,images/assets/snowy_money.jpg,learning,10,images/assets/success_money.jpg,images/assets/gameover.jpg,,,,,,,,,,,,,0,10,10,9,1,,,,,,,,,,,,,,,,,,,,,,,,,,,,,,,,
,,,,,,,,,,,,66eebc1a09c4c8c4a1447329,001,3,2024-10-09_11h54.08.688,avatar_quest_3AFC_legacy,2022.1.3,Win32,60.24096386,66eebc1a09c4c8c4a1447329,62bca317d87d479cda00ba3d,6706acca3c6b40c2f6dc5c2f,,,,,,,,,,,,,,,,,,,,,,,,,,,,,,,,,,,,,,,,,,,,,,,,,,,,,,,2,0,2,0,1,,,,,,,,,,,,,,,,,,
,,,,,,,,,,,,66eebc1a09c4c8c4a1447329,001,3,2024-10-09_11h54.08.688,avatar_quest_3AFC_legacy,2022.1.3,Win32,60.24096386,66eebc1a09c4c8c4a1447329,62bca317d87d479cda00ba3d,6706acca3c6b40c2f6dc5c2f,,,,,,,,,,,,,,,,,,,,,,With Brainslug Difficult 2 No Money,12,images/assets/snowy_original.jpg,learning,20,images/assets/success.jpg,images/assets/gameover.jpg,,,,,,,,No Brainslug No Barriers With Money,No Brainslug No Barriers No Money,right,1.0539,"[""No Brainslug No Barriers No Money"",""No Brainslug Difficult 1 No Money""]",0,0,0,3,1,,,,,,,,,,,,,,,,,,,,,,,,,,,,,,,,
,,,,,,,,,,,,66eebc1a09c4c8c4a1447329,001,3,2024-10-09_11h54.08.688,avatar_quest_3AFC_legacy,2022.1.3,Win32,60.24096386,66eebc1a09c4c8c4a1447329,62bca317d87d479cda00ba3d,6706acca3c6b40c2f6dc5c2f,,,,,,,,,,,,,,,,,,,,,,No Brainslug No Barriers No Money,0,images/assets/snowy_original.jpg,learning,10,images/assets/success.jpg,images/assets/gameover.jpg,,,,,,,,,,,,,0,1,1,10,1,,,,,,,,,,,,,,,,,,,,,,,,,,,,,,,,
,,,,,,,,,,,,66eebc1a09c4c8c4a1447329,001,3,2024-10-09_11h54.08.688,avatar_quest_3AFC_legacy,2022.1.3,Win32,60.24096386,66eebc1a09c4c8c4a1447329,62bca317d87d479cda00ba3d,6706acca3c6b40c2f6dc5c2f,,,,,,,,,,,,,,,,,,,,,,With Brainslug Difficult 1 No Money,6,images/assets/snowy_original.jpg,learning,20,images/assets/success.jpg,images/assets/gameover.jpg,,,,,,,,,,,,,0,2,2,1,1,,,,,,,,,,,,,,,,,,,,,,,,,,,,,,,,
,,,,,,,,,,,,66eebc1a09c4c8c4a1447329,001,3,2024-10-09_11h54.08.688,avatar_quest_3AFC_legacy,2022.1.3,Win32,60.24096386,66eebc1a09c4c8c4a1447329,62bca317d87d479cda00ba3d,6706acca3c6b40c2f6dc5c2f,,,,,,,,,,,,,,,,,,,,,,No Brainslug Difficult 2 With Money,12,images/assets/snowy_money.jpg,learning,20,images/assets/success_money.jpg,images/assets/gameover.jpg,,,,,,,,,,,,,0,3,3,7,1,,,,,,,,,,,,,,,,,,,,,,,,,,,,,,,,
,,,,,,,,,,,,66eebc1a09c4c8c4a1447329,001,3,2024-10-09_11h54.08.688,avatar_quest_3AFC_legacy,2022.1.3,Win32,60.24096386,66eebc1a09c4c8c4a1447329,62bca317d87d479cda00ba3d,6706acca3c6b40c2f6dc5c2f,,,,,,,,,,,,,,,,,,,,,,No Brainslug Difficult 1 No Money,6,images/assets/snowy_original.jpg,learning,20,images/assets/success.jpg,images/assets/gameover.jpg,,,,,,,,,,,,,0,4,4,6,1,,,,,,,,,,,,,,,,,,,,,,,,,,,,,,,,
,,,,,,,,,,,,66eebc1a09c4c8c4a1447329,001,3,2024-10-09_11h54.08.688,avatar_quest_3AFC_legacy,2022.1.3,Win32,60.24096386,66eebc1a09c4c8c4a1447329,62bca317d87d479cda00ba3d,6706acca3c6b40c2f6dc5c2f,,,,,,,,,,,,,,,,,,,,,,With Brainslug Difficult 1 With Money,6,images/assets/snowy_money.jpg,learning,20,images/assets/success_money.jpg,images/assets/gameover.jpg,,,,,,,,,,,,,0,5,5,0,1,,,,,,,,,,,,,,,,,,,,,,,,,,,,,,,,
,,,,,,,,,,,,66eebc1a09c4c8c4a1447329,001,3,2024-10-09_11h54.08.688,avatar_quest_3AFC_legacy,2022.1.3,Win32,60.24096386,66eebc1a09c4c8c4a1447329,62bca317d87d479cda00ba3d,6706acca3c6b40c2f6dc5c2f,,,,,,,,,,,,,,,,,,,,,,With Brainslug No Barriers With Money,0,images/assets/snowy_money.jpg,learning,10,images/assets/success_money.jpg,images/assets/gameover.jpg,,,,,,,,,,,,,0,6,6,4,1,,,,,,,,,,,,,,,,,,,,,,,,,,,,,,,,
,,,,,,,,,,,,66eebc1a09c4c8c4a1447329,001,3,2024-10-09_11h54.08.688,avatar_quest_3AFC_legacy,2022.1.3,Win32,60.24096386,66eebc1a09c4c8c4a1447329,62bca317d87d479cda00ba3d,6706acca3c6b40c2f6dc5c2f,,,,,,,,,,,,,,,,,,,,,,With Brainslug No Barriers No Money,0,images/assets/snowy_original.jpg,learning,10,images/assets/success.jpg,images/assets/gameover.jpg,,,,,,,,,,,,,0,7,7,5,1,,,,,,,,,,,,,,,,,,,,,,,,,,,,,,,,
,,,,,,,,,,,,66eebc1a09c4c8c4a1447329,001,3,2024-10-09_11h54.08.688,avatar_quest_3AFC_legacy,2022.1.3,Win32,60.24096386,66eebc1a09c4c8c4a1447329,62bca317d87d479cda00ba3d,6706acca3c6b40c2f6dc5c2f,,,,,,,,,,,,,,,,,,,,,,With Brainslug Difficult 2 With Money,12,images/assets/snowy_money.jpg,learning,20,images/assets/success_money.jpg,images/assets/gameover.jpg,,,,,,,,,,,,,0,8,8,2,1,,,,,,,,,,,,,,,,,,,,,,,,,,,,,,,,
,,,,,,,,,,,,66eebc1a09c4c8c4a1447329,001,3,2024-10-09_11h54.08.688,avatar_quest_3AFC_legacy,2022.1.3,Win32,60.24096386,66eebc1a09c4c8c4a1447329,62bca317d87d479cda00ba3d,6706acca3c6b40c2f6dc5c2f,,,,,,,,,,,,,,,,,,,,,,No Brainslug Difficult 2 No Money,12,images/assets/snowy_original.jpg,learning,20,images/assets/success.jpg,images/assets/gameover.jpg,,,,,,,,,,,,,0,9,9,8,1,,,,,,,,,,,,,,,,,,,,,,,,,,,,,,,,
,,,,,,,,,,,,66eebc1a09c4c8c4a1447329,001,3,2024-10-09_11h54.08.688,avatar_quest_3AFC_legacy,2022.1.3,Win32,60.24096386,66eebc1a09c4c8c4a1447329,62bca317d87d479cda00ba3d,6706acca3c6b40c2f6dc5c2f,"[""right"",""right"",""right"",""left"",""left"",""left"",""left"",""left"",""left"",""left"",""left"",""left"",""left"",""left"",""left"",""left"",""left"",""left""]","[0.016100000381470636,0.379300000190824,0.712500000000091,1.5790000000000646,1.8190000000000737,2.0774000000953947,2.3341000003814543,2.580500000000029,2.84699999999998,3.1468000001907512,3.3968000001907512,3.630700000286083,3.863400000095453,4.163000000000011,4.446000000000026,4.662700000286122,4.900500000000079,5.1306000003814916]",,calibration,No Brainslug No Barriers With Money,19,7.3688,5.3829,5,0,0,TRUE,na,na,na,na,,,,,,,,,,,,,,,,,,,,,,,,,,,,,,,,,,0,0,0,0,1,,,,,,,,,,,,,,,,,,,,,,,
