instruction_mouse.x,instruction_mouse.y,instruction_mouse.leftButton,instruction_mouse.midButton,instruction_mouse.rightButton,instruction_mouse.clicked_name,introduce_general.thisRepN,introduce_general.thisTrialN,introduce_general.thisN,introduce_general.thisIndex,introduce_general.ran,thisInstruction,participant,session,game version,date,expName,psychopyVersion,OS,frameRate,PROLIFIC PID,STUDY ID,SESSION ID,move_resp.keys,move_resp.rt,end_resp.keys,phase,condition,trial_num,time_limit,completion_time,left_right_steps,number_of_obsticle_blocks,number_of_tree_blocks,quest_complete,responsivity_summary,av_inter_brainslug_intervals,proportion_jitter,jitter_direction_proportion_right,calibration_phase.thisRepN,calibration_phase.thisTrialN,calibration_phase.thisN,calibration_phase.thisIndex,calibration_phase.ran,BlockLabel,nObsticles,backgroundImage,phaseLabel,n_side_steps,success_im,gameover_im,success_condition,introduce_learning_or_choice.thisRepN,introduce_learning_or_choice.thisTrialN,introduce_learning_or_choice.thisN,introduce_learning_or_choice.thisIndex,introduce_learning_or_choice.ran,choice_resp.keys,chosen_quest,unchosen_quest,choice_resp_3afc.keys,choice_resp_3afc.rt,unchosen_quests,forced_choice_trial.thisRepN,forced_choice_trial.thisTrialN,forced_choice_trial.thisN,forced_choice_trial.thisIndex,forced_choice_trial.ran,enjoyment_slider.response,enjoyment_slider.rt,effort_slider.response,effort_slider.rt,show_loop2.thisRepN,show_loop2.thisTrialN,show_loop2.thisN,show_loop2.thisIndex,show_loop2.ran,trials_per_block.thisRepN,trials_per_block.thisTrialN,trials_per_block.thisN,trials_per_block.thisIndex,trials_per_block.ran,decision_phase_AFC.thisRepN,decision_phase_AFC.thisTrialN,decision_phase_AFC.thisN,decision_phase_AFC.thisIndex,decision_phase_AFC.ran,blockN,BlockLabel1,questIm1,BlockLabel2,questIm2,BlockLabel3,questIm3,quest_condition,showForcedChoice.thisRepN,showForcedChoice.thisTrialN,showForcedChoice.thisN,showForcedChoice.thisIndex,showForcedChoice.ran
0.360952381,-0.402857143,1,0,0,instruction_button,0,0,0,0,1,images/instructions_part1_LSM_taskversion1/Slide1.JPG,6708079d21a0f618b83716b0,001,3,2025-04-15_11h50.53.567,avatar_quest_3AFC_legacy,2022.1.3,MacIntel,57.14285714,6708079d21a0f618b83716b0,67fe6e666cecbc9329ddf6d6,67fe7f3efb3fdb152403a598,,,,,,,,,,,,,,,,,,,,,,,,,,,,,,,,,,,,,,,,,,,,,,,,,,,,,,,,,,,,,,,,,,,,,,,,,,,,,
0.398571429,-0.407142857,1,0,0,instruction_button,0,1,1,1,1,images/instructions_part1_LSM_taskversion1/Slide2.JPG,6708079d21a0f618b83716b0,001,3,2025-04-15_11h50.53.567,avatar_quest_3AFC_legacy,2022.1.3,MacIntel,57.14285714,6708079d21a0f618b83716b0,67fe6e666cecbc9329ddf6d6,67fe7f3efb3fdb152403a598,,,,,,,,,,,,,,,,,,,,,,,,,,,,,,,,,,,,,,,,,,,,,,,,,,,,,,,,,,,,,,,,,,,,,,,,,,,,,
0.398571429,-0.407142857,1,0,0,instruction_button,0,2,2,2,1,images/instructions_part1_LSM_taskversion1/Slide3.JPG,6708079d21a0f618b83716b0,001,3,2025-04-15_11h50.53.567,avatar_quest_3AFC_legacy,2022.1.3,MacIntel,57.14285714,6708079d21a0f618b83716b0,67fe6e666cecbc9329ddf6d6,67fe7f3efb3fdb152403a598,,,,,,,,,,,,,,,,,,,,,,,,,,,,,,,,,,,,,,,,,,,,,,,,,,,,,,,,,,,,,,,,,,,,,,,,,,,,,
0.398571429,-0.407142857,1,0,0,instruction_button,0,3,3,3,1,images/instructions_part1_LSM_taskversion1/Slide3.5.JPG,6708079d21a0f618b83716b0,001,3,2025-04-15_11h50.53.567,avatar_quest_3AFC_legacy,2022.1.3,MacIntel,57.14285714,6708079d21a0f618b83716b0,67fe6e666cecbc9329ddf6d6,67fe7f3efb3fdb152403a598,,,,,,,,,,,,,,,,,,,,,,,,,,,,,,,,,,,,,,,,,,,,,,,,,,,,,,,,,,,,,,,,,,,,,,,,,,,,,
0.398571429,-0.407142857,1,0,0,instruction_button,0,4,4,4,1,images/instructions_part1_LSM_taskversion1/Slide4.JPG,6708079d21a0f618b83716b0,001,3,2025-04-15_11h50.53.567,avatar_quest_3AFC_legacy,2022.1.3,MacIntel,57.14285714,6708079d21a0f618b83716b0,67fe6e666cecbc9329ddf6d6,67fe7f3efb3fdb152403a598,,,,,,,,,,,,,,,,,,,,,,,,,,,,,,,,,,,,,,,,,,,,,,,,,,,,,,,,,,,,,,,,,,,,,,,,,,,,,
0.398571429,-0.407142857,1,0,0,instruction_button,0,5,5,5,1,images/instructions_part1_LSM_taskversion1/Slide6.5.JPG,6708079d21a0f618b83716b0,001,3,2025-04-15_11h50.53.567,avatar_quest_3AFC_legacy,2022.1.3,MacIntel,57.14285714,6708079d21a0f618b83716b0,67fe6e666cecbc9329ddf6d6,67fe7f3efb3fdb152403a598,,,,,,,,,,,,,,,,,,,,,,,,,,,,,,,,,,,,,,,,,,,,,,,,,,,,,,,,,,,,,,,,,,,,,,,,,,,,,
,,,,,,,,,,,,6708079d21a0f618b83716b0,001,3,2025-04-15_11h50.53.567,avatar_quest_3AFC_legacy,2022.1.3,MacIntel,57.14285714,6708079d21a0f618b83716b0,67fe6e666cecbc9329ddf6d6,67fe7f3efb3fdb152403a598,"[""left"",""left"",""right"",""right"",""right"",""right"",""right"",""right""]","[2.9010000000000105,3.4510000000000076,3.9010000000000105,4.117000000000004,4.317000000000007,4.5020000000000095,4.652000000000001,5.018000000000001]",,calibration,No Brainslug No Barriers No Money,1,100,5.383,5,0,7,TRUE,na,na,na,na,0,0,0,1,1,No Brainslug No Barriers No Money,0,images/assets/snowy_original.jpg,calibration,10,images/assets/success.jpg,images/assets/gameover.jpg,never,,,,,,,,,,,,,,,,,,,,,,,,,,,,,,,,,,,,,,,,,,,,,,,,
,,,,,,,,,,,,6708079d21a0f618b83716b0,001,3,2025-04-15_11h50.53.567,avatar_quest_3AFC_legacy,2022.1.3,MacIntel,57.14285714,6708079d21a0f618b83716b0,67fe6e666cecbc9329ddf6d6,67fe7f3efb3fdb152403a598,"[""right"",""left"",""left"",""left"",""left"",""left"",""left"",""right"",""right"",""right"",""right"",""right"",""right"",""right"",""up"",""up"",""up"",""left"",""left""]","[0.0010000000000047748,0.507000000000005,2.2390000000000043,2.8089999999999975,3.0390000000000015,3.192999999999998,3.3560000000000088,3.591000000000008,3.8220000000000027,4.102000000000004,4.256,4.5390000000000015,4.756,4.906000000000006,7.622,8.323000000000008,8.88900000000001,9.298000000000002,9.838999999999999]",,calibration,No Brainslug No Barriers No Money,2,100,10.464,11,0,302,TRUE,na,na,na,na,0,1,1,0,1,No Brainslug No Barriers No Money,0,images/assets/snowy_original.jpg,calibration,10,images/assets/success.jpg,images/assets/gameover.jpg,never,,,,,,,,,,,,,,,,,,,,,,,,,,,,,,,,,,,,,,,,,,,,,,,,
,,,,,,,,,,,,6708079d21a0f618b83716b0,001,3,2025-04-15_11h50.53.567,avatar_quest_3AFC_legacy,2022.1.3,MacIntel,57.14285714,6708079d21a0f618b83716b0,67fe6e666cecbc9329ddf6d6,67fe7f3efb3fdb152403a598,"[""right"",""right"",""right"",""left"",""left"",""left"",""left"",""left"",""left"",""left"",""left"",""right"",""right"",""right"",""right"",""right"",""right""]","[1.2219999999999942,1.4200000000000017,1.5879999999999939,2.0379999999999967,2.4879999999999995,2.771000000000001,2.9380000000000024,3.087999999999994,3.2379999999999995,3.3880000000000052,3.5379999999999967,3.906000000000006,4.090000000000003,4.403999999999996,4.605000000000004,4.707999999999998,4.906000000000006]",,calibration,No Brainslug No Barriers No Money,3,100,5.327,9,0,0,TRUE,na,na,na,na,0,2,2,2,1,No Brainslug No Barriers No Money,0,images/assets/snowy_original.jpg,calibration,10,images/assets/success.jpg,images/assets/gameover.jpg,never,,,,,,,,,,,,,,,,,,,,,,,,,,,,,,,,,,,,,,,,,,,,,,,,
0.383809524,-0.412380952,1,0,0,instruction_button,,,,,,images/instructions_part2_LSM_taskversion3.jpg,6708079d21a0f618b83716b0,001,3,2025-04-15_11h50.53.567,avatar_quest_3AFC_legacy,2022.1.3,MacIntel,57.14285714,6708079d21a0f618b83716b0,67fe6e666cecbc9329ddf6d6,67fe7f3efb3fdb152403a598,,,,,,,,,,,,,,,,,,,,,,,,,,,,,,0,0,0,0,1,,,,,,,,,,,,,,,,,,,,,,,,,,,,,,,,,,,,,,,,,,,
,,,,,,,,,,,,6708079d21a0f618b83716b0,001,3,2025-04-15_11h50.53.567,avatar_quest_3AFC_legacy,2022.1.3,MacIntel,57.14285714,6708079d21a0f618b83716b0,67fe6e666cecbc9329ddf6d6,67fe7f3efb3fdb152403a598,,,,,,,,,,,,,,,,,,,,,,With Brainslug Difficult 2 No Money,12,images/assets/snowy_original.jpg,learning,20,images/assets/success.jpg,images/assets/gameover.jpg,,,,,,,,With Brainslug Difficult 1 No Money,With Brainslug Difficult 1 No Money,left,1.204,"[""With Brainslug Difficult 2 No Money"",""With Brainslug Difficult 2 With Money""]",0,0,0,3,1,,,,,,,,,,,,,,,,,,,,,,,,,,,,,,,,
,,,,,,,,,,,,6708079d21a0f618b83716b0,001,3,2025-04-15_11h50.53.567,avatar_quest_3AFC_legacy,2022.1.3,MacIntel,57.14285714,6708079d21a0f618b83716b0,67fe6e666cecbc9329ddf6d6,67fe7f3efb3fdb152403a598,,,,,,,,,,,,,,,,,,,,,,No Brainslug Difficult 2 No Money,12,images/assets/snowy_original.jpg,learning,20,images/assets/success.jpg,images/assets/gameover.jpg,,,,,,,,,,,,,0,1,1,8,1,,,,,,,,,,,,,,,,,,,,,,,,,,,,,,,,
,,,,,,,,,,,,6708079d21a0f618b83716b0,001,3,2025-04-15_11h50.53.567,avatar_quest_3AFC_legacy,2022.1.3,MacIntel,57.14285714,6708079d21a0f618b83716b0,67fe6e666cecbc9329ddf6d6,67fe7f3efb3fdb152403a598,,,,,,,,,,,,,,,,,,,,,,With Brainslug No Barriers With Money,0,images/assets/snowy_money.jpg,learning,10,images/assets/success_money.jpg,images/assets/gameover.jpg,,,,,,,,,,,,,0,2,2,4,1,,,,,,,,,,,,,,,,,,,,,,,,,,,,,,,,
,,,,,,,,,,,,6708079d21a0f618b83716b0,001,3,2025-04-15_11h50.53.567,avatar_quest_3AFC_legacy,2022.1.3,MacIntel,57.14285714,6708079d21a0f618b83716b0,67fe6e666cecbc9329ddf6d6,67fe7f3efb3fdb152403a598,,,,,,,,,,,,,,,,,,,,,,No Brainslug Difficult 1 No Money,6,images/assets/snowy_original.jpg,learning,20,images/assets/success.jpg,images/assets/gameover.jpg,,,,,,,,,,,,,0,3,3,6,1,,,,,,,,,,,,,,,,,,,,,,,,,,,,,,,,
,,,,,,,,,,,,6708079d21a0f618b83716b0,001,3,2025-04-15_11h50.53.567,avatar_quest_3AFC_legacy,2022.1.3,MacIntel,57.14285714,6708079d21a0f618b83716b0,67fe6e666cecbc9329ddf6d6,67fe7f3efb3fdb152403a598,"[""right"",""left"",""left"",""right"",""up"",""right"",""right"",""right"",""right"",""up"",""right""]","[0.7820000000000107,1.5300000000000011,2.6670000000000016,3.4790000000000134,4.64500000000001,5.496000000000009,7.413000000000011,8.129000000000019,8.912000000000006,9.480999999999995,10.418000000000006]",,calibration,With Brainslug Difficult 1 No Money,4,10.587,10.595,6,1,0,FALSE,na,na,na,na,,,,,,,,,,,,,,,,,,,,,,,,,,,,,,,,,,0,0,0,0,1,,,,,,,,,,,,,,,,,,,,,,,
,,,,,,,,,,,,6708079d21a0f618b83716b0,001,3,2025-04-15_11h50.53.567,avatar_quest_3AFC_legacy,2022.1.3,MacIntel,57.14285714,6708079d21a0f618b83716b0,67fe6e666cecbc9329ddf6d6,67fe7f3efb3fdb152403a598,,,,,,,,,,,,,,,,,,,,,,With Brainslug Difficult 1 No Money,6,images/assets/snowy_original.jpg,learning,20,images/assets/success.jpg,images/assets/gameover.jpg,,,,,,,,,,,,,0,4,4,1,1,,,,,,,,,,,,,,,,,,,,,,,,,,,,,,,,
,,,,,,,,,,,,6708079d21a0f618b83716b0,001,3,2025-04-15_11h50.53.567,avatar_quest_3AFC_legacy,2022.1.3,MacIntel,57.14285714,6708079d21a0f618b83716b0,67fe6e666cecbc9329ddf6d6,67fe7f3efb3fdb152403a598,,,,,,,,,,,,,,,,,,,,,,No Brainslug No Barriers With Money,0,images/assets/snowy_money.jpg,learning,10,images/assets/success_money.jpg,images/assets/gameover.jpg,,,,,,,,,,,,,0,5,5,9,1,,,,,,,,,,,,,,,,,,,,,,,,,,,,,,,,
,,,,,,,,,,,,6708079d21a0f618b83716b0,001,3,2025-04-15_11h50.53.567,avatar_quest_3AFC_legacy,2022.1.3,MacIntel,57.14285714,6708079d21a0f618b83716b0,67fe6e666cecbc9329ddf6d6,67fe7f3efb3fdb152403a598,,,,,,,,,,,,,,,,,,,,,,No Brainslug Difficult 2 With Money,12,images/assets/snowy_money.jpg,learning,20,images/assets/success_money.jpg,images/assets/gameover.jpg,,,,,,,,,,,,,0,6,6,7,1,,,,,,,,,,,,,,,,,,,,,,,,,,,,,,,,
,,,,,,,,,,,,6708079d21a0f618b83716b0,001,3,2025-04-15_11h50.53.567,avatar_quest_3AFC_legacy,2022.1.3,MacIntel,57.14285714,6708079d21a0f618b83716b0,67fe6e666cecbc9329ddf6d6,67fe7f3efb3fdb152403a598,,,,,,,,,,,,,,,,,,,,,,With Brainslug Difficult 2 With Money,12,images/assets/snowy_money.jpg,learning,20,images/assets/success_money.jpg,images/assets/gameover.jpg,,,,,,,,,,,,,0,7,7,2,1,,,,,,,,,,,,,,,,,,,,,,,,,,,,,,,,
,,,,,,,,,,,,6708079d21a0f618b83716b0,001,3,2025-04-15_11h50.53.567,avatar_quest_3AFC_legacy,2022.1.3,MacIntel,57.14285714,6708079d21a0f618b83716b0,67fe6e666cecbc9329ddf6d6,67fe7f3efb3fdb152403a598,,,,,,,,,,,,,,,,,,,,,,With Brainslug Difficult 1 With Money,6,images/assets/snowy_money.jpg,learning,20,images/assets/success_money.jpg,images/assets/gameover.jpg,,,,,,,,,,,,,0,8,8,0,1,,,,,,,,,,,,,,,,,,,,,,,,,,,,,,,,
,,,,,,,,,,,,6708079d21a0f618b83716b0,001,3,2025-04-15_11h50.53.567,avatar_quest_3AFC_legacy,2022.1.3,MacIntel,57.14285714,6708079d21a0f618b83716b0,67fe6e666cecbc9329ddf6d6,67fe7f3efb3fdb152403a598,,,,,,,,,,,,,,,,,,,,,,No Brainslug No Barriers No Money,0,images/assets/snowy_original.jpg,learning,10,images/assets/success.jpg,images/assets/gameover.jpg,,,,,,,,,,,,,0,9,9,10,1,,,,,,,,,,,,,,,,,,,,,,,,,,,,,,,,
,,,,,,,,,,,,6708079d21a0f618b83716b0,001,3,2025-04-15_11h50.53.567,avatar_quest_3AFC_legacy,2022.1.3,MacIntel,57.14285714,6708079d21a0f618b83716b0,67fe6e666cecbc9329ddf6d6,67fe7f3efb3fdb152403a598,,,,,,,,,,,,,,,,,,,,,,With Brainslug No Barriers No Money,0,images/assets/snowy_original.jpg,learning,10,images/assets/success.jpg,images/assets/gameover.jpg,,,,,,,,,,,,,0,10,10,5,1,,,,,,,,,,,,,,,,,,,,,,,,,,,,,,,,
,,,,,,,,,,,,6708079d21a0f618b83716b0,001,3,2025-04-15_11h50.53.567,avatar_quest_3AFC_legacy,2022.1.3,MacIntel,57.14285714,6708079d21a0f618b83716b0,67fe6e666cecbc9329ddf6d6,67fe7f3efb3fdb152403a598,,,,,,,,,,,,,,,,,,,,,,,,,,,,,,,,,,,,,,,,,,,,,,,,,,,,,,,0,0,0,0,1,,,,,,,,,,,,,,,,,,
,,,,,,,,,,,,6708079d21a0f618b83716b0,001,3,2025-04-15_11h50.53.567,avatar_quest_3AFC_legacy,2022.1.3,MacIntel,57.14285714,6708079d21a0f618b83716b0,67fe6e666cecbc9329ddf6d6,67fe7f3efb3fdb152403a598,,,,,,,,,,,,,,,,,,,,,,No Brainslug Difficult 2 With Money,12,images/assets/snowy_money.jpg,learning,20,images/assets/success_money.jpg,images/assets/gameover.jpg,,,,,,,,With Brainslug Difficult 1 No Money,With Brainslug Difficult 1 No Money,left,3.51,"[""With Brainslug Difficult 2 No Money"",""With Brainslug Difficult 2 With Money""]",0,0,0,7,1,,,,,,,,,,,,,,,,,,,,,,,,,,,,,,,,
,,,,,,,,,,,,6708079d21a0f618b83716b0,001,3,2025-04-15_11h50.53.567,avatar_quest_3AFC_legacy,2022.1.3,MacIntel,57.14285714,6708079d21a0f618b83716b0,67fe6e666cecbc9329ddf6d6,67fe7f3efb3fdb152403a598,,,,,,,,,,,,,,,,,,,,,,With Brainslug No Barriers With Money,0,images/assets/snowy_money.jpg,learning,10,images/assets/success_money.jpg,images/assets/gameover.jpg,,,,,,,,,,,,,0,1,1,4,1,,,,,,,,,,,,,,,,,,,,,,,,,,,,,,,,
,,,,,,,,,,,,6708079d21a0f618b83716b0,001,3,2025-04-15_11h50.53.567,avatar_quest_3AFC_legacy,2022.1.3,MacIntel,57.14285714,6708079d21a0f618b83716b0,67fe6e666cecbc9329ddf6d6,67fe7f3efb3fdb152403a598,,,,,,,,,,,,,,,,,,,,,,No Brainslug No Barriers No Money,0,images/assets/snowy_original.jpg,learning,10,images/assets/success.jpg,images/assets/gameover.jpg,,,,,,,,,,,,,0,2,2,10,1,,,,,,,,,,,,,,,,,,,,,,,,,,,,,,,,
,,,,,,,,,,,,6708079d21a0f618b83716b0,001,3,2025-04-15_11h50.53.567,avatar_quest_3AFC_legacy,2022.1.3,MacIntel,57.14285714,6708079d21a0f618b83716b0,67fe6e666cecbc9329ddf6d6,67fe7f3efb3fdb152403a598,,,,,,,,,,,,,,,,,,,,,,No Brainslug Difficult 1 No Money,6,images/assets/snowy_original.jpg,learning,20,images/assets/success.jpg,images/assets/gameover.jpg,,,,,,,,,,,,,0,3,3,6,1,,,,,,,,,,,,,,,,,,,,,,,,,,,,,,,,
,,,,,,,,,,,,6708079d21a0f618b83716b0,001,3,2025-04-15_11h50.53.567,avatar_quest_3AFC_legacy,2022.1.3,MacIntel,57.14285714,6708079d21a0f618b83716b0,67fe6e666cecbc9329ddf6d6,67fe7f3efb3fdb152403a598,,,,,,,,,,,,,,,,,,,,,,With Brainslug No Barriers No Money,0,images/assets/snowy_original.jpg,learning,10,images/assets/success.jpg,images/assets/gameover.jpg,,,,,,,,,,,,,0,4,4,5,1,,,,,,,,,,,,,,,,,,,,,,,,,,,,,,,,
,,,,,,,,,,,,6708079d21a0f618b83716b0,001,3,2025-04-15_11h50.53.567,avatar_quest_3AFC_legacy,2022.1.3,MacIntel,57.14285714,6708079d21a0f618b83716b0,67fe6e666cecbc9329ddf6d6,67fe7f3efb3fdb152403a598,,,,,,,,,,,,,,,,,,,,,,No Brainslug Difficult 2 No Money,12,images/assets/snowy_original.jpg,learning,20,images/assets/success.jpg,images/assets/gameover.jpg,,,,,,,,,,,,,0,5,5,8,1,,,,,,,,,,,,,,,,,,,,,,,,,,,,,,,,
,,,,,,,,,,,,6708079d21a0f618b83716b0,001,3,2025-04-15_11h50.53.567,avatar_quest_3AFC_legacy,2022.1.3,MacIntel,57.14285714,6708079d21a0f618b83716b0,67fe6e666cecbc9329ddf6d6,67fe7f3efb3fdb152403a598,"[""right"",""right"",""right"",""left"",""right"",""up"",""up"",""up"",""left"",""right"",""right"",""left"",""right"",""left"",""left"",""right"",""left""]","[0.5689999999999884,0.9699999999999989,2.406000000000006,3.0279999999999916,3.3930000000000007,5.193999999999988,5.193999999999988,5.304000000000002,5.670999999999992,6.060000000000002,6.6200000000000045,7.789999999999992,8.245000000000005,8.903999999999996,9.187999999999988,9.528999999999996,9.99199999999999]",,calibration,With Brainslug Difficult 1 No Money,5,10.587,10.604,5,2,0,FALSE,na,na,na,na,,,,,,,,,,,,,,,,,,,,,,,,,,,,,,,,,,0,0,0,0,1,,,,,,,,,,,,,,,,,,,,,,,
,,,,,,,,,,,,6708079d21a0f618b83716b0,001,3,2025-04-15_11h50.53.567,avatar_quest_3AFC_legacy,2022.1.3,MacIntel,57.14285714,6708079d21a0f618b83716b0,67fe6e666cecbc9329ddf6d6,67fe7f3efb3fdb152403a598,,,,,,,,,,,,,,,,,,,,,,With Brainslug Difficult 1 No Money,6,images/assets/snowy_original.jpg,learning,20,images/assets/success.jpg,images/assets/gameover.jpg,,,,,,,,,,,,,0,6,6,1,1,,,,,,,,,,,,,,,,,,,,,,,,,,,,,,,,
,,,,,,,,,,,,6708079d21a0f618b83716b0,001,3,2025-04-15_11h50.53.567,avatar_quest_3AFC_legacy,2022.1.3,MacIntel,57.14285714,6708079d21a0f618b83716b0,67fe6e666cecbc9329ddf6d6,67fe7f3efb3fdb152403a598,,,,,,,,,,,,,,,,,,,,,,With Brainslug Difficult 1 With Money,6,images/assets/snowy_money.jpg,learning,20,images/assets/success_money.jpg,images/assets/gameover.jpg,,,,,,,,,,,,,0,7,7,0,1,,,,,,,,,,,,,,,,,,,,,,,,,,,,,,,,
,,,,,,,,,,,,6708079d21a0f618b83716b0,001,3,2025-04-15_11h50.53.567,avatar_quest_3AFC_legacy,2022.1.3,MacIntel,57.14285714,6708079d21a0f618b83716b0,67fe6e666cecbc9329ddf6d6,67fe7f3efb3fdb152403a598,,,,,,,,,,,,,,,,,,,,,,With Brainslug Difficult 2 With Money,12,images/assets/snowy_money.jpg,learning,20,images/assets/success_money.jpg,images/assets/gameover.jpg,,,,,,,,,,,,,0,8,8,2,1,,,,,,,,,,,,,,,,,,,,,,,,,,,,,,,,
,,,,,,,,,,,,6708079d21a0f618b83716b0,001,3,2025-04-15_11h50.53.567,avatar_quest_3AFC_legacy,2022.1.3,MacIntel,57.14285714,6708079d21a0f618b83716b0,67fe6e666cecbc9329ddf6d6,67fe7f3efb3fdb152403a598,,,,,,,,,,,,,,,,,,,,,,No Brainslug No Barriers With Money,0,images/assets/snowy_money.jpg,learning,10,images/assets/success_money.jpg,images/assets/gameover.jpg,,,,,,,,,,,,,0,9,9,9,1,,,,,,,,,,,,,,,,,,,,,,,,,,,,,,,,
,,,,,,,,,,,,6708079d21a0f618b83716b0,001,3,2025-04-15_11h50.53.567,avatar_quest_3AFC_legacy,2022.1.3,MacIntel,57.14285714,6708079d21a0f618b83716b0,67fe6e666cecbc9329ddf6d6,67fe7f3efb3fdb152403a598,,,,,,,,,,,,,,,,,,,,,,With Brainslug Difficult 2 No Money,12,images/assets/snowy_original.jpg,learning,20,images/assets/success.jpg,images/assets/gameover.jpg,,,,,,,,,,,,,0,10,10,3,1,,,,,,,,,,,,,,,,,,,,,,,,,,,,,,,,
,,,,,,,,,,,,6708079d21a0f618b83716b0,001,3,2025-04-15_11h50.53.567,avatar_quest_3AFC_legacy,2022.1.3,MacIntel,57.14285714,6708079d21a0f618b83716b0,67fe6e666cecbc9329ddf6d6,67fe7f3efb3fdb152403a598,,,,,,,,,,,,,,,,,,,,,,,,,,,,,,,,,,,,,,,,,,,,,,,,,,,,,,,1,0,1,0,1,,,,,,,,,,,,,,,,,,
,,,,,,,,,,,,6708079d21a0f618b83716b0,001,3,2025-04-15_11h50.53.567,avatar_quest_3AFC_legacy,2022.1.3,MacIntel,57.14285714,6708079d21a0f618b83716b0,67fe6e666cecbc9329ddf6d6,67fe7f3efb3fdb152403a598,,,,,,,,,,,,,,,,,,,,,,No Brainslug Difficult 1 No Money,6,images/assets/snowy_original.jpg,learning,20,images/assets/success.jpg,images/assets/gameover.jpg,,,,,,,,With Brainslug Difficult 2 With Money,With Brainslug Difficult 1 No Money,right,0.019,"[""With Brainslug Difficult 1 No Money"",""With Brainslug Difficult 2 No Money""]",0,0,0,6,1,,,,,,,,,,,,,,,,,,,,,,,,,,,,,,,,
,,,,,,,,,,,,6708079d21a0f618b83716b0,001,3,2025-04-15_11h50.53.567,avatar_quest_3AFC_legacy,2022.1.3,MacIntel,57.14285714,6708079d21a0f618b83716b0,67fe6e666cecbc9329ddf6d6,67fe7f3efb3fdb152403a598,,,,,,,,,,,,,,,,,,,,,,With Brainslug Difficult 1 No Money,6,images/assets/snowy_original.jpg,learning,20,images/assets/success.jpg,images/assets/gameover.jpg,,,,,,,,,,,,,0,1,1,1,1,,,,,,,,,,,,,,,,,,,,,,,,,,,,,,,,
,,,,,,,,,,,,6708079d21a0f618b83716b0,001,3,2025-04-15_11h50.53.567,avatar_quest_3AFC_legacy,2022.1.3,MacIntel,57.14285714,6708079d21a0f618b83716b0,67fe6e666cecbc9329ddf6d6,67fe7f3efb3fdb152403a598,,,,,,,,,,,,,,,,,,,,,,No Brainslug Difficult 2 No Money,12,images/assets/snowy_original.jpg,learning,20,images/assets/success.jpg,images/assets/gameover.jpg,,,,,,,,,,,,,0,2,2,8,1,,,,,,,,,,,,,,,,,,,,,,,,,,,,,,,,
,,,,,,,,,,,,6708079d21a0f618b83716b0,001,3,2025-04-15_11h50.53.567,avatar_quest_3AFC_legacy,2022.1.3,MacIntel,57.14285714,6708079d21a0f618b83716b0,67fe6e666cecbc9329ddf6d6,67fe7f3efb3fdb152403a598,,,,,,,,,,,,,,,,,,,,,,With Brainslug No Barriers No Money,0,images/assets/snowy_original.jpg,learning,10,images/assets/success.jpg,images/assets/gameover.jpg,,,,,,,,,,,,,0,3,3,5,1,,,,,,,,,,,,,,,,,,,,,,,,,,,,,,,,
,,,,,,,,,,,,6708079d21a0f618b83716b0,001,3,2025-04-15_11h50.53.567,avatar_quest_3AFC_legacy,2022.1.3,MacIntel,57.14285714,6708079d21a0f618b83716b0,67fe6e666cecbc9329ddf6d6,67fe7f3efb3fdb152403a598,,,,,,,,,,,,,,,,,,,,,,No Brainslug Difficult 2 With Money,12,images/assets/snowy_money.jpg,learning,20,images/assets/success_money.jpg,images/assets/gameover.jpg,,,,,,,,,,,,,0,4,4,7,1,,,,,,,,,,,,,,,,,,,,,,,,,,,,,,,,
,,,,,,,,,,,,6708079d21a0f618b83716b0,001,3,2025-04-15_11h50.53.567,avatar_quest_3AFC_legacy,2022.1.3,MacIntel,57.14285714,6708079d21a0f618b83716b0,67fe6e666cecbc9329ddf6d6,67fe7f3efb3fdb152403a598,"[""right"",""left"",""left"",""right"",""left"",""right"",""right"",""right"",""right"",""right"",""right"",""left"",""left"",""left"",""left"",""right"",""right"",""left"",""left"",""left"",""left"",""right"",""right"",""left"",""left""]","[0.7699999999999818,1.445999999999998,1.7949999999999875,2.6869999999999834,3.1869999999999834,3.562999999999988,3.938999999999993,4.088999999999999,4.212999999999994,4.59099999999998,5.094999999999999,5.6629999999999825,5.875,6.027999999999992,6.34699999999998,7.0049999999999955,7.329999999999984,7.6629999999999825,7.913999999999987,8.59099999999998,9.062999999999988,9.509999999999991,9.770999999999987,10.230999999999995,10.496999999999986]",,calibration,With Brainslug Difficult 2 With Money,6,10.587,10.608,11,5,0,FALSE,na,na,na,na,,,,,,,,,,,,,,,,,,,,,,,,,,,,,,,,,,0,0,0,0,1,,,,,,,,,,,,,,,,,,,,,,,
,,,,,,,,,,,,6708079d21a0f618b83716b0,001,3,2025-04-15_11h50.53.567,avatar_quest_3AFC_legacy,2022.1.3,MacIntel,57.14285714,6708079d21a0f618b83716b0,67fe6e666cecbc9329ddf6d6,67fe7f3efb3fdb152403a598,,,,,,,,,,,,,,,,,,,,,,With Brainslug Difficult 2 With Money,12,images/assets/snowy_money.jpg,learning,20,images/assets/success_money.jpg,images/assets/gameover.jpg,,,,,,,,,,,,,0,5,5,2,1,,,,,,,,,,,,,,,,,,,,,,,,,,,,,,,,
,,,,,,,,,,,,6708079d21a0f618b83716b0,001,3,2025-04-15_11h50.53.567,avatar_quest_3AFC_legacy,2022.1.3,MacIntel,57.14285714,6708079d21a0f618b83716b0,67fe6e666cecbc9329ddf6d6,67fe7f3efb3fdb152403a598,,,,,,,,,,,,,,,,,,,,,,With Brainslug Difficult 1 With Money,6,images/assets/snowy_money.jpg,learning,20,images/assets/success_money.jpg,images/assets/gameover.jpg,,,,,,,,,,,,,0,6,6,0,1,,,,,,,,,,,,,,,,,,,,,,,,,,,,,,,,
,,,,,,,,,,,,6708079d21a0f618b83716b0,001,3,2025-04-15_11h50.53.567,avatar_quest_3AFC_legacy,2022.1.3,MacIntel,57.14285714,6708079d21a0f618b83716b0,67fe6e666cecbc9329ddf6d6,67fe7f3efb3fdb152403a598,,,,,,,,,,,,,,,,,,,,,,No Brainslug No Barriers No Money,0,images/assets/snowy_original.jpg,learning,10,images/assets/success.jpg,images/assets/gameover.jpg,,,,,,,,,,,,,0,7,7,10,1,,,,,,,,,,,,,,,,,,,,,,,,,,,,,,,,
,,,,,,,,,,,,6708079d21a0f618b83716b0,001,3,2025-04-15_11h50.53.567,avatar_quest_3AFC_legacy,2022.1.3,MacIntel,57.14285714,6708079d21a0f618b83716b0,67fe6e666cecbc9329ddf6d6,67fe7f3efb3fdb152403a598,,,,,,,,,,,,,,,,,,,,,,With Brainslug No Barriers With Money,0,images/assets/snowy_money.jpg,learning,10,images/assets/success_money.jpg,images/assets/gameover.jpg,,,,,,,,,,,,,0,8,8,4,1,,,,,,,,,,,,,,,,,,,,,,,,,,,,,,,,
,,,,,,,,,,,,6708079d21a0f618b83716b0,001,3,2025-04-15_11h50.53.567,avatar_quest_3AFC_legacy,2022.1.3,MacIntel,57.14285714,6708079d21a0f618b83716b0,67fe6e666cecbc9329ddf6d6,67fe7f3efb3fdb152403a598,,,,,,,,,,,,,,,,,,,,,,No Brainslug No Barriers With Money,0,images/assets/snowy_money.jpg,learning,10,images/assets/success_money.jpg,images/assets/gameover.jpg,,,,,,,,,,,,,0,9,9,9,1,,,,,,,,,,,,,,,,,,,,,,,,,,,,,,,,
,,,,,,,,,,,,6708079d21a0f618b83716b0,001,3,2025-04-15_11h50.53.567,avatar_quest_3AFC_legacy,2022.1.3,MacIntel,57.14285714,6708079d21a0f618b83716b0,67fe6e666cecbc9329ddf6d6,67fe7f3efb3fdb152403a598,,,,,,,,,,,,,,,,,,,,,,With Brainslug Difficult 2 No Money,12,images/assets/snowy_original.jpg,learning,20,images/assets/success.jpg,images/assets/gameover.jpg,,,,,,,,,,,,,0,10,10,3,1,,,,,,,,,,,,,,,,,,,,,,,,,,,,,,,,
,,,,,,,,,,,,6708079d21a0f618b83716b0,001,3,2025-04-15_11h50.53.567,avatar_quest_3AFC_legacy,2022.1.3,MacIntel,57.14285714,6708079d21a0f618b83716b0,67fe6e666cecbc9329ddf6d6,67fe7f3efb3fdb152403a598,,,,,,,,,,,,,,,,,,,,,,,,,,,,,,,,,,,,,,,,,,,,,,,,,,,,,,,2,0,2,0,1,,,,,,,,,,,,,,,,,,
,,,,,,,,,,,,6708079d21a0f618b83716b0,001,3,2025-04-15_11h50.53.567,avatar_quest_3AFC_legacy,2022.1.3,MacIntel,57.14285714,6708079d21a0f618b83716b0,67fe6e666cecbc9329ddf6d6,67fe7f3efb3fdb152403a598,,,,,,,,,,,,,,,,,,,,,,With Brainslug No Barriers No Money,0,images/assets/snowy_original.jpg,learning,10,images/assets/success.jpg,images/assets/gameover.jpg,,,,,,,,With Brainslug Difficult 2 With Money,With Brainslug Difficult 1 No Money,right,1.106,"[""With Brainslug Difficult 1 No Money"",""With Brainslug Difficult 2 No Money""]",0,0,0,5,1,,,,,,,,,,,,,,,,,,,,,,,,,,,,,,,,
,,,,,,,,,,,,6708079d21a0f618b83716b0,001,3,2025-04-15_11h50.53.567,avatar_quest_3AFC_legacy,2022.1.3,MacIntel,57.14285714,6708079d21a0f618b83716b0,67fe6e666cecbc9329ddf6d6,67fe7f3efb3fdb152403a598,,,,,,,,,,,,,,,,,,,,,,With Brainslug Difficult 1 No Money,6,images/assets/snowy_original.jpg,learning,20,images/assets/success.jpg,images/assets/gameover.jpg,,,,,,,,,,,,,0,1,1,1,1,,,,,,,,,,,,,,,,,,,,,,,,,,,,,,,,
,,,,,,,,,,,,6708079d21a0f618b83716b0,001,3,2025-04-15_11h50.53.567,avatar_quest_3AFC_legacy,2022.1.3,MacIntel,57.14285714,6708079d21a0f618b83716b0,67fe6e666cecbc9329ddf6d6,67fe7f3efb3fdb152403a598,,,,,,,,,,,,,,,,,,,,,,With Brainslug No Barriers With Money,0,images/assets/snowy_money.jpg,learning,10,images/assets/success_money.jpg,images/assets/gameover.jpg,,,,,,,,,,,,,0,2,2,4,1,,,,,,,,,,,,,,,,,,,,,,,,,,,,,,,,
,,,,,,,,,,,,6708079d21a0f618b83716b0,001,3,2025-04-15_11h50.53.567,avatar_quest_3AFC_legacy,2022.1.3,MacIntel,57.14285714,6708079d21a0f618b83716b0,67fe6e666cecbc9329ddf6d6,67fe7f3efb3fdb152403a598,,,,,,,,,,,,,,,,,,,,,,No Brainslug No Barriers No Money,0,images/assets/snowy_original.jpg,learning,10,images/assets/success.jpg,images/assets/gameover.jpg,,,,,,,,,,,,,0,3,3,10,1,,,,,,,,,,,,,,,,,,,,,,,,,,,,,,,,
,,,,,,,,,,,,6708079d21a0f618b83716b0,001,3,2025-04-15_11h50.53.567,avatar_quest_3AFC_legacy,2022.1.3,MacIntel,57.14285714,6708079d21a0f618b83716b0,67fe6e666cecbc9329ddf6d6,67fe7f3efb3fdb152403a598,,,,,,,,,,,,,,,,,,,,,,With Brainslug Difficult 2 No Money,12,images/assets/snowy_original.jpg,learning,20,images/assets/success.jpg,images/assets/gameover.jpg,,,,,,,,,,,,,0,4,4,3,1,,,,,,,,,,,,,,,,,,,,,,,,,,,,,,,,
,,,,,,,,,,,,6708079d21a0f618b83716b0,001,3,2025-04-15_11h50.53.567,avatar_quest_3AFC_legacy,2022.1.3,MacIntel,57.14285714,6708079d21a0f618b83716b0,67fe6e666cecbc9329ddf6d6,67fe7f3efb3fdb152403a598,,,,,,,,,,,,,,,,,,,,,,With Brainslug Difficult 1 With Money,6,images/assets/snowy_money.jpg,learning,20,images/assets/success_money.jpg,images/assets/gameover.jpg,,,,,,,,,,,,,0,5,5,0,1,,,,,,,,,,,,,,,,,,,,,,,,,,,,,,,,
,,,,,,,,,,,,6708079d21a0f618b83716b0,001,3,2025-04-15_11h50.53.567,avatar_quest_3AFC_legacy,2022.1.3,MacIntel,57.14285714,6708079d21a0f618b83716b0,67fe6e666cecbc9329ddf6d6,67fe7f3efb3fdb152403a598,,,,,,,,,,,,,,,,,,,,,,No Brainslug Difficult 2 No Money,12,images/assets/snowy_original.jpg,learning,20,images/assets/success.jpg,images/assets/gameover.jpg,,,,,,,,,,,,,0,6,6,8,1,,,,,,,,,,,,,,,,,,,,,,,,,,,,,,,,
,,,,,,,,,,,,6708079d21a0f618b83716b0,001,3,2025-04-15_11h50.53.567,avatar_quest_3AFC_legacy,2022.1.3,MacIntel,57.14285714,6708079d21a0f618b83716b0,67fe6e666cecbc9329ddf6d6,67fe7f3efb3fdb152403a598,,,,,,,,,,,,,,,,,,,,,,No Brainslug Difficult 1 No Money,6,images/assets/snowy_original.jpg,learning,20,images/assets/success.jpg,images/assets/gameover.jpg,,,,,,,,,,,,,0,7,7,6,1,,,,,,,,,,,,,,,,,,,,,,,,,,,,,,,,
,,,,,,,,,,,,6708079d21a0f618b83716b0,001,3,2025-04-15_11h50.53.567,avatar_quest_3AFC_legacy,2022.1.3,MacIntel,57.14285714,6708079d21a0f618b83716b0,67fe6e666cecbc9329ddf6d6,67fe7f3efb3fdb152403a598,,,,,,,,,,,,,,,,,,,,,,No Brainslug Difficult 2 With Money,12,images/assets/snowy_money.jpg,learning,20,images/assets/success_money.jpg,images/assets/gameover.jpg,,,,,,,,,,,,,0,8,8,7,1,,,,,,,,,,,,,,,,,,,,,,,,,,,,,,,,
,,,,,,,,,,,,6708079d21a0f618b83716b0,001,3,2025-04-15_11h50.53.567,avatar_quest_3AFC_legacy,2022.1.3,MacIntel,57.14285714,6708079d21a0f618b83716b0,67fe6e666cecbc9329ddf6d6,67fe7f3efb3fdb152403a598,,,,,,,,,,,,,,,,,,,,,,No Brainslug No Barriers With Money,0,images/assets/snowy_money.jpg,learning,10,images/assets/success_money.jpg,images/assets/gameover.jpg,,,,,,,,,,,,,0,9,9,9,1,,,,,,,,,,,,,,,,,,,,,,,,,,,,,,,,
,,,,,,,,,,,,6708079d21a0f618b83716b0,001,3,2025-04-15_11h50.53.567,avatar_quest_3AFC_legacy,2022.1.3,MacIntel,57.14285714,6708079d21a0f618b83716b0,67fe6e666cecbc9329ddf6d6,67fe7f3efb3fdb152403a598,"[""right"",""left"",""left"",""left"",""left"",""left"",""right"",""right"",""right"",""left"",""left"",""left"",""left"",""left"",""right"",""right"",""left"",""left"",""left"",""right"",""right"",""right"",""left"",""left"",""right"",""right"",""right"",""right"",""right"",""left"",""left"",""left"",""right"",""right"",""left"",""right""]","[0.3129999999999882,1.3489999999999895,1.657999999999987,1.9420000000000073,2.296999999999997,2.7789999999999964,3.3659999999999854,3.6169999999999902,3.8079999999999927,4.100999999999999,4.311000000000007,4.665999999999997,5.0989999999999895,5.460999999999984,5.7169999999999845,5.930000000000007,6.134999999999991,6.331999999999994,6.483000000000004,6.656000000000006,6.8489999999999895,7.0730000000000075,7.174000000000007,7.290999999999997,7.478000000000009,7.707999999999998,7.842999999999989,8.10899999999998,8.209000000000003,8.358000000000004,8.527999999999992,8.664999999999992,8.823999999999984,9.030000000000001,9.240999999999985,9.555999999999983]",,calibration,With Brainslug Difficult 2 With Money,7,10.587,9.643,22,8,0,TRUE,na,na,na,na,,,,,,,,,,,,,,,,,,,,,,,,,,,,,,,,,,0,0,0,0,1,,,,,,,,,,,,,,,,,,,,,,,
,,,,,,,,,,,,6708079d21a0f618b83716b0,001,3,2025-04-15_11h50.53.567,avatar_quest_3AFC_legacy,2022.1.3,MacIntel,57.14285714,6708079d21a0f618b83716b0,67fe6e666cecbc9329ddf6d6,67fe7f3efb3fdb152403a598,,,,,,,,,,,,,,,,,,,,,,With Brainslug Difficult 2 With Money,12,images/assets/snowy_money.jpg,learning,20,images/assets/success_money.jpg,images/assets/gameover.jpg,,,,,,,,,,,,,0,10,10,2,1,,,,,,,,,,,,,,,,,,,,,,,,,,,,,,,,
,,,,,,,,,,,,6708079d21a0f618b83716b0,001,3,2025-04-15_11h50.53.567,avatar_quest_3AFC_legacy,2022.1.3,MacIntel,57.14285714,6708079d21a0f618b83716b0,67fe6e666cecbc9329ddf6d6,67fe7f3efb3fdb152403a598,,,,,,,,,,,,,,,,,,,,,,,,,,,,,,,,,,,,,,,,,,,,,,,,,,,,,,,3,0,3,0,1,,,,,,,,,,,,,,,,,,
,,,,,,,,,,,,6708079d21a0f618b83716b0,001,3,2025-04-15_11h50.53.567,avatar_quest_3AFC_legacy,2022.1.3,MacIntel,57.14285714,6708079d21a0f618b83716b0,67fe6e666cecbc9329ddf6d6,67fe7f3efb3fdb152403a598,,,,,,,,,,,,,,,,,,,,,,With Brainslug Difficult 1 With Money,6,images/assets/snowy_money.jpg,learning,20,images/assets/success_money.jpg,images/assets/gameover.jpg,,,,,,,,With Brainslug Difficult 2 With Money,With Brainslug Difficult 1 No Money,right,0.825,"[""With Brainslug Difficult 1 No Money"",""With Brainslug Difficult 2 No Money""]",0,0,0,0,1,,,,,,,,,,,,,,,,,,,,,,,,,,,,,,,,
,,,,,,,,,,,,6708079d21a0f618b83716b0,001,3,2025-04-15_11h50.53.567,avatar_quest_3AFC_legacy,2022.1.3,MacIntel,57.14285714,6708079d21a0f618b83716b0,67fe6e666cecbc9329ddf6d6,67fe7f3efb3fdb152403a598,,,,,,,,,,,,,,,,,,,,,,With Brainslug No Barriers No Money,0,images/assets/snowy_original.jpg,learning,10,images/assets/success.jpg,images/assets/gameover.jpg,,,,,,,,,,,,,0,1,1,5,1,,,,,,,,,,,,,,,,,,,,,,,,,,,,,,,,
,,,,,,,,,,,,6708079d21a0f618b83716b0,001,3,2025-04-15_11h50.53.567,avatar_quest_3AFC_legacy,2022.1.3,MacIntel,57.14285714,6708079d21a0f618b83716b0,67fe6e666cecbc9329ddf6d6,67fe7f3efb3fdb152403a598,,,,,,,,,,,,,,,,,,,,,,With Brainslug No Barriers With Money,0,images/assets/snowy_money.jpg,learning,10,images/assets/success_money.jpg,images/assets/gameover.jpg,,,,,,,,,,,,,0,2,2,4,1,,,,,,,,,,,,,,,,,,,,,,,,,,,,,,,,
,,,,,,,,,,,,6708079d21a0f618b83716b0,001,3,2025-04-15_11h50.53.567,avatar_quest_3AFC_legacy,2022.1.3,MacIntel,57.14285714,6708079d21a0f618b83716b0,67fe6e666cecbc9329ddf6d6,67fe7f3efb3fdb152403a598,,,,,,,,,,,,,,,,,,,,,,No Brainslug No Barriers No Money,0,images/assets/snowy_original.jpg,learning,10,images/assets/success.jpg,images/assets/gameover.jpg,,,,,,,,,,,,,0,3,3,10,1,,,,,,,,,,,,,,,,,,,,,,,,,,,,,,,,
,,,,,,,,,,,,6708079d21a0f618b83716b0,001,3,2025-04-15_11h50.53.567,avatar_quest_3AFC_legacy,2022.1.3,MacIntel,57.14285714,6708079d21a0f618b83716b0,67fe6e666cecbc9329ddf6d6,67fe7f3efb3fdb152403a598,"[""right"",""right"",""left"",""left"",""left"",""left"",""left"",""left"",""right"",""right"",""right"",""right"",""right"",""down"",""right"",""right"",""left"",""right"",""right"",""left"",""left"",""left"",""right"",""left"",""left"",""left"",""left"",""right"",""left"",""right"",""right"",""right"",""left"",""left"",""right"",""right"",""right"",""right"",""left"",""left"",""right"",""right"",""left"",""left"",""left"",""right"",""left"",""right"",""right"",""right"",""right"",""right"",""right"",""right"",""left"",""left"",""left"",""left"",""left"",""left"",""right""]","[0.3170000000000073,0.47800000000000864,0.646000000000015,0.8499999999999943,1.0010000000000048,1.1520000000000152,1.271000000000015,1.4269999999999925,1.5,1.6870000000000118,1.9540000000000077,2.201999999999998,2.4180000000000064,2.515999999999991,2.742999999999995,3.0130000000000052,3.132000000000005,3.3160000000000025,3.509999999999991,3.680000000000007,3.9110000000000014,4.027999999999992,4.1769999999999925,4.4809999999999945,4.777999999999992,4.931000000000012,5.0660000000000025,5.281000000000006,5.281000000000006,5.393000000000001,5.661000000000001,5.7690000000000055,5.885999999999996,6.085000000000008,6.247000000000014,6.415999999999997,6.549000000000007,6.763000000000005,6.854000000000013,7.027000000000015,7.199000000000012,7.334000000000003,7.546999999999997,7.818000000000012,7.968999999999994,8.076999999999998,8.152000000000015,8.414999999999992,8.549000000000007,8.686000000000007,8.801999999999992,8.927999999999997,9.061000000000007,9.253000000000014,9.531000000000006,9.73599999999999,9.87700000000001,10.031000000000006,10.165999999999997,10.417000000000002,10.516999999999996]",,calibration,With Brainslug Difficult 2 With Money,8,10.587,10.588,29,7,0,FALSE,na,na,na,na,,,,,,,,,,,,,,,,,,,,,,,,,,,,,,,,,,0,0,0,0,1,,,,,,,,,,,,,,,,,,,,,,,
,,,,,,,,,,,,6708079d21a0f618b83716b0,001,3,2025-04-15_11h50.53.567,avatar_quest_3AFC_legacy,2022.1.3,MacIntel,57.14285714,6708079d21a0f618b83716b0,67fe6e666cecbc9329ddf6d6,67fe7f3efb3fdb152403a598,,,,,,,,,,,,,,,,,,,,,,With Brainslug Difficult 2 With Money,12,images/assets/snowy_money.jpg,learning,20,images/assets/success_money.jpg,images/assets/gameover.jpg,,,,,,,,,,,,,0,4,4,2,1,,,,,,,,,,,,,,,,,,,,,,,,,,,,,,,,
,,,,,,,,,,,,6708079d21a0f618b83716b0,001,3,2025-04-15_11h50.53.567,avatar_quest_3AFC_legacy,2022.1.3,MacIntel,57.14285714,6708079d21a0f618b83716b0,67fe6e666cecbc9329ddf6d6,67fe7f3efb3fdb152403a598,,,,,,,,,,,,,,,,,,,,,,No Brainslug Difficult 1 No Money,6,images/assets/snowy_original.jpg,learning,20,images/assets/success.jpg,images/assets/gameover.jpg,,,,,,,,,,,,,0,5,5,6,1,,,,,,,,,,,,,,,,,,,,,,,,,,,,,,,,
,,,,,,,,,,,,6708079d21a0f618b83716b0,001,3,2025-04-15_11h50.53.567,avatar_quest_3AFC_legacy,2022.1.3,MacIntel,57.14285714,6708079d21a0f618b83716b0,67fe6e666cecbc9329ddf6d6,67fe7f3efb3fdb152403a598,,,,,,,,,,,,,,,,,,,,,,With Brainslug Difficult 1 No Money,6,images/assets/snowy_original.jpg,learning,20,images/assets/success.jpg,images/assets/gameover.jpg,,,,,,,,,,,,,0,6,6,1,1,,,,,,,,,,,,,,,,,,,,,,,,,,,,,,,,
,,,,,,,,,,,,6708079d21a0f618b83716b0,001,3,2025-04-15_11h50.53.567,avatar_quest_3AFC_legacy,2022.1.3,MacIntel,57.14285714,6708079d21a0f618b83716b0,67fe6e666cecbc9329ddf6d6,67fe7f3efb3fdb152403a598,,,,,,,,,,,,,,,,,,,,,,No Brainslug No Barriers With Money,0,images/assets/snowy_money.jpg,learning,10,images/assets/success_money.jpg,images/assets/gameover.jpg,,,,,,,,,,,,,0,7,7,9,1,,,,,,,,,,,,,,,,,,,,,,,,,,,,,,,,
,,,,,,,,,,,,6708079d21a0f618b83716b0,001,3,2025-04-15_11h50.53.567,avatar_quest_3AFC_legacy,2022.1.3,MacIntel,57.14285714,6708079d21a0f618b83716b0,67fe6e666cecbc9329ddf6d6,67fe7f3efb3fdb152403a598,,,,,,,,,,,,,,,,,,,,,,No Brainslug Difficult 2 With Money,12,images/assets/snowy_money.jpg,learning,20,images/assets/success_money.jpg,images/assets/gameover.jpg,,,,,,,,,,,,,0,8,8,7,1,,,,,,,,,,,,,,,,,,,,,,,,,,,,,,,,
,,,,,,,,,,,,6708079d21a0f618b83716b0,001,3,2025-04-15_11h50.53.567,avatar_quest_3AFC_legacy,2022.1.3,MacIntel,57.14285714,6708079d21a0f618b83716b0,67fe6e666cecbc9329ddf6d6,67fe7f3efb3fdb152403a598,,,,,,,,,,,,,,,,,,,,,,With Brainslug Difficult 2 No Money,12,images/assets/snowy_original.jpg,learning,20,images/assets/success.jpg,images/assets/gameover.jpg,,,,,,,,,,,,,0,9,9,3,1,,,,,,,,,,,,,,,,,,,,,,,,,,,,,,,,
,,,,,,,,,,,,6708079d21a0f618b83716b0,001,3,2025-04-15_11h50.53.567,avatar_quest_3AFC_legacy,2022.1.3,MacIntel,57.14285714,6708079d21a0f618b83716b0,67fe6e666cecbc9329ddf6d6,67fe7f3efb3fdb152403a598,,,,,,,,,,,,,,,,,,,,,,No Brainslug Difficult 2 No Money,12,images/assets/snowy_original.jpg,learning,20,images/assets/success.jpg,images/assets/gameover.jpg,,,,,,,,,,,,,0,10,10,8,1,,,,,,,,,,,,,,,,,,,,,,,,,,,,,,,,
,,,,,,,,,,,,6708079d21a0f618b83716b0,001,3,2025-04-15_11h50.53.567,avatar_quest_3AFC_legacy,2022.1.3,MacIntel,57.14285714,6708079d21a0f618b83716b0,67fe6e666cecbc9329ddf6d6,67fe7f3efb3fdb152403a598,,,,,,,,,,,,,,,,,,,,,,,,,,,,,,,,,,,,,,,,,,,,,,,,,,,,,,,4,0,4,0,1,,,,,,,,,,,,,,,,,,
,,,,,,,,,,,,6708079d21a0f618b83716b0,001,3,2025-04-15_11h50.53.567,avatar_quest_3AFC_legacy,2022.1.3,MacIntel,57.14285714,6708079d21a0f618b83716b0,67fe6e666cecbc9329ddf6d6,67fe7f3efb3fdb152403a598,,,,,,,,,,,,,,,,,,,,,,With Brainslug Difficult 2 With Money,12,images/assets/snowy_money.jpg,learning,20,images/assets/success_money.jpg,images/assets/gameover.jpg,,,,,,,,With Brainslug Difficult 2 No Money,With Brainslug Difficult 1 No Money,down,0.691,"[""With Brainslug Difficult 1 No Money"",""With Brainslug Difficult 2 With Money""]",0,0,0,2,1,,,,,,,,,,,,,,,,,,,,,,,,,,,,,,,,
,,,,,,,,,,,,6708079d21a0f618b83716b0,001,3,2025-04-15_11h50.53.567,avatar_quest_3AFC_legacy,2022.1.3,MacIntel,57.14285714,6708079d21a0f618b83716b0,67fe6e666cecbc9329ddf6d6,67fe7f3efb3fdb152403a598,,,,,,,,,,,,,,,,,,,,,,No Brainslug No Barriers With Money,0,images/assets/snowy_money.jpg,learning,10,images/assets/success_money.jpg,images/assets/gameover.jpg,,,,,,,,,,,,,0,1,1,9,1,,,,,,,,,,,,,,,,,,,,,,,,,,,,,,,,
,,,,,,,,,,,,6708079d21a0f618b83716b0,001,3,2025-04-15_11h50.53.567,avatar_quest_3AFC_legacy,2022.1.3,MacIntel,57.14285714,6708079d21a0f618b83716b0,67fe6e666cecbc9329ddf6d6,67fe7f3efb3fdb152403a598,,,,,,,,,,,,,,,,,,,,,,No Brainslug Difficult 1 No Money,6,images/assets/snowy_original.jpg,learning,20,images/assets/success.jpg,images/assets/gameover.jpg,,,,,,,,,,,,,0,2,2,6,1,,,,,,,,,,,,,,,,,,,,,,,,,,,,,,,,
,,,,,,,,,,,,6708079d21a0f618b83716b0,001,3,2025-04-15_11h50.53.567,avatar_quest_3AFC_legacy,2022.1.3,MacIntel,57.14285714,6708079d21a0f618b83716b0,67fe6e666cecbc9329ddf6d6,67fe7f3efb3fdb152403a598,,,,,,,,,,,,,,,,,,,,,,With Brainslug No Barriers No Money,0,images/assets/snowy_original.jpg,learning,10,images/assets/success.jpg,images/assets/gameover.jpg,,,,,,,,,,,,,0,3,3,5,1,,,,,,,,,,,,,,,,,,,,,,,,,,,,,,,,
,,,,,,,,,,,,6708079d21a0f618b83716b0,001,3,2025-04-15_11h50.53.567,avatar_quest_3AFC_legacy,2022.1.3,MacIntel,57.14285714,6708079d21a0f618b83716b0,67fe6e666cecbc9329ddf6d6,67fe7f3efb3fdb152403a598,,,,,,,,,,,,,,,,,,,,,,With Brainslug Difficult 1 With Money,6,images/assets/snowy_money.jpg,learning,20,images/assets/success_money.jpg,images/assets/gameover.jpg,,,,,,,,,,,,,0,4,4,0,1,,,,,,,,,,,,,,,,,,,,,,,,,,,,,,,,
,,,,,,,,,,,,6708079d21a0f618b83716b0,001,3,2025-04-15_11h50.53.567,avatar_quest_3AFC_legacy,2022.1.3,MacIntel,57.14285714,6708079d21a0f618b83716b0,67fe6e666cecbc9329ddf6d6,67fe7f3efb3fdb152403a598,"[""left"",""left"",""left"",""left"",""left"",""right"",""right"",""left"",""right"",""right"",""left"",""left"",""left"",""left"",""right"",""right"",""right"",""left"",""right"",""right"",""right"",""left"",""left"",""left"",""left"",""right"",""right"",""right"",""left"",""left"",""right"",""right"",""right"",""right"",""right"",""left"",""left""]","[0.1529999999999916,0.34499999999999886,0.4959999999999809,0.6639999999999873,0.8400000000000034,1.1970000000000027,1.6809999999999832,2.063999999999993,2.2779999999999916,2.5279999999999916,2.7039999999999793,2.8899999999999864,3.0249999999999773,3.1430000000000007,3.3289999999999793,3.578000000000003,3.8289999999999793,3.9099999999999966,4.106999999999999,4.387999999999977,4.5919999999999845,4.72199999999998,4.875,5.007999999999981,5.1370000000000005,5.212999999999994,5.369,5.486999999999995,5.675999999999988,5.861999999999995,6.021999999999991,6.174999999999983,6.307999999999993,6.530000000000001,6.7409999999999854,6.913999999999987,7.145999999999987]",,calibration,With Brainslug Difficult 2 No Money,9,10.587,7.312,23,7,0,TRUE,na,na,na,na,,,,,,,,,,,,,,,,,,,,,,,,,,,,,,,,,,0,0,0,0,1,,,,,,,,,,,,,,,,,,,,,,,
,,,,,,,,,,,,6708079d21a0f618b83716b0,001,3,2025-04-15_11h50.53.567,avatar_quest_3AFC_legacy,2022.1.3,MacIntel,57.14285714,6708079d21a0f618b83716b0,67fe6e666cecbc9329ddf6d6,67fe7f3efb3fdb152403a598,,,,,,,,,,,,,,,,,,,,,,With Brainslug Difficult 2 No Money,12,images/assets/snowy_original.jpg,learning,20,images/assets/success.jpg,images/assets/gameover.jpg,,,,,,,,,,,,,0,5,5,3,1,,,,,,,,,,,,,,,,,,,,,,,,,,,,,,,,
,,,,,,,,,,,,6708079d21a0f618b83716b0,001,3,2025-04-15_11h50.53.567,avatar_quest_3AFC_legacy,2022.1.3,MacIntel,57.14285714,6708079d21a0f618b83716b0,67fe6e666cecbc9329ddf6d6,67fe7f3efb3fdb152403a598,,,,,,,,,,,,,,,,,,,,,,With Brainslug No Barriers With Money,0,images/assets/snowy_money.jpg,learning,10,images/assets/success_money.jpg,images/assets/gameover.jpg,,,,,,,,,,,,,0,6,6,4,1,,,,,,,,,,,,,,,,,,,,,,,,,,,,,,,,
,,,,,,,,,,,,6708079d21a0f618b83716b0,001,3,2025-04-15_11h50.53.567,avatar_quest_3AFC_legacy,2022.1.3,MacIntel,57.14285714,6708079d21a0f618b83716b0,67fe6e666cecbc9329ddf6d6,67fe7f3efb3fdb152403a598,,,,,,,,,,,,,,,,,,,,,,No Brainslug No Barriers No Money,0,images/assets/snowy_original.jpg,learning,10,images/assets/success.jpg,images/assets/gameover.jpg,,,,,,,,,,,,,0,7,7,10,1,,,,,,,,,,,,,,,,,,,,,,,,,,,,,,,,
,,,,,,,,,,,,6708079d21a0f618b83716b0,001,3,2025-04-15_11h50.53.567,avatar_quest_3AFC_legacy,2022.1.3,MacIntel,57.14285714,6708079d21a0f618b83716b0,67fe6e666cecbc9329ddf6d6,67fe7f3efb3fdb152403a598,,,,,,,,,,,,,,,,,,,,,,With Brainslug Difficult 1 No Money,6,images/assets/snowy_original.jpg,learning,20,images/assets/success.jpg,images/assets/gameover.jpg,,,,,,,,,,,,,0,8,8,1,1,,,,,,,,,,,,,,,,,,,,,,,,,,,,,,,,
,,,,,,,,,,,,6708079d21a0f618b83716b0,001,3,2025-04-15_11h50.53.567,avatar_quest_3AFC_legacy,2022.1.3,MacIntel,57.14285714,6708079d21a0f618b83716b0,67fe6e666cecbc9329ddf6d6,67fe7f3efb3fdb152403a598,,,,,,,,,,,,,,,,,,,,,,No Brainslug Difficult 2 No Money,12,images/assets/snowy_original.jpg,learning,20,images/assets/success.jpg,images/assets/gameover.jpg,,,,,,,,,,,,,0,9,9,8,1,,,,,,,,,,,,,,,,,,,,,,,,,,,,,,,,
,,,,,,,,,,,,6708079d21a0f618b83716b0,001,3,2025-04-15_11h50.53.567,avatar_quest_3AFC_legacy,2022.1.3,MacIntel,57.14285714,6708079d21a0f618b83716b0,67fe6e666cecbc9329ddf6d6,67fe7f3efb3fdb152403a598,,,,,,,,,,,,,,,,,,,,,,No Brainslug Difficult 2 With Money,12,images/assets/snowy_money.jpg,learning,20,images/assets/success_money.jpg,images/assets/gameover.jpg,,,,,,,,,,,,,0,10,10,7,1,,,,,,,,,,,,,,,,,,,,,,,,,,,,,,,,
,,,,,,,,,,,,6708079d21a0f618b83716b0,001,3,2025-04-15_11h50.53.567,avatar_quest_3AFC_legacy,2022.1.3,MacIntel,57.14285714,6708079d21a0f618b83716b0,67fe6e666cecbc9329ddf6d6,67fe7f3efb3fdb152403a598,,,,,,,,,,,,,,,,,,,,,,,,,,,,,,,,,,,,,,,,,,,,,,,,,,,,,,,5,0,5,0,1,,,,,,,,,,,,,,,,,,
,,,,,,,,,,,,6708079d21a0f618b83716b0,001,3,2025-04-15_11h50.53.567,avatar_quest_3AFC_legacy,2022.1.3,MacIntel,57.14285714,6708079d21a0f618b83716b0,67fe6e666cecbc9329ddf6d6,67fe7f3efb3fdb152403a598,,,,,,,,,,,,,,,,,,,,,,With Brainslug Difficult 2 With Money,12,images/assets/snowy_money.jpg,learning,20,images/assets/success_money.jpg,images/assets/gameover.jpg,,,,,,,,With Brainslug Difficult 1 No Money,With Brainslug Difficult 1 No Money,left,0.01,"[""With Brainslug Difficult 2 No Money"",""With Brainslug Difficult 2 With Money""]",0,0,0,2,1,,,,,,,,,,,,,,,,,,,,,,,,,,,,,,,,
,,,,,,,,,,,,6708079d21a0f618b83716b0,001,3,2025-04-15_11h50.53.567,avatar_quest_3AFC_legacy,2022.1.3,MacIntel,57.14285714,6708079d21a0f618b83716b0,67fe6e666cecbc9329ddf6d6,67fe7f3efb3fdb152403a598,,,,,,,,,,,,,,,,,,,,,,With Brainslug Difficult 1 With Money,6,images/assets/snowy_money.jpg,learning,20,images/assets/success_money.jpg,images/assets/gameover.jpg,,,,,,,,,,,,,0,1,1,0,1,,,,,,,,,,,,,,,,,,,,,,,,,,,,,,,,
,,,,,,,,,,,,6708079d21a0f618b83716b0,001,3,2025-04-15_11h50.53.567,avatar_quest_3AFC_legacy,2022.1.3,MacIntel,57.14285714,6708079d21a0f618b83716b0,67fe6e666cecbc9329ddf6d6,67fe7f3efb3fdb152403a598,,,,,,,,,,,,,,,,,,,,,,No Brainslug No Barriers No Money,0,images/assets/snowy_original.jpg,learning,10,images/assets/success.jpg,images/assets/gameover.jpg,,,,,,,,,,,,,0,2,2,10,1,,,,,,,,,,,,,,,,,,,,,,,,,,,,,,,,
,,,,,,,,,,,,6708079d21a0f618b83716b0,001,3,2025-04-15_11h50.53.567,avatar_quest_3AFC_legacy,2022.1.3,MacIntel,57.14285714,6708079d21a0f618b83716b0,67fe6e666cecbc9329ddf6d6,67fe7f3efb3fdb152403a598,"[""right"",""right"",""left"",""left"",""left"",""left"",""left"",""left"",""right"",""right"",""right"",""right"",""right"",""right"",""right"",""right"",""right"",""right"",""right"",""left"",""left"",""left"",""left"",""right"",""right"",""right"",""right"",""right"",""right"",""right"",""right"",""left"",""left"",""right"",""left"",""right""]","[0.22100000000000364,0.3850000000000193,0.4790000000000134,0.6620000000000061,0.7960000000000207,0.9320000000000164,1.0660000000000025,1.1810000000000116,1.1990000000000123,1.3870000000000005,1.5220000000000198,1.6520000000000152,1.7680000000000007,1.8850000000000193,2.037000000000006,2.195999999999998,2.415999999999997,2.568000000000012,2.7549999999999955,2.915999999999997,3.078000000000003,3.216000000000008,3.352000000000004,3.498000000000019,3.64700000000002,3.7830000000000155,4.152000000000015,4.311000000000007,4.562000000000012,4.812000000000012,5.044000000000011,5.350999999999999,5.584000000000003,5.7450000000000045,5.953000000000003,6.2549999999999955]",,calibration,With Brainslug Difficult 1 No Money,10,10.587,6.41,18,2,0,TRUE,na,na,na,na,,,,,,,,,,,,,,,,,,,,,,,,,,,,,,,,,,0,0,0,0,1,,,,,,,,,,,,,,,,,,,,,,,
,,,,,,,,,,,,6708079d21a0f618b83716b0,001,3,2025-04-15_11h50.53.567,avatar_quest_3AFC_legacy,2022.1.3,MacIntel,57.14285714,6708079d21a0f618b83716b0,67fe6e666cecbc9329ddf6d6,67fe7f3efb3fdb152403a598,,,,,,,,,,,,,,,,,,,,,,With Brainslug Difficult 1 No Money,6,images/assets/snowy_original.jpg,learning,20,images/assets/success.jpg,images/assets/gameover.jpg,,,,,,,,,,,,,0,3,3,1,1,,,,,,,,,,,,,,,,,,,,,,,,,,,,,,,,
,,,,,,,,,,,,6708079d21a0f618b83716b0,001,3,2025-04-15_11h50.53.567,avatar_quest_3AFC_legacy,2022.1.3,MacIntel,57.14285714,6708079d21a0f618b83716b0,67fe6e666cecbc9329ddf6d6,67fe7f3efb3fdb152403a598,,,,,,,,,,,,,,,,,,,,,,With Brainslug No Barriers No Money,0,images/assets/snowy_original.jpg,learning,10,images/assets/success.jpg,images/assets/gameover.jpg,,,,,,,,,,,,,0,4,4,5,1,,,,,,,,,,,,,,,,,,,,,,,,,,,,,,,,
,,,,,,,,,,,,6708079d21a0f618b83716b0,001,3,2025-04-15_11h50.53.567,avatar_quest_3AFC_legacy,2022.1.3,MacIntel,57.14285714,6708079d21a0f618b83716b0,67fe6e666cecbc9329ddf6d6,67fe7f3efb3fdb152403a598,,,,,,,,,,,,,,,,,,,,,,No Brainslug No Barriers With Money,0,images/assets/snowy_money.jpg,learning,10,images/assets/success_money.jpg,images/assets/gameover.jpg,,,,,,,,,,,,,0,5,5,9,1,,,,,,,,,,,,,,,,,,,,,,,,,,,,,,,,
,,,,,,,,,,,,6708079d21a0f618b83716b0,001,3,2025-04-15_11h50.53.567,avatar_quest_3AFC_legacy,2022.1.3,MacIntel,57.14285714,6708079d21a0f618b83716b0,67fe6e666cecbc9329ddf6d6,67fe7f3efb3fdb152403a598,,,,,,,,,,,,,,,,,,,,,,With Brainslug Difficult 2 No Money,12,images/assets/snowy_original.jpg,learning,20,images/assets/success.jpg,images/assets/gameover.jpg,,,,,,,,,,,,,0,6,6,3,1,,,,,,,,,,,,,,,,,,,,,,,,,,,,,,,,
,,,,,,,,,,,,6708079d21a0f618b83716b0,001,3,2025-04-15_11h50.53.567,avatar_quest_3AFC_legacy,2022.1.3,MacIntel,57.14285714,6708079d21a0f618b83716b0,67fe6e666cecbc9329ddf6d6,67fe7f3efb3fdb152403a598,,,,,,,,,,,,,,,,,,,,,,No Brainslug Difficult 2 No Money,12,images/assets/snowy_original.jpg,learning,20,images/assets/success.jpg,images/assets/gameover.jpg,,,,,,,,,,,,,0,7,7,8,1,,,,,,,,,,,,,,,,,,,,,,,,,,,,,,,,
,,,,,,,,,,,,6708079d21a0f618b83716b0,001,3,2025-04-15_11h50.53.567,avatar_quest_3AFC_legacy,2022.1.3,MacIntel,57.14285714,6708079d21a0f618b83716b0,67fe6e666cecbc9329ddf6d6,67fe7f3efb3fdb152403a598,,,,,,,,,,,,,,,,,,,,,,No Brainslug Difficult 1 No Money,6,images/assets/snowy_original.jpg,learning,20,images/assets/success.jpg,images/assets/gameover.jpg,,,,,,,,,,,,,0,8,8,6,1,,,,,,,,,,,,,,,,,,,,,,,,,,,,,,,,
,,,,,,,,,,,,6708079d21a0f618b83716b0,001,3,2025-04-15_11h50.53.567,avatar_quest_3AFC_legacy,2022.1.3,MacIntel,57.14285714,6708079d21a0f618b83716b0,67fe6e666cecbc9329ddf6d6,67fe7f3efb3fdb152403a598,,,,,,,,,,,,,,,,,,,,,,No Brainslug Difficult 2 With Money,12,images/assets/snowy_money.jpg,learning,20,images/assets/success_money.jpg,images/assets/gameover.jpg,,,,,,,,,,,,,0,9,9,7,1,,,,,,,,,,,,,,,,,,,,,,,,,,,,,,,,
,,,,,,,,,,,,6708079d21a0f618b83716b0,001,3,2025-04-15_11h50.53.567,avatar_quest_3AFC_legacy,2022.1.3,MacIntel,57.14285714,6708079d21a0f618b83716b0,67fe6e666cecbc9329ddf6d6,67fe7f3efb3fdb152403a598,,,,,,,,,,,,,,,,,,,,,,With Brainslug No Barriers With Money,0,images/assets/snowy_money.jpg,learning,10,images/assets/success_money.jpg,images/assets/gameover.jpg,,,,,,,,,,,,,0,10,10,4,1,,,,,,,,,,,,,,,,,,,,,,,,,,,,,,,,
,,,,,,,,,,,,6708079d21a0f618b83716b0,001,3,2025-04-15_11h50.53.567,avatar_quest_3AFC_legacy,2022.1.3,MacIntel,57.14285714,6708079d21a0f618b83716b0,67fe6e666cecbc9329ddf6d6,67fe7f3efb3fdb152403a598,,,,,,,,,,,,,,,,,,,,,,,,,,,,,,,,,,,,,,,,,,,,,,,,,,,,,,,6,0,6,0,1,,,,,,,,,,,,,,,,,,
,,,,,,,,,,,,6708079d21a0f618b83716b0,001,3,2025-04-15_11h50.53.567,avatar_quest_3AFC_legacy,2022.1.3,MacIntel,57.14285714,6708079d21a0f618b83716b0,67fe6e666cecbc9329ddf6d6,67fe7f3efb3fdb152403a598,,,,,,,,,,,,,,,,,,,,,,No Brainslug No Barriers With Money,0,images/assets/snowy_money.jpg,learning,10,images/assets/success_money.jpg,images/assets/gameover.jpg,,,,,,,,With Brainslug Difficult 2 With Money,With Brainslug Difficult 1 No Money,right,0.722,"[""With Brainslug Difficult 1 No Money"",""With Brainslug Difficult 2 No Money""]",0,0,0,9,1,,,,,,,,,,,,,,,,,,,,,,,,,,,,,,,,
,,,,,,,,,,,,6708079d21a0f618b83716b0,001,3,2025-04-15_11h50.53.567,avatar_quest_3AFC_legacy,2022.1.3,MacIntel,57.14285714,6708079d21a0f618b83716b0,67fe6e666cecbc9329ddf6d6,67fe7f3efb3fdb152403a598,,,,,,,,,,,,,,,,,,,,,,No Brainslug No Barriers No Money,0,images/assets/snowy_original.jpg,learning,10,images/assets/success.jpg,images/assets/gameover.jpg,,,,,,,,,,,,,0,1,1,10,1,,,,,,,,,,,,,,,,,,,,,,,,,,,,,,,,
,,,,,,,,,,,,6708079d21a0f618b83716b0,001,3,2025-04-15_11h50.53.567,avatar_quest_3AFC_legacy,2022.1.3,MacIntel,57.14285714,6708079d21a0f618b83716b0,67fe6e666cecbc9329ddf6d6,67fe7f3efb3fdb152403a598,,,,,,,,,,,,,,,,,,,,,,With Brainslug Difficult 1 No Money,6,images/assets/snowy_original.jpg,learning,20,images/assets/success.jpg,images/assets/gameover.jpg,,,,,,,,,,,,,0,2,2,1,1,,,,,,,,,,,,,,,,,,,,,,,,,,,,,,,,
,,,,,,,,,,,,6708079d21a0f618b83716b0,001,3,2025-04-15_11h50.53.567,avatar_quest_3AFC_legacy,2022.1.3,MacIntel,57.14285714,6708079d21a0f618b83716b0,67fe6e666cecbc9329ddf6d6,67fe7f3efb3fdb152403a598,,,,,,,,,,,,,,,,,,,,,,With Brainslug Difficult 2 No Money,12,images/assets/snowy_original.jpg,learning,20,images/assets/success.jpg,images/assets/gameover.jpg,,,,,,,,,,,,,0,3,3,3,1,,,,,,,,,,,,,,,,,,,,,,,,,,,,,,,,
,,,,,,,,,,,,6708079d21a0f618b83716b0,001,3,2025-04-15_11h50.53.567,avatar_quest_3AFC_legacy,2022.1.3,MacIntel,57.14285714,6708079d21a0f618b83716b0,67fe6e666cecbc9329ddf6d6,67fe7f3efb3fdb152403a598,"[""left"",""left"",""left"",""right"",""right"",""right"",""right"",""left"",""right"",""left"",""left"",""left"",""right"",""right"",""right"",""left"",""left"",""right"",""right"",""right"",""left"",""left"",""left"",""right"",""right"",""left"",""left"",""left"",""left"",""right"",""right"",""right"",""left"",""left"",""left"",""right"",""right"",""right"",""right"",""right"",""right"",""right"",""right"",""right""]","[0.3569999999999993,0.5040000000000191,0.6899999999999977,1.3269999999999982,1.6370000000000005,1.8070000000000164,1.9699999999999989,2.217000000000013,2.576000000000022,2.8840000000000146,3.0500000000000114,3.2210000000000036,3.328000000000003,3.5010000000000048,3.6340000000000146,3.8840000000000146,4.074000000000012,4.171000000000021,4.439000000000021,4.652000000000015,4.818000000000012,5.105000000000018,5.218000000000018,5.668000000000006,5.838999999999999,5.957999999999998,6.1440000000000055,6.285000000000025,6.4010000000000105,6.608000000000004,6.767000000000024,6.902000000000015,6.975999999999999,7.169000000000011,7.320000000000022,7.50800000000001,7.668000000000006,7.794000000000011,7.919000000000011,8.02600000000001,8.160000000000025,8.301000000000016,8.393,8.51000000000002]",,calibration,With Brainslug Difficult 2 With Money,11,10.587,8.845,20,8,0,TRUE,na,na,na,na,,,,,,,,,,,,,,,,,,,,,,,,,,,,,,,,,,0,0,0,0,1,,,,,,,,,,,,,,,,,,,,,,,
,,,,,,,,,,,,6708079d21a0f618b83716b0,001,3,2025-04-15_11h50.53.567,avatar_quest_3AFC_legacy,2022.1.3,MacIntel,57.14285714,6708079d21a0f618b83716b0,67fe6e666cecbc9329ddf6d6,67fe7f3efb3fdb152403a598,,,,,,,,,,,,,,,,,,,,,,With Brainslug Difficult 2 With Money,12,images/assets/snowy_money.jpg,learning,20,images/assets/success_money.jpg,images/assets/gameover.jpg,,,,,,,,,,,,,0,4,4,2,1,,,,,,,,,,,,,,,,,,,,,,,,,,,,,,,,
,,,,,,,,,,,,6708079d21a0f618b83716b0,001,3,2025-04-15_11h50.53.567,avatar_quest_3AFC_legacy,2022.1.3,MacIntel,57.14285714,6708079d21a0f618b83716b0,67fe6e666cecbc9329ddf6d6,67fe7f3efb3fdb152403a598,,,,,,,,,,,,,,,,,,,,,,With Brainslug Difficult 1 With Money,6,images/assets/snowy_money.jpg,learning,20,images/assets/success_money.jpg,images/assets/gameover.jpg,,,,,,,,,,,,,0,5,5,0,1,,,,,,,,,,,,,,,,,,,,,,,,,,,,,,,,
,,,,,,,,,,,,6708079d21a0f618b83716b0,001,3,2025-04-15_11h50.53.567,avatar_quest_3AFC_legacy,2022.1.3,MacIntel,57.14285714,6708079d21a0f618b83716b0,67fe6e666cecbc9329ddf6d6,67fe7f3efb3fdb152403a598,,,,,,,,,,,,,,,,,,,,,,No Brainslug Difficult 2 No Money,12,images/assets/snowy_original.jpg,learning,20,images/assets/success.jpg,images/assets/gameover.jpg,,,,,,,,,,,,,0,6,6,8,1,,,,,,,,,,,,,,,,,,,,,,,,,,,,,,,,
,,,,,,,,,,,,6708079d21a0f618b83716b0,001,3,2025-04-15_11h50.53.567,avatar_quest_3AFC_legacy,2022.1.3,MacIntel,57.14285714,6708079d21a0f618b83716b0,67fe6e666cecbc9329ddf6d6,67fe7f3efb3fdb152403a598,,,,,,,,,,,,,,,,,,,,,,With Brainslug No Barriers With Money,0,images/assets/snowy_money.jpg,learning,10,images/assets/success_money.jpg,images/assets/gameover.jpg,,,,,,,,,,,,,0,7,7,4,1,,,,,,,,,,,,,,,,,,,,,,,,,,,,,,,,
,,,,,,,,,,,,6708079d21a0f618b83716b0,001,3,2025-04-15_11h50.53.567,avatar_quest_3AFC_legacy,2022.1.3,MacIntel,57.14285714,6708079d21a0f618b83716b0,67fe6e666cecbc9329ddf6d6,67fe7f3efb3fdb152403a598,,,,,,,,,,,,,,,,,,,,,,No Brainslug Difficult 2 With Money,12,images/assets/snowy_money.jpg,learning,20,images/assets/success_money.jpg,images/assets/gameover.jpg,,,,,,,,,,,,,0,8,8,7,1,,,,,,,,,,,,,,,,,,,,,,,,,,,,,,,,
,,,,,,,,,,,,6708079d21a0f618b83716b0,001,3,2025-04-15_11h50.53.567,avatar_quest_3AFC_legacy,2022.1.3,MacIntel,57.14285714,6708079d21a0f618b83716b0,67fe6e666cecbc9329ddf6d6,67fe7f3efb3fdb152403a598,,,,,,,,,,,,,,,,,,,,,,No Brainslug Difficult 1 No Money,6,images/assets/snowy_original.jpg,learning,20,images/assets/success.jpg,images/assets/gameover.jpg,,,,,,,,,,,,,0,9,9,6,1,,,,,,,,,,,,,,,,,,,,,,,,,,,,,,,,
,,,,,,,,,,,,6708079d21a0f618b83716b0,001,3,2025-04-15_11h50.53.567,avatar_quest_3AFC_legacy,2022.1.3,MacIntel,57.14285714,6708079d21a0f618b83716b0,67fe6e666cecbc9329ddf6d6,67fe7f3efb3fdb152403a598,,,,,,,,,,,,,,,,,,,,,,With Brainslug No Barriers No Money,0,images/assets/snowy_original.jpg,learning,10,images/assets/success.jpg,images/assets/gameover.jpg,,,,,,,,,,,,,0,10,10,5,1,,,,,,,,,,,,,,,,,,,,,,,,,,,,,,,,
,,,,,,,,,,,,6708079d21a0f618b83716b0,001,3,2025-04-15_11h50.53.567,avatar_quest_3AFC_legacy,2022.1.3,MacIntel,57.14285714,6708079d21a0f618b83716b0,67fe6e666cecbc9329ddf6d6,67fe7f3efb3fdb152403a598,,,,,,,,,,,,,,,,,,,,,,,,,,,,,,,,,,,,,,,,,,,,,,,,,,,,,,,7,0,7,0,1,,,,,,,,,,,,,,,,,,
,,,,,,,,,,,,6708079d21a0f618b83716b0,001,3,2025-04-15_11h50.53.567,avatar_quest_3AFC_legacy,2022.1.3,MacIntel,57.14285714,6708079d21a0f618b83716b0,67fe6e666cecbc9329ddf6d6,67fe7f3efb3fdb152403a598,,,,,,,,,,,,,,,,,,,,,,No Brainslug Difficult 1 No Money,6,images/assets/snowy_original.jpg,learning,20,images/assets/success.jpg,images/assets/gameover.jpg,,,,,,,,With Brainslug Difficult 2 No Money,With Brainslug Difficult 1 No Money,down,0.948,"[""With Brainslug Difficult 1 No Money"",""With Brainslug Difficult 2 With Money""]",0,0,0,6,1,,,,,,,,,,,,,,,,,,,,,,,,,,,,,,,,
,,,,,,,,,,,,6708079d21a0f618b83716b0,001,3,2025-04-15_11h50.53.567,avatar_quest_3AFC_legacy,2022.1.3,MacIntel,57.14285714,6708079d21a0f618b83716b0,67fe6e666cecbc9329ddf6d6,67fe7f3efb3fdb152403a598,,,,,,,,,,,,,,,,,,,,,,With Brainslug Difficult 2 With Money,12,images/assets/snowy_money.jpg,learning,20,images/assets/success_money.jpg,images/assets/gameover.jpg,,,,,,,,,,,,,0,1,1,2,1,,,,,,,,,,,,,,,,,,,,,,,,,,,,,,,,
,,,,,,,,,,,,6708079d21a0f618b83716b0,001,3,2025-04-15_11h50.53.567,avatar_quest_3AFC_legacy,2022.1.3,MacIntel,57.14285714,6708079d21a0f618b83716b0,67fe6e666cecbc9329ddf6d6,67fe7f3efb3fdb152403a598,,,,,,,,,,,,,,,,,,,,,,No Brainslug Difficult 2 No Money,12,images/assets/snowy_original.jpg,learning,20,images/assets/success.jpg,images/assets/gameover.jpg,,,,,,,,,,,,,0,2,2,8,1,,,,,,,,,,,,,,,,,,,,,,,,,,,,,,,,
,,,,,,,,,,,,6708079d21a0f618b83716b0,001,3,2025-04-15_11h50.53.567,avatar_quest_3AFC_legacy,2022.1.3,MacIntel,57.14285714,6708079d21a0f618b83716b0,67fe6e666cecbc9329ddf6d6,67fe7f3efb3fdb152403a598,,,,,,,,,,,,,,,,,,,,,,With Brainslug Difficult 1 With Money,6,images/assets/snowy_money.jpg,learning,20,images/assets/success_money.jpg,images/assets/gameover.jpg,,,,,,,,,,,,,0,3,3,0,1,,,,,,,,,,,,,,,,,,,,,,,,,,,,,,,,
,,,,,,,,,,,,6708079d21a0f618b83716b0,001,3,2025-04-15_11h50.53.567,avatar_quest_3AFC_legacy,2022.1.3,MacIntel,57.14285714,6708079d21a0f618b83716b0,67fe6e666cecbc9329ddf6d6,67fe7f3efb3fdb152403a598,"[""right"",""left"",""left"",""left"",""left"",""right"",""right"",""right"",""left"",""left"",""left"",""right"",""right"",""right"",""right"",""right"",""left"",""left"",""right"",""right"",""right"",""right"",""right"",""left"",""left"",""right"",""right"",""left"",""left"",""left"",""right"",""right"",""left"",""left"",""right"",""left"",""left"",""left"",""left"",""right"",""right"",""right"",""right"",""left"",""right"",""right"",""right"",""right"",""right"",""right"",""right"",""right"",""right"",""left"",""left"",""left""]","[0.28000000000000114,0.4379999999999882,0.6269999999999811,0.7769999999999868,1.007000000000005,1.2099999999999795,1.3659999999999854,1.5209999999999866,1.656000000000006,1.9429999999999836,2.0909999999999798,2.296999999999997,2.4909999999999854,2.7630000000000052,2.945999999999998,3.1740000000000066,3.259999999999991,3.4269999999999925,3.6219999999999857,3.8089999999999975,4.0379999999999825,4.286000000000001,4.653999999999996,5.070999999999998,5.244,5.388000000000005,5.552999999999997,5.72799999999998,5.924000000000007,6.1370000000000005,6.258999999999986,6.5049999999999955,6.578000000000003,6.7409999999999854,6.830999999999989,6.927999999999997,7.140999999999991,7.292000000000002,7.402999999999992,7.478999999999985,7.873999999999995,7.971000000000004,8.120999999999981,8.212999999999994,8.442999999999984,8.609999999999985,8.84299999999999,8.97799999999998,9.076999999999998,9.353999999999985,9.631,9.810000000000002,9.978999999999985,10.153999999999996,10.344999999999999,10.472999999999985]",,calibration,With Brainslug Difficult 2 No Money,12,10.587,10.599,24,8,0,FALSE,na,na,na,na,,,,,,,,,,,,,,,,,,,,,,,,,,,,,,,,,,0,0,0,0,1,,,,,,,,,,,,,,,,,,,,,,,
,,,,,,,,,,,,6708079d21a0f618b83716b0,001,3,2025-04-15_11h50.53.567,avatar_quest_3AFC_legacy,2022.1.3,MacIntel,57.14285714,6708079d21a0f618b83716b0,67fe6e666cecbc9329ddf6d6,67fe7f3efb3fdb152403a598,,,,,,,,,,,,,,,,,,,,,,With Brainslug Difficult 2 No Money,12,images/assets/snowy_original.jpg,learning,20,images/assets/success.jpg,images/assets/gameover.jpg,,,,,,,,,,,,,0,4,4,3,1,,,,,,,,,,,,,,,,,,,,,,,,,,,,,,,,
,,,,,,,,,,,,6708079d21a0f618b83716b0,001,3,2025-04-15_11h50.53.567,avatar_quest_3AFC_legacy,2022.1.3,MacIntel,57.14285714,6708079d21a0f618b83716b0,67fe6e666cecbc9329ddf6d6,67fe7f3efb3fdb152403a598,,,,,,,,,,,,,,,,,,,,,,No Brainslug No Barriers No Money,0,images/assets/snowy_original.jpg,learning,10,images/assets/success.jpg,images/assets/gameover.jpg,,,,,,,,,,,,,0,5,5,10,1,,,,,,,,,,,,,,,,,,,,,,,,,,,,,,,,
,,,,,,,,,,,,6708079d21a0f618b83716b0,001,3,2025-04-15_11h50.53.567,avatar_quest_3AFC_legacy,2022.1.3,MacIntel,57.14285714,6708079d21a0f618b83716b0,67fe6e666cecbc9329ddf6d6,67fe7f3efb3fdb152403a598,,,,,,,,,,,,,,,,,,,,,,With Brainslug No Barriers No Money,0,images/assets/snowy_original.jpg,learning,10,images/assets/success.jpg,images/assets/gameover.jpg,,,,,,,,,,,,,0,6,6,5,1,,,,,,,,,,,,,,,,,,,,,,,,,,,,,,,,
,,,,,,,,,,,,6708079d21a0f618b83716b0,001,3,2025-04-15_11h50.53.567,avatar_quest_3AFC_legacy,2022.1.3,MacIntel,57.14285714,6708079d21a0f618b83716b0,67fe6e666cecbc9329ddf6d6,67fe7f3efb3fdb152403a598,,,,,,,,,,,,,,,,,,,,,,No Brainslug No Barriers With Money,0,images/assets/snowy_money.jpg,learning,10,images/assets/success_money.jpg,images/assets/gameover.jpg,,,,,,,,,,,,,0,7,7,9,1,,,,,,,,,,,,,,,,,,,,,,,,,,,,,,,,
,,,,,,,,,,,,6708079d21a0f618b83716b0,001,3,2025-04-15_11h50.53.567,avatar_quest_3AFC_legacy,2022.1.3,MacIntel,57.14285714,6708079d21a0f618b83716b0,67fe6e666cecbc9329ddf6d6,67fe7f3efb3fdb152403a598,,,,,,,,,,,,,,,,,,,,,,With Brainslug Difficult 1 No Money,6,images/assets/snowy_original.jpg,learning,20,images/assets/success.jpg,images/assets/gameover.jpg,,,,,,,,,,,,,0,8,8,1,1,,,,,,,,,,,,,,,,,,,,,,,,,,,,,,,,
,,,,,,,,,,,,6708079d21a0f618b83716b0,001,3,2025-04-15_11h50.53.567,avatar_quest_3AFC_legacy,2022.1.3,MacIntel,57.14285714,6708079d21a0f618b83716b0,67fe6e666cecbc9329ddf6d6,67fe7f3efb3fdb152403a598,,,,,,,,,,,,,,,,,,,,,,No Brainslug Difficult 2 With Money,12,images/assets/snowy_money.jpg,learning,20,images/assets/success_money.jpg,images/assets/gameover.jpg,,,,,,,,,,,,,0,9,9,7,1,,,,,,,,,,,,,,,,,,,,,,,,,,,,,,,,
,,,,,,,,,,,,6708079d21a0f618b83716b0,001,3,2025-04-15_11h50.53.567,avatar_quest_3AFC_legacy,2022.1.3,MacIntel,57.14285714,6708079d21a0f618b83716b0,67fe6e666cecbc9329ddf6d6,67fe7f3efb3fdb152403a598,,,,,,,,,,,,,,,,,,,,,,With Brainslug No Barriers With Money,0,images/assets/snowy_money.jpg,learning,10,images/assets/success_money.jpg,images/assets/gameover.jpg,,,,,,,,,,,,,0,10,10,4,1,,,,,,,,,,,,,,,,,,,,,,,,,,,,,,,,
,,,,,,,,,,,,6708079d21a0f618b83716b0,001,3,2025-04-15_11h50.53.567,avatar_quest_3AFC_legacy,2022.1.3,MacIntel,57.14285714,6708079d21a0f618b83716b0,67fe6e666cecbc9329ddf6d6,67fe7f3efb3fdb152403a598,,,,,,,,,,,,,,,,,,,,,,,,,,,,,,,,,,,,,,,,,,,,,,,,,,,,,,,8,0,8,0,1,,,,,,,,,,,,,,,,,,
,,,,,,,,,,,,6708079d21a0f618b83716b0,001,3,2025-04-15_11h50.53.567,avatar_quest_3AFC_legacy,2022.1.3,MacIntel,57.14285714,6708079d21a0f618b83716b0,67fe6e666cecbc9329ddf6d6,67fe7f3efb3fdb152403a598,,,,,,,,,,,,,,,,,,,,,,With Brainslug Difficult 2 With Money,12,images/assets/snowy_money.jpg,learning,20,images/assets/success_money.jpg,images/assets/gameover.jpg,,,,,,,,With Brainslug Difficult 1 No Money,With Brainslug Difficult 1 No Money,left,0.649,"[""With Brainslug Difficult 2 No Money"",""With Brainslug Difficult 2 With Money""]",0,0,0,2,1,,,,,,,,,,,,,,,,,,,,,,,,,,,,,,,,
,,,,,,,,,,,,6708079d21a0f618b83716b0,001,3,2025-04-15_11h50.53.567,avatar_quest_3AFC_legacy,2022.1.3,MacIntel,57.14285714,6708079d21a0f618b83716b0,67fe6e666cecbc9329ddf6d6,67fe7f3efb3fdb152403a598,,,,,,,,,,,,,,,,,,,,,,With Brainslug Difficult 2 No Money,12,images/assets/snowy_original.jpg,learning,20,images/assets/success.jpg,images/assets/gameover.jpg,,,,,,,,,,,,,0,1,1,3,1,,,,,,,,,,,,,,,,,,,,,,,,,,,,,,,,
,,,,,,,,,,,,6708079d21a0f618b83716b0,001,3,2025-04-15_11h50.53.567,avatar_quest_3AFC_legacy,2022.1.3,MacIntel,57.14285714,6708079d21a0f618b83716b0,67fe6e666cecbc9329ddf6d6,67fe7f3efb3fdb152403a598,,,,,,,,,,,,,,,,,,,,,,No Brainslug No Barriers With Money,0,images/assets/snowy_money.jpg,learning,10,images/assets/success_money.jpg,images/assets/gameover.jpg,,,,,,,,,,,,,0,2,2,9,1,,,,,,,,,,,,,,,,,,,,,,,,,,,,,,,,
,,,,,,,,,,,,6708079d21a0f618b83716b0,001,3,2025-04-15_11h50.53.567,avatar_quest_3AFC_legacy,2022.1.3,MacIntel,57.14285714,6708079d21a0f618b83716b0,67fe6e666cecbc9329ddf6d6,67fe7f3efb3fdb152403a598,"[""right"",""right"",""left"",""left"",""left"",""left"",""left"",""right"",""right"",""right"",""right"",""right"",""up"",""up"",""left"",""left"",""left"",""left"",""left"",""left"",""left"",""left"",""left"",""left"",""right"",""right"",""right"",""right"",""right"",""left"",""left"",""left"",""left"",""left"",""right"",""right"",""right"",""right"",""right"",""right"",""right"",""right"",""left"",""left"",""left"",""right"",""right""]","[0.2909999999999968,0.4379999999999882,0.5489999999999782,0.664999999999992,0.8349999999999795,0.9839999999999804,1.0819999999999936,1.1709999999999923,1.3319999999999936,1.4659999999999798,1.5979999999999848,1.9039999999999964,2.437999999999988,2.7229999999999848,2.765999999999991,3.120999999999981,3.319999999999993,3.5,3.6859999999999786,3.899000000000001,4.103999999999985,4.274000000000001,4.416999999999973,4.567999999999984,4.837999999999994,5.014999999999986,5.1229999999999905,5.2379999999999995,5.389999999999986,5.580999999999989,5.770999999999987,5.921999999999997,6.036999999999978,6.170999999999992,6.333999999999975,6.550999999999988,6.764999999999986,6.935999999999979,7.031999999999982,7.163999999999987,7.2809999999999775,7.418000000000006,7.634999999999991,7.83099999999996,7.9669999999999845,8.120000000000005,8.397999999999968]",,calibration,With Brainslug Difficult 1 No Money,13,10.587,8.529,23,3,0,TRUE,na,na,na,na,,,,,,,,,,,,,,,,,,,,,,,,,,,,,,,,,,0,0,0,0,1,,,,,,,,,,,,,,,,,,,,,,,
,,,,,,,,,,,,6708079d21a0f618b83716b0,001,3,2025-04-15_11h50.53.567,avatar_quest_3AFC_legacy,2022.1.3,MacIntel,57.14285714,6708079d21a0f618b83716b0,67fe6e666cecbc9329ddf6d6,67fe7f3efb3fdb152403a598,,,,,,,,,,,,,,,,,,,,,,With Brainslug Difficult 1 No Money,6,images/assets/snowy_original.jpg,learning,20,images/assets/success.jpg,images/assets/gameover.jpg,,,,,,,,,,,,,0,3,3,1,1,,,,,,,,,,,,,,,,,,,,,,,,,,,,,,,,
,,,,,,,,,,,,6708079d21a0f618b83716b0,001,3,2025-04-15_11h50.53.567,avatar_quest_3AFC_legacy,2022.1.3,MacIntel,57.14285714,6708079d21a0f618b83716b0,67fe6e666cecbc9329ddf6d6,67fe7f3efb3fdb152403a598,,,,,,,,,,,,,,,,,,,,,,No Brainslug Difficult 2 No Money,12,images/assets/snowy_original.jpg,learning,20,images/assets/success.jpg,images/assets/gameover.jpg,,,,,,,,,,,,,0,4,4,8,1,,,,,,,,,,,,,,,,,,,,,,,,,,,,,,,,
,,,,,,,,,,,,6708079d21a0f618b83716b0,001,3,2025-04-15_11h50.53.567,avatar_quest_3AFC_legacy,2022.1.3,MacIntel,57.14285714,6708079d21a0f618b83716b0,67fe6e666cecbc9329ddf6d6,67fe7f3efb3fdb152403a598,,,,,,,,,,,,,,,,,,,,,,With Brainslug No Barriers No Money,0,images/assets/snowy_original.jpg,learning,10,images/assets/success.jpg,images/assets/gameover.jpg,,,,,,,,,,,,,0,5,5,5,1,,,,,,,,,,,,,,,,,,,,,,,,,,,,,,,,
,,,,,,,,,,,,6708079d21a0f618b83716b0,001,3,2025-04-15_11h50.53.567,avatar_quest_3AFC_legacy,2022.1.3,MacIntel,57.14285714,6708079d21a0f618b83716b0,67fe6e666cecbc9329ddf6d6,67fe7f3efb3fdb152403a598,,,,,,,,,,,,,,,,,,,,,,With Brainslug Difficult 1 With Money,6,images/assets/snowy_money.jpg,learning,20,images/assets/success_money.jpg,images/assets/gameover.jpg,,,,,,,,,,,,,0,6,6,0,1,,,,,,,,,,,,,,,,,,,,,,,,,,,,,,,,
,,,,,,,,,,,,6708079d21a0f618b83716b0,001,3,2025-04-15_11h50.53.567,avatar_quest_3AFC_legacy,2022.1.3,MacIntel,57.14285714,6708079d21a0f618b83716b0,67fe6e666cecbc9329ddf6d6,67fe7f3efb3fdb152403a598,,,,,,,,,,,,,,,,,,,,,,With Brainslug No Barriers With Money,0,images/assets/snowy_money.jpg,learning,10,images/assets/success_money.jpg,images/assets/gameover.jpg,,,,,,,,,,,,,0,7,7,4,1,,,,,,,,,,,,,,,,,,,,,,,,,,,,,,,,
,,,,,,,,,,,,6708079d21a0f618b83716b0,001,3,2025-04-15_11h50.53.567,avatar_quest_3AFC_legacy,2022.1.3,MacIntel,57.14285714,6708079d21a0f618b83716b0,67fe6e666cecbc9329ddf6d6,67fe7f3efb3fdb152403a598,,,,,,,,,,,,,,,,,,,,,,No Brainslug No Barriers No Money,0,images/assets/snowy_original.jpg,learning,10,images/assets/success.jpg,images/assets/gameover.jpg,,,,,,,,,,,,,0,8,8,10,1,,,,,,,,,,,,,,,,,,,,,,,,,,,,,,,,
,,,,,,,,,,,,6708079d21a0f618b83716b0,001,3,2025-04-15_11h50.53.567,avatar_quest_3AFC_legacy,2022.1.3,MacIntel,57.14285714,6708079d21a0f618b83716b0,67fe6e666cecbc9329ddf6d6,67fe7f3efb3fdb152403a598,,,,,,,,,,,,,,,,,,,,,,No Brainslug Difficult 1 No Money,6,images/assets/snowy_original.jpg,learning,20,images/assets/success.jpg,images/assets/gameover.jpg,,,,,,,,,,,,,0,9,9,6,1,,,,,,,,,,,,,,,,,,,,,,,,,,,,,,,,
,,,,,,,,,,,,6708079d21a0f618b83716b0,001,3,2025-04-15_11h50.53.567,avatar_quest_3AFC_legacy,2022.1.3,MacIntel,57.14285714,6708079d21a0f618b83716b0,67fe6e666cecbc9329ddf6d6,67fe7f3efb3fdb152403a598,,,,,,,,,,,,,,,,,,,,,,No Brainslug Difficult 2 With Money,12,images/assets/snowy_money.jpg,learning,20,images/assets/success_money.jpg,images/assets/gameover.jpg,,,,,,,,,,,,,0,10,10,7,1,,,,,,,,,,,,,,,,,,,,,,,,,,,,,,,,
,,,,,,,,,,,,6708079d21a0f618b83716b0,001,3,2025-04-15_11h50.53.567,avatar_quest_3AFC_legacy,2022.1.3,MacIntel,57.14285714,6708079d21a0f618b83716b0,67fe6e666cecbc9329ddf6d6,67fe7f3efb3fdb152403a598,,,,,,,,,,,,,,,,,,,,,,,,,,,,,,,,,,,,,,,,,,,,,,,,,,,,,,,9,0,9,0,1,,,,,,,,,,,,,,,,,,
,,,,,,,,,,,,6708079d21a0f618b83716b0,001,3,2025-04-15_11h50.53.567,avatar_quest_3AFC_legacy,2022.1.3,MacIntel,57.14285714,6708079d21a0f618b83716b0,67fe6e666cecbc9329ddf6d6,67fe7f3efb3fdb152403a598,,,,,,,,,,,,,,,,,,,,,,No Brainslug Difficult 2 No Money,12,images/assets/snowy_original.jpg,learning,20,images/assets/success.jpg,images/assets/gameover.jpg,,,,,,,,With Brainslug Difficult 1 No Money,With Brainslug Difficult 1 No Money,left,1.721,"[""With Brainslug Difficult 2 No Money"",""With Brainslug Difficult 2 With Money""]",0,0,0,8,1,,,,,,,,,,,,,,,,,,,,,,,,,,,,,,,,
,,,,,,,,,,,,6708079d21a0f618b83716b0,001,3,2025-04-15_11h50.53.567,avatar_quest_3AFC_legacy,2022.1.3,MacIntel,57.14285714,6708079d21a0f618b83716b0,67fe6e666cecbc9329ddf6d6,67fe7f3efb3fdb152403a598,,,,,,,,,,,,,,,,,,,,,,With Brainslug No Barriers With Money,0,images/assets/snowy_money.jpg,learning,10,images/assets/success_money.jpg,images/assets/gameover.jpg,,,,,,,,,,,,,0,1,1,4,1,,,,,,,,,,,,,,,,,,,,,,,,,,,,,,,,
,,,,,,,,,,,,6708079d21a0f618b83716b0,001,3,2025-04-15_11h50.53.567,avatar_quest_3AFC_legacy,2022.1.3,MacIntel,57.14285714,6708079d21a0f618b83716b0,67fe6e666cecbc9329ddf6d6,67fe7f3efb3fdb152403a598,,,,,,,,,,,,,,,,,,,,,,With Brainslug Difficult 1 With Money,6,images/assets/snowy_money.jpg,learning,20,images/assets/success_money.jpg,images/assets/gameover.jpg,,,,,,,,,,,,,0,2,2,0,1,,,,,,,,,,,,,,,,,,,,,,,,,,,,,,,,
,,,,,,,,,,,,6708079d21a0f618b83716b0,001,3,2025-04-15_11h50.53.567,avatar_quest_3AFC_legacy,2022.1.3,MacIntel,57.14285714,6708079d21a0f618b83716b0,67fe6e666cecbc9329ddf6d6,67fe7f3efb3fdb152403a598,,,,,,,,,,,,,,,,,,,,,,No Brainslug Difficult 1 No Money,6,images/assets/snowy_original.jpg,learning,20,images/assets/success.jpg,images/assets/gameover.jpg,,,,,,,,,,,,,0,3,3,6,1,,,,,,,,,,,,,,,,,,,,,,,,,,,,,,,,
,,,,,,,,,,,,6708079d21a0f618b83716b0,001,3,2025-04-15_11h50.53.567,avatar_quest_3AFC_legacy,2022.1.3,MacIntel,57.14285714,6708079d21a0f618b83716b0,67fe6e666cecbc9329ddf6d6,67fe7f3efb3fdb152403a598,,,,,,,,,,,,,,,,,,,,,,With Brainslug No Barriers No Money,0,images/assets/snowy_original.jpg,learning,10,images/assets/success.jpg,images/assets/gameover.jpg,,,,,,,,,,,,,0,4,4,5,1,,,,,,,,,,,,,,,,,,,,,,,,,,,,,,,,
,,,,,,,,,,,,6708079d21a0f618b83716b0,001,3,2025-04-15_11h50.53.567,avatar_quest_3AFC_legacy,2022.1.3,MacIntel,57.14285714,6708079d21a0f618b83716b0,67fe6e666cecbc9329ddf6d6,67fe7f3efb3fdb152403a598,,,,,,,,,,,,,,,,,,,,,,No Brainslug No Barriers With Money,0,images/assets/snowy_money.jpg,learning,10,images/assets/success_money.jpg,images/assets/gameover.jpg,,,,,,,,,,,,,0,5,5,9,1,,,,,,,,,,,,,,,,,,,,,,,,,,,,,,,,
,,,,,,,,,,,,6708079d21a0f618b83716b0,001,3,2025-04-15_11h50.53.567,avatar_quest_3AFC_legacy,2022.1.3,MacIntel,57.14285714,6708079d21a0f618b83716b0,67fe6e666cecbc9329ddf6d6,67fe7f3efb3fdb152403a598,,,,,,,,,,,,,,,,,,,,,,With Brainslug Difficult 2 With Money,12,images/assets/snowy_money.jpg,learning,20,images/assets/success_money.jpg,images/assets/gameover.jpg,,,,,,,,,,,,,0,6,6,2,1,,,,,,,,,,,,,,,,,,,,,,,,,,,,,,,,
,,,,,,,,,,,,6708079d21a0f618b83716b0,001,3,2025-04-15_11h50.53.567,avatar_quest_3AFC_legacy,2022.1.3,MacIntel,57.14285714,6708079d21a0f618b83716b0,67fe6e666cecbc9329ddf6d6,67fe7f3efb3fdb152403a598,,,,,,,,,,,,,,,,,,,,,,No Brainslug No Barriers No Money,0,images/assets/snowy_original.jpg,learning,10,images/assets/success.jpg,images/assets/gameover.jpg,,,,,,,,,,,,,0,7,7,10,1,,,,,,,,,,,,,,,,,,,,,,,,,,,,,,,,
,,,,,,,,,,,,6708079d21a0f618b83716b0,001,3,2025-04-15_11h50.53.567,avatar_quest_3AFC_legacy,2022.1.3,MacIntel,57.14285714,6708079d21a0f618b83716b0,67fe6e666cecbc9329ddf6d6,67fe7f3efb3fdb152403a598,"[""left"",""left"",""left"",""left"",""left"",""left"",""left"",""left"",""left"",""right"",""right"",""right"",""right"",""right"",""right"",""left"",""left"",""left"",""right"",""right"",""right"",""right"",""right"",""right"",""left"",""left"",""left"",""right""]","[0.36700000000001864,0.5470000000000255,0.7150000000000318,0.8700000000000045,1.0289999999999964,1.1829999999999927,1.632000000000005,1.8000000000000114,1.9460000000000264,2.230000000000018,2.533999999999992,2.7130000000000223,2.869000000000028,2.9820000000000277,3.112000000000023,3.4490000000000123,3.6790000000000305,3.8349999999999795,4.086999999999989,4.602000000000032,5.262999999999977,5.4669999999999845,5.646000000000015,5.800000000000011,5.983000000000004,6.196000000000026,6.367999999999995,6.567000000000007]",,calibration,With Brainslug Difficult 1 No Money,14,10.587,6.996,13,4,0,TRUE,na,na,na,na,,,,,,,,,,,,,,,,,,,,,,,,,,,,,,,,,,0,0,0,0,1,,,,,,,,,,,,,,,,,,,,,,,
,,,,,,,,,,,,6708079d21a0f618b83716b0,001,3,2025-04-15_11h50.53.567,avatar_quest_3AFC_legacy,2022.1.3,MacIntel,57.14285714,6708079d21a0f618b83716b0,67fe6e666cecbc9329ddf6d6,67fe7f3efb3fdb152403a598,,,,,,,,,,,,,,,,,,,,,,With Brainslug Difficult 1 No Money,6,images/assets/snowy_original.jpg,learning,20,images/assets/success.jpg,images/assets/gameover.jpg,,,,,,,,,,,,,0,8,8,1,1,,,,,,,,,,,,,,,,,,,,,,,,,,,,,,,,
,,,,,,,,,,,,6708079d21a0f618b83716b0,001,3,2025-04-15_11h50.53.567,avatar_quest_3AFC_legacy,2022.1.3,MacIntel,57.14285714,6708079d21a0f618b83716b0,67fe6e666cecbc9329ddf6d6,67fe7f3efb3fdb152403a598,,,,,,,,,,,,,,,,,,,,,,With Brainslug Difficult 2 No Money,12,images/assets/snowy_original.jpg,learning,20,images/assets/success.jpg,images/assets/gameover.jpg,,,,,,,,,,,,,0,9,9,3,1,,,,,,,,,,,,,,,,,,,,,,,,,,,,,,,,
,,,,,,,,,,,,6708079d21a0f618b83716b0,001,3,2025-04-15_11h50.53.567,avatar_quest_3AFC_legacy,2022.1.3,MacIntel,57.14285714,6708079d21a0f618b83716b0,67fe6e666cecbc9329ddf6d6,67fe7f3efb3fdb152403a598,,,,,,,,,,,,,,,,,,,,,,No Brainslug Difficult 2 With Money,12,images/assets/snowy_money.jpg,learning,20,images/assets/success_money.jpg,images/assets/gameover.jpg,,,,,,,,,,,,,0,10,10,7,1,,,,,,,,,,,,,,,,,,,,,,,,,,,,,,,,
,,,,,,,,,,,,6708079d21a0f618b83716b0,001,3,2025-04-15_11h50.53.567,avatar_quest_3AFC_legacy,2022.1.3,MacIntel,57.14285714,6708079d21a0f618b83716b0,67fe6e666cecbc9329ddf6d6,67fe7f3efb3fdb152403a598,,,,,,,,,,,,,,,,,,,,,,,,,,,,,,,,,,,,,,,,,,,,,,,,,,,,,,,10,0,10,0,1,,,,,,,,,,,,,,,,,,
,,,,,,,,,,,,6708079d21a0f618b83716b0,001,3,2025-04-15_11h50.53.567,avatar_quest_3AFC_legacy,2022.1.3,MacIntel,57.14285714,6708079d21a0f618b83716b0,67fe6e666cecbc9329ddf6d6,67fe7f3efb3fdb152403a598,,,,,,,,,,,,,,,,,,,,,,No Brainslug Difficult 2 No Money,12,images/assets/snowy_original.jpg,learning,20,images/assets/success.jpg,images/assets/gameover.jpg,,,,,,,,With Brainslug Difficult 2 No Money,With Brainslug Difficult 1 No Money,down,0.943,"[""With Brainslug Difficult 1 No Money"",""With Brainslug Difficult 2 With Money""]",0,0,0,8,1,,,,,,,,,,,,,,,,,,,,,,,,,,,,,,,,
,,,,,,,,,,,,6708079d21a0f618b83716b0,001,3,2025-04-15_11h50.53.567,avatar_quest_3AFC_legacy,2022.1.3,MacIntel,57.14285714,6708079d21a0f618b83716b0,67fe6e666cecbc9329ddf6d6,67fe7f3efb3fdb152403a598,,,,,,,,,,,,,,,,,,,,,,No Brainslug No Barriers With Money,0,images/assets/snowy_money.jpg,learning,10,images/assets/success_money.jpg,images/assets/gameover.jpg,,,,,,,,,,,,,0,1,1,9,1,,,,,,,,,,,,,,,,,,,,,,,,,,,,,,,,
,,,,,,,,,,,,6708079d21a0f618b83716b0,001,3,2025-04-15_11h50.53.567,avatar_quest_3AFC_legacy,2022.1.3,MacIntel,57.14285714,6708079d21a0f618b83716b0,67fe6e666cecbc9329ddf6d6,67fe7f3efb3fdb152403a598,,,,,,,,,,,,,,,,,,,,,,No Brainslug Difficult 2 With Money,12,images/assets/snowy_money.jpg,learning,20,images/assets/success_money.jpg,images/assets/gameover.jpg,,,,,,,,,,,,,0,2,2,7,1,,,,,,,,,,,,,,,,,,,,,,,,,,,,,,,,
,,,,,,,,,,,,6708079d21a0f618b83716b0,001,3,2025-04-15_11h50.53.567,avatar_quest_3AFC_legacy,2022.1.3,MacIntel,57.14285714,6708079d21a0f618b83716b0,67fe6e666cecbc9329ddf6d6,67fe7f3efb3fdb152403a598,,,,,,,,,,,,,,,,,,,,,,With Brainslug Difficult 1 With Money,6,images/assets/snowy_money.jpg,learning,20,images/assets/success_money.jpg,images/assets/gameover.jpg,,,,,,,,,,,,,0,3,3,0,1,,,,,,,,,,,,,,,,,,,,,,,,,,,,,,,,
,,,,,,,,,,,,6708079d21a0f618b83716b0,001,3,2025-04-15_11h50.53.567,avatar_quest_3AFC_legacy,2022.1.3,MacIntel,57.14285714,6708079d21a0f618b83716b0,67fe6e666cecbc9329ddf6d6,67fe7f3efb3fdb152403a598,,,,,,,,,,,,,,,,,,,,,,With Brainslug Difficult 2 With Money,12,images/assets/snowy_money.jpg,learning,20,images/assets/success_money.jpg,images/assets/gameover.jpg,,,,,,,,,,,,,0,4,4,2,1,,,,,,,,,,,,,,,,,,,,,,,,,,,,,,,,
,,,,,,,,,,,,6708079d21a0f618b83716b0,001,3,2025-04-15_11h50.53.567,avatar_quest_3AFC_legacy,2022.1.3,MacIntel,57.14285714,6708079d21a0f618b83716b0,67fe6e666cecbc9329ddf6d6,67fe7f3efb3fdb152403a598,,,,,,,,,,,,,,,,,,,,,,With Brainslug No Barriers No Money,0,images/assets/snowy_original.jpg,learning,10,images/assets/success.jpg,images/assets/gameover.jpg,,,,,,,,,,,,,0,5,5,5,1,,,,,,,,,,,,,,,,,,,,,,,,,,,,,,,,
,,,,,,,,,,,,6708079d21a0f618b83716b0,001,3,2025-04-15_11h50.53.567,avatar_quest_3AFC_legacy,2022.1.3,MacIntel,57.14285714,6708079d21a0f618b83716b0,67fe6e666cecbc9329ddf6d6,67fe7f3efb3fdb152403a598,,,,,,,,,,,,,,,,,,,,,,With Brainslug No Barriers With Money,0,images/assets/snowy_money.jpg,learning,10,images/assets/success_money.jpg,images/assets/gameover.jpg,,,,,,,,,,,,,0,6,6,4,1,,,,,,,,,,,,,,,,,,,,,,,,,,,,,,,,
,,,,,,,,,,,,6708079d21a0f618b83716b0,001,3,2025-04-15_11h50.53.567,avatar_quest_3AFC_legacy,2022.1.3,MacIntel,57.14285714,6708079d21a0f618b83716b0,67fe6e666cecbc9329ddf6d6,67fe7f3efb3fdb152403a598,,,,,,,,,,,,,,,,,,,,,,No Brainslug No Barriers No Money,0,images/assets/snowy_original.jpg,learning,10,images/assets/success.jpg,images/assets/gameover.jpg,,,,,,,,,,,,,0,7,7,10,1,,,,,,,,,,,,,,,,,,,,,,,,,,,,,,,,
,,,,,,,,,,,,6708079d21a0f618b83716b0,001,3,2025-04-15_11h50.53.567,avatar_quest_3AFC_legacy,2022.1.3,MacIntel,57.14285714,6708079d21a0f618b83716b0,67fe6e666cecbc9329ddf6d6,67fe7f3efb3fdb152403a598,,,,,,,,,,,,,,,,,,,,,,No Brainslug Difficult 1 No Money,6,images/assets/snowy_original.jpg,learning,20,images/assets/success.jpg,images/assets/gameover.jpg,,,,,,,,,,,,,0,8,8,6,1,,,,,,,,,,,,,,,,,,,,,,,,,,,,,,,,
,,,,,,,,,,,,6708079d21a0f618b83716b0,001,3,2025-04-15_11h50.53.567,avatar_quest_3AFC_legacy,2022.1.3,MacIntel,57.14285714,6708079d21a0f618b83716b0,67fe6e666cecbc9329ddf6d6,67fe7f3efb3fdb152403a598,,,,,,,,,,,,,,,,,,,,,,With Brainslug Difficult 1 No Money,6,images/assets/snowy_original.jpg,learning,20,images/assets/success.jpg,images/assets/gameover.jpg,,,,,,,,,,,,,0,9,9,1,1,,,,,,,,,,,,,,,,,,,,,,,,,,,,,,,,
,,,,,,,,,,,,6708079d21a0f618b83716b0,001,3,2025-04-15_11h50.53.567,avatar_quest_3AFC_legacy,2022.1.3,MacIntel,57.14285714,6708079d21a0f618b83716b0,67fe6e666cecbc9329ddf6d6,67fe7f3efb3fdb152403a598,"[""left"",""left"",""left"",""right"",""right"",""right"",""left"",""left"",""left"",""right"",""right"",""right"",""right"",""right"",""right"",""left"",""right"",""left"",""left"",""left"",""left"",""right"",""right"",""right"",""left"",""left"",""right"",""right"",""right"",""right"",""left"",""left"",""left"",""right"",""right"",""right"",""right"",""right"",""right"",""right"",""right"",""right"",""right"",""right"",""right"",""right""]","[0.36899999999997135,0.5369999999999777,0.6959999999999695,1.3360000000000127,1.6680000000000064,2.0330000000000155,2.298000000000002,2.5810000000000173,2.8029999999999973,2.843999999999994,3.0179999999999723,3.1610000000000014,3.3000000000000114,3.562000000000012,3.7350000000000136,3.8290000000000077,4.152999999999963,4.194000000000017,4.382999999999981,4.51400000000001,4.627999999999986,4.7479999999999905,4.899999999999977,5.014999999999986,5.248999999999967,5.401999999999987,5.677999999999997,5.868999999999971,6.093999999999994,6.303999999999974,6.4459999999999695,6.915999999999997,7.101999999999975,7.253999999999962,7.426999999999964,7.700999999999965,7.950999999999965,8.08299999999997,8.218999999999994,8.336000000000013,8.598000000000013,8.728999999999985,8.84699999999998,8.98399999999998,9.117999999999995,9.23599999999999]",,calibration,With Brainslug Difficult 2 No Money,15,10.587,9.591,16,7,0,TRUE,na,na,na,na,,,,,,,,,,,,,,,,,,,,,,,,,,,,,,,,,,0,0,0,0,1,,,,,,,,,,,,,,,,,,,,,,,
,,,,,,,,,,,,6708079d21a0f618b83716b0,001,3,2025-04-15_11h50.53.567,avatar_quest_3AFC_legacy,2022.1.3,MacIntel,57.14285714,6708079d21a0f618b83716b0,67fe6e666cecbc9329ddf6d6,67fe7f3efb3fdb152403a598,,,,,,,,,,,,,,,,,,,,,,With Brainslug Difficult 2 No Money,12,images/assets/snowy_original.jpg,learning,20,images/assets/success.jpg,images/assets/gameover.jpg,,,,,,,,,,,,,0,10,10,3,1,,,,,,,,,,,,,,,,,,,,,,,,,,,,,,,,
,,,,,,,,,,,,6708079d21a0f618b83716b0,001,3,2025-04-15_11h50.53.567,avatar_quest_3AFC_legacy,2022.1.3,MacIntel,57.14285714,6708079d21a0f618b83716b0,67fe6e666cecbc9329ddf6d6,67fe7f3efb3fdb152403a598,,,,,,,,,,,,,,,,,,,,,,,,,,,,,,,,,,,,,,,,,,,,,,,,,,,,,,,11,0,11,0,1,,,,,,,,,,,,,,,,,,
,,,,,,,,,,,,6708079d21a0f618b83716b0,001,3,2025-04-15_11h50.53.567,avatar_quest_3AFC_legacy,2022.1.3,MacIntel,57.14285714,6708079d21a0f618b83716b0,67fe6e666cecbc9329ddf6d6,67fe7f3efb3fdb152403a598,,,,,,,,,,,,,,,,,,,,,,,,,,,,,,,,,,,,,,,,,,,,,,,,,,,,,,,,,,,,0,0,0,0,1,1,With Brainslug Difficult 1 No Money,images/assets/With Brainslug Difficult 1 No Money.png,With Brainslug Difficult 2 No Money,images/assets/With Brainslug Difficult 2 No Money.png,With Brainslug Difficult 2 With Money,images/assets/With Brainslug Difficult 2 With Money.png,Achievement vs. money,,,,,
,,,,,,,,,,,,6708079d21a0f618b83716b0,001,3,2025-04-15_11h50.53.567,avatar_quest_3AFC_legacy,2022.1.3,MacIntel,57.14285714,6708079d21a0f618b83716b0,67fe6e666cecbc9329ddf6d6,67fe7f3efb3fdb152403a598,,,,,,,,,,,,,,,,,,,,,,With Brainslug No Barriers With Money,0,images/assets/snowy_money.jpg,learning,10,images/assets/success_money.jpg,images/assets/gameover.jpg,,,,,,,,No Brainslug No Barriers With Money,No Brainslug No Barriers No Money,right,0.487,"[""No Brainslug No Barriers No Money"",""No Brainslug Difficult 1 No Money""]",0,0,0,4,1,,,,,,,,,,,,,,,,,,,,,,,,,,,,,,,,
,,,,,,,,,,,,6708079d21a0f618b83716b0,001,3,2025-04-15_11h50.53.567,avatar_quest_3AFC_legacy,2022.1.3,MacIntel,57.14285714,6708079d21a0f618b83716b0,67fe6e666cecbc9329ddf6d6,67fe7f3efb3fdb152403a598,,,,,,,,,,,,,,,,,,,,,,With Brainslug Difficult 1 No Money,6,images/assets/snowy_original.jpg,learning,20,images/assets/success.jpg,images/assets/gameover.jpg,,,,,,,,,,,,,0,1,1,1,1,,,,,,,,,,,,,,,,,,,,,,,,,,,,,,,,
,,,,,,,,,,,,6708079d21a0f618b83716b0,001,3,2025-04-15_11h50.53.567,avatar_quest_3AFC_legacy,2022.1.3,MacIntel,57.14285714,6708079d21a0f618b83716b0,67fe6e666cecbc9329ddf6d6,67fe7f3efb3fdb152403a598,,,,,,,,,,,,,,,,,,,,,,With Brainslug Difficult 2 No Money,12,images/assets/snowy_original.jpg,learning,20,images/assets/success.jpg,images/assets/gameover.jpg,,,,,,,,,,,,,0,2,2,3,1,,,,,,,,,,,,,,,,,,,,,,,,,,,,,,,,
,,,,,,,,,,,,6708079d21a0f618b83716b0,001,3,2025-04-15_11h50.53.567,avatar_quest_3AFC_legacy,2022.1.3,MacIntel,57.14285714,6708079d21a0f618b83716b0,67fe6e666cecbc9329ddf6d6,67fe7f3efb3fdb152403a598,,,,,,,,,,,,,,,,,,,,,,With Brainslug Difficult 1 With Money,6,images/assets/snowy_money.jpg,learning,20,images/assets/success_money.jpg,images/assets/gameover.jpg,,,,,,,,,,,,,0,3,3,0,1,,,,,,,,,,,,,,,,,,,,,,,,,,,,,,,,
,,,,,,,,,,,,6708079d21a0f618b83716b0,001,3,2025-04-15_11h50.53.567,avatar_quest_3AFC_legacy,2022.1.3,MacIntel,57.14285714,6708079d21a0f618b83716b0,67fe6e666cecbc9329ddf6d6,67fe7f3efb3fdb152403a598,,,,,,,,,,,,,,,,,,,,,,No Brainslug No Barriers No Money,0,images/assets/snowy_original.jpg,learning,10,images/assets/success.jpg,images/assets/gameover.jpg,,,,,,,,,,,,,0,4,4,10,1,,,,,,,,,,,,,,,,,,,,,,,,,,,,,,,,
,,,,,,,,,,,,6708079d21a0f618b83716b0,001,3,2025-04-15_11h50.53.567,avatar_quest_3AFC_legacy,2022.1.3,MacIntel,57.14285714,6708079d21a0f618b83716b0,67fe6e666cecbc9329ddf6d6,67fe7f3efb3fdb152403a598,,,,,,,,,,,,,,,,,,,,,,No Brainslug Difficult 1 No Money,6,images/assets/snowy_original.jpg,learning,20,images/assets/success.jpg,images/assets/gameover.jpg,,,,,,,,,,,,,0,5,5,6,1,,,,,,,,,,,,,,,,,,,,,,,,,,,,,,,,
,,,,,,,,,,,,6708079d21a0f618b83716b0,001,3,2025-04-15_11h50.53.567,avatar_quest_3AFC_legacy,2022.1.3,MacIntel,57.14285714,6708079d21a0f618b83716b0,67fe6e666cecbc9329ddf6d6,67fe7f3efb3fdb152403a598,,,,,,,,,,,,,,,,,,,,,,No Brainslug Difficult 2 No Money,12,images/assets/snowy_original.jpg,learning,20,images/assets/success.jpg,images/assets/gameover.jpg,,,,,,,,,,,,,0,6,6,8,1,,,,,,,,,,,,,,,,,,,,,,,,,,,,,,,,
,,,,,,,,,,,,6708079d21a0f618b83716b0,001,3,2025-04-15_11h50.53.567,avatar_quest_3AFC_legacy,2022.1.3,MacIntel,57.14285714,6708079d21a0f618b83716b0,67fe6e666cecbc9329ddf6d6,67fe7f3efb3fdb152403a598,"[""left"",""left"",""right"",""right"",""left"",""right"",""left"",""left"",""right"",""right""]","[0.4060000000000059,0.5720000000000027,0.8550000000000182,1.05600000000004,1.406000000000006,1.8389999999999986,2.29200000000003,3.125,3.4220000000000255,4.005000000000052]",,calibration,No Brainslug No Barriers With Money,16,8.4696,5.366,10,0,0,TRUE,na,na,na,na,,,,,,,,,,,,,,,,,,,,,,,,,,,,,,,,,,0,0,0,0,1,,,,,,,,,,,,,,,,,,,,,,,
,,,,,,,,,,,,6708079d21a0f618b83716b0,001,3,2025-04-15_11h50.53.567,avatar_quest_3AFC_legacy,2022.1.3,MacIntel,57.14285714,6708079d21a0f618b83716b0,67fe6e666cecbc9329ddf6d6,67fe7f3efb3fdb152403a598,,,,,,,,,,,,,,,,,,,,,,No Brainslug No Barriers With Money,0,images/assets/snowy_money.jpg,learning,10,images/assets/success_money.jpg,images/assets/gameover.jpg,,,,,,,,,,,,,0,7,7,9,1,,,,,,,,,,,,,,,,,,,,,,,,,,,,,,,,
,,,,,,,,,,,,6708079d21a0f618b83716b0,001,3,2025-04-15_11h50.53.567,avatar_quest_3AFC_legacy,2022.1.3,MacIntel,57.14285714,6708079d21a0f618b83716b0,67fe6e666cecbc9329ddf6d6,67fe7f3efb3fdb152403a598,,,,,,,,,,,,,,,,,,,,,,With Brainslug No Barriers No Money,0,images/assets/snowy_original.jpg,learning,10,images/assets/success.jpg,images/assets/gameover.jpg,,,,,,,,,,,,,0,8,8,5,1,,,,,,,,,,,,,,,,,,,,,,,,,,,,,,,,
,,,,,,,,,,,,6708079d21a0f618b83716b0,001,3,2025-04-15_11h50.53.567,avatar_quest_3AFC_legacy,2022.1.3,MacIntel,57.14285714,6708079d21a0f618b83716b0,67fe6e666cecbc9329ddf6d6,67fe7f3efb3fdb152403a598,,,,,,,,,,,,,,,,,,,,,,With Brainslug Difficult 2 With Money,12,images/assets/snowy_money.jpg,learning,20,images/assets/success_money.jpg,images/assets/gameover.jpg,,,,,,,,,,,,,0,9,9,2,1,,,,,,,,,,,,,,,,,,,,,,,,,,,,,,,,
,,,,,,,,,,,,6708079d21a0f618b83716b0,001,3,2025-04-15_11h50.53.567,avatar_quest_3AFC_legacy,2022.1.3,MacIntel,57.14285714,6708079d21a0f618b83716b0,67fe6e666cecbc9329ddf6d6,67fe7f3efb3fdb152403a598,,,,,,,,,,,,,,,,,,,,,,No Brainslug Difficult 2 With Money,12,images/assets/snowy_money.jpg,learning,20,images/assets/success_money.jpg,images/assets/gameover.jpg,,,,,,,,,,,,,0,10,10,7,1,,,,,,,,,,,,,,,,,,,,,,,,,,,,,,,,
,,,,,,,,,,,,6708079d21a0f618b83716b0,001,3,2025-04-15_11h50.53.567,avatar_quest_3AFC_legacy,2022.1.3,MacIntel,57.14285714,6708079d21a0f618b83716b0,67fe6e666cecbc9329ddf6d6,67fe7f3efb3fdb152403a598,,,,,,,,,,,,,,,,,,,,,,,,,,,,,,,,,,,,,,,,,,,,,,,,,,,,,,,0,0,0,0,1,,,,,,,,,,,,,,,,,,
,,,,,,,,,,,,6708079d21a0f618b83716b0,001,3,2025-04-15_11h50.53.567,avatar_quest_3AFC_legacy,2022.1.3,MacIntel,57.14285714,6708079d21a0f618b83716b0,67fe6e666cecbc9329ddf6d6,67fe7f3efb3fdb152403a598,,,,,,,,,,,,,,,,,,,,,,No Brainslug Difficult 2 No Money,12,images/assets/snowy_original.jpg,learning,20,images/assets/success.jpg,images/assets/gameover.jpg,,,,,,,,No Brainslug No Barriers With Money,No Brainslug No Barriers No Money,right,0.14,"[""No Brainslug No Barriers No Money"",""No Brainslug Difficult 1 No Money""]",0,0,0,8,1,,,,,,,,,,,,,,,,,,,,,,,,,,,,,,,,
,,,,,,,,,,,,6708079d21a0f618b83716b0,001,3,2025-04-15_11h50.53.567,avatar_quest_3AFC_legacy,2022.1.3,MacIntel,57.14285714,6708079d21a0f618b83716b0,67fe6e666cecbc9329ddf6d6,67fe7f3efb3fdb152403a598,,,,,,,,,,,,,,,,,,,,,,No Brainslug Difficult 2 With Money,12,images/assets/snowy_money.jpg,learning,20,images/assets/success_money.jpg,images/assets/gameover.jpg,,,,,,,,,,,,,0,1,1,7,1,,,,,,,,,,,,,,,,,,,,,,,,,,,,,,,,
,,,,,,,,,,,,6708079d21a0f618b83716b0,001,3,2025-04-15_11h50.53.567,avatar_quest_3AFC_legacy,2022.1.3,MacIntel,57.14285714,6708079d21a0f618b83716b0,67fe6e666cecbc9329ddf6d6,67fe7f3efb3fdb152403a598,,,,,,,,,,,,,,,,,,,,,,With Brainslug Difficult 2 No Money,12,images/assets/snowy_original.jpg,learning,20,images/assets/success.jpg,images/assets/gameover.jpg,,,,,,,,,,,,,0,2,2,3,1,,,,,,,,,,,,,,,,,,,,,,,,,,,,,,,,
,,,,,,,,,,,,6708079d21a0f618b83716b0,001,3,2025-04-15_11h50.53.567,avatar_quest_3AFC_legacy,2022.1.3,MacIntel,57.14285714,6708079d21a0f618b83716b0,67fe6e666cecbc9329ddf6d6,67fe7f3efb3fdb152403a598,,,,,,,,,,,,,,,,,,,,,,With Brainslug Difficult 1 No Money,6,images/assets/snowy_original.jpg,learning,20,images/assets/success.jpg,images/assets/gameover.jpg,,,,,,,,,,,,,0,3,3,1,1,,,,,,,,,,,,,,,,,,,,,,,,,,,,,,,,
,,,,,,,,,,,,6708079d21a0f618b83716b0,001,3,2025-04-15_11h50.53.567,avatar_quest_3AFC_legacy,2022.1.3,MacIntel,57.14285714,6708079d21a0f618b83716b0,67fe6e666cecbc9329ddf6d6,67fe7f3efb3fdb152403a598,,,,,,,,,,,,,,,,,,,,,,With Brainslug No Barriers With Money,0,images/assets/snowy_money.jpg,learning,10,images/assets/success_money.jpg,images/assets/gameover.jpg,,,,,,,,,,,,,0,4,4,4,1,,,,,,,,,,,,,,,,,,,,,,,,,,,,,,,,
,,,,,,,,,,,,6708079d21a0f618b83716b0,001,3,2025-04-15_11h50.53.567,avatar_quest_3AFC_legacy,2022.1.3,MacIntel,57.14285714,6708079d21a0f618b83716b0,67fe6e666cecbc9329ddf6d6,67fe7f3efb3fdb152403a598,,,,,,,,,,,,,,,,,,,,,,No Brainslug Difficult 1 No Money,6,images/assets/snowy_original.jpg,learning,20,images/assets/success.jpg,images/assets/gameover.jpg,,,,,,,,,,,,,0,5,5,6,1,,,,,,,,,,,,,,,,,,,,,,,,,,,,,,,,
,,,,,,,,,,,,6708079d21a0f618b83716b0,001,3,2025-04-15_11h50.53.567,avatar_quest_3AFC_legacy,2022.1.3,MacIntel,57.14285714,6708079d21a0f618b83716b0,67fe6e666cecbc9329ddf6d6,67fe7f3efb3fdb152403a598,,,,,,,,,,,,,,,,,,,,,,With Brainslug Difficult 1 With Money,6,images/assets/snowy_money.jpg,learning,20,images/assets/success_money.jpg,images/assets/gameover.jpg,,,,,,,,,,,,,0,6,6,0,1,,,,,,,,,,,,,,,,,,,,,,,,,,,,,,,,
,,,,,,,,,,,,6708079d21a0f618b83716b0,001,3,2025-04-15_11h50.53.567,avatar_quest_3AFC_legacy,2022.1.3,MacIntel,57.14285714,6708079d21a0f618b83716b0,67fe6e666cecbc9329ddf6d6,67fe7f3efb3fdb152403a598,,,,,,,,,,,,,,,,,,,,,,With Brainslug No Barriers No Money,0,images/assets/snowy_original.jpg,learning,10,images/assets/success.jpg,images/assets/gameover.jpg,,,,,,,,,,,,,0,7,7,5,1,,,,,,,,,,,,,,,,,,,,,,,,,,,,,,,,
,,,,,,,,,,,,6708079d21a0f618b83716b0,001,3,2025-04-15_11h50.53.567,avatar_quest_3AFC_legacy,2022.1.3,MacIntel,57.14285714,6708079d21a0f618b83716b0,67fe6e666cecbc9329ddf6d6,67fe7f3efb3fdb152403a598,"[""left"",""right"",""left"",""right""]","[0.5,0.8180000000000405,2.2350000000000136,3.9010000000000105]",,calibration,No Brainslug No Barriers With Money,17,8.4696,5.426,4,0,0,TRUE,na,na,na,na,,,,,,,,,,,,,,,,,,,,,,,,,,,,,,,,,,0,0,0,0,1,,,,,,,,,,,,,,,,,,,,,,,
,,,,,,,,,,,,6708079d21a0f618b83716b0,001,3,2025-04-15_11h50.53.567,avatar_quest_3AFC_legacy,2022.1.3,MacIntel,57.14285714,6708079d21a0f618b83716b0,67fe6e666cecbc9329ddf6d6,67fe7f3efb3fdb152403a598,,,,,,,,,,,,,,,,,,,,,,No Brainslug No Barriers With Money,0,images/assets/snowy_money.jpg,learning,10,images/assets/success_money.jpg,images/assets/gameover.jpg,,,,,,,,,,,,,0,8,8,9,1,,,,,,,,,,,,,,,,,,,,,,,,,,,,,,,,
,,,,,,,,,,,,6708079d21a0f618b83716b0,001,3,2025-04-15_11h50.53.567,avatar_quest_3AFC_legacy,2022.1.3,MacIntel,57.14285714,6708079d21a0f618b83716b0,67fe6e666cecbc9329ddf6d6,67fe7f3efb3fdb152403a598,,,,,,,,,,,,,,,,,,,,,,With Brainslug Difficult 2 With Money,12,images/assets/snowy_money.jpg,learning,20,images/assets/success_money.jpg,images/assets/gameover.jpg,,,,,,,,,,,,,0,9,9,2,1,,,,,,,,,,,,,,,,,,,,,,,,,,,,,,,,
,,,,,,,,,,,,6708079d21a0f618b83716b0,001,3,2025-04-15_11h50.53.567,avatar_quest_3AFC_legacy,2022.1.3,MacIntel,57.14285714,6708079d21a0f618b83716b0,67fe6e666cecbc9329ddf6d6,67fe7f3efb3fdb152403a598,,,,,,,,,,,,,,,,,,,,,,No Brainslug No Barriers No Money,0,images/assets/snowy_original.jpg,learning,10,images/assets/success.jpg,images/assets/gameover.jpg,,,,,,,,,,,,,0,10,10,10,1,,,,,,,,,,,,,,,,,,,,,,,,,,,,,,,,
,,,,,,,,,,,,6708079d21a0f618b83716b0,001,3,2025-04-15_11h50.53.567,avatar_quest_3AFC_legacy,2022.1.3,MacIntel,57.14285714,6708079d21a0f618b83716b0,67fe6e666cecbc9329ddf6d6,67fe7f3efb3fdb152403a598,,,,,,,,,,,,,,,,,,,,,,,,,,,,,,,,,,,,,,,,,,,,,,,,,,,,,,,1,0,1,0,1,,,,,,,,,,,,,,,,,,
,,,,,,,,,,,,6708079d21a0f618b83716b0,001,3,2025-04-15_11h50.53.567,avatar_quest_3AFC_legacy,2022.1.3,MacIntel,57.14285714,6708079d21a0f618b83716b0,67fe6e666cecbc9329ddf6d6,67fe7f3efb3fdb152403a598,,,,,,,,,,,,,,,,,,,,,,No Brainslug Difficult 2 With Money,12,images/assets/snowy_money.jpg,learning,20,images/assets/success_money.jpg,images/assets/gameover.jpg,,,,,,,,No Brainslug Difficult 1 No Money,No Brainslug No Barriers No Money,down,1.193,"[""No Brainslug No Barriers No Money"",""No Brainslug No Barriers With Money""]",0,0,0,7,1,,,,,,,,,,,,,,,,,,,,,,,,,,,,,,,,
,,,,,,,,,,,,6708079d21a0f618b83716b0,001,3,2025-04-15_11h50.53.567,avatar_quest_3AFC_legacy,2022.1.3,MacIntel,57.14285714,6708079d21a0f618b83716b0,67fe6e666cecbc9329ddf6d6,67fe7f3efb3fdb152403a598,,,,,,,,,,,,,,,,,,,,,,With Brainslug Difficult 2 No Money,12,images/assets/snowy_original.jpg,learning,20,images/assets/success.jpg,images/assets/gameover.jpg,,,,,,,,,,,,,0,1,1,3,1,,,,,,,,,,,,,,,,,,,,,,,,,,,,,,,,
,,,,,,,,,,,,6708079d21a0f618b83716b0,001,3,2025-04-15_11h50.53.567,avatar_quest_3AFC_legacy,2022.1.3,MacIntel,57.14285714,6708079d21a0f618b83716b0,67fe6e666cecbc9329ddf6d6,67fe7f3efb3fdb152403a598,,,,,,,,,,,,,,,,,,,,,,No Brainslug Difficult 2 No Money,12,images/assets/snowy_original.jpg,learning,20,images/assets/success.jpg,images/assets/gameover.jpg,,,,,,,,,,,,,0,2,2,8,1,,,,,,,,,,,,,,,,,,,,,,,,,,,,,,,,
,,,,,,,,,,,,6708079d21a0f618b83716b0,001,3,2025-04-15_11h50.53.567,avatar_quest_3AFC_legacy,2022.1.3,MacIntel,57.14285714,6708079d21a0f618b83716b0,67fe6e666cecbc9329ddf6d6,67fe7f3efb3fdb152403a598,,,,,,,,,,,,,,,,,,,,,,With Brainslug No Barriers With Money,0,images/assets/snowy_money.jpg,learning,10,images/assets/success_money.jpg,images/assets/gameover.jpg,,,,,,,,,,,,,0,3,3,4,1,,,,,,,,,,,,,,,,,,,,,,,,,,,,,,,,
,,,,,,,,,,,,6708079d21a0f618b83716b0,001,3,2025-04-15_11h50.53.567,avatar_quest_3AFC_legacy,2022.1.3,MacIntel,57.14285714,6708079d21a0f618b83716b0,67fe6e666cecbc9329ddf6d6,67fe7f3efb3fdb152403a598,,,,,,,,,,,,,,,,,,,,,,With Brainslug Difficult 1 No Money,6,images/assets/snowy_original.jpg,learning,20,images/assets/success.jpg,images/assets/gameover.jpg,,,,,,,,,,,,,0,4,4,1,1,,,,,,,,,,,,,,,,,,,,,,,,,,,,,,,,
,,,,,,,,,,,,6708079d21a0f618b83716b0,001,3,2025-04-15_11h50.53.567,avatar_quest_3AFC_legacy,2022.1.3,MacIntel,57.14285714,6708079d21a0f618b83716b0,67fe6e666cecbc9329ddf6d6,67fe7f3efb3fdb152403a598,,,,,,,,,,,,,,,,,,,,,,With Brainslug Difficult 1 With Money,6,images/assets/snowy_money.jpg,learning,20,images/assets/success_money.jpg,images/assets/gameover.jpg,,,,,,,,,,,,,0,5,5,0,1,,,,,,,,,,,,,,,,,,,,,,,,,,,,,,,,
,,,,,,,,,,,,6708079d21a0f618b83716b0,001,3,2025-04-15_11h50.53.567,avatar_quest_3AFC_legacy,2022.1.3,MacIntel,57.14285714,6708079d21a0f618b83716b0,67fe6e666cecbc9329ddf6d6,67fe7f3efb3fdb152403a598,,,,,,,,,,,,,,,,,,,,,,With Brainslug Difficult 2 With Money,12,images/assets/snowy_money.jpg,learning,20,images/assets/success_money.jpg,images/assets/gameover.jpg,,,,,,,,,,,,,0,6,6,2,1,,,,,,,,,,,,,,,,,,,,,,,,,,,,,,,,
,,,,,,,,,,,,6708079d21a0f618b83716b0,001,3,2025-04-15_11h50.53.567,avatar_quest_3AFC_legacy,2022.1.3,MacIntel,57.14285714,6708079d21a0f618b83716b0,67fe6e666cecbc9329ddf6d6,67fe7f3efb3fdb152403a598,,,,,,,,,,,,,,,,,,,,,,With Brainslug No Barriers No Money,0,images/assets/snowy_original.jpg,learning,10,images/assets/success.jpg,images/assets/gameover.jpg,,,,,,,,,,,,,0,7,7,5,1,,,,,,,,,,,,,,,,,,,,,,,,,,,,,,,,
,,,,,,,,,,,,6708079d21a0f618b83716b0,001,3,2025-04-15_11h50.53.567,avatar_quest_3AFC_legacy,2022.1.3,MacIntel,57.14285714,6708079d21a0f618b83716b0,67fe6e666cecbc9329ddf6d6,67fe7f3efb3fdb152403a598,,,,,,,,,,,,,,,,,,,,,,No Brainslug No Barriers With Money,0,images/assets/snowy_money.jpg,learning,10,images/assets/success_money.jpg,images/assets/gameover.jpg,,,,,,,,,,,,,0,8,8,9,1,,,,,,,,,,,,,,,,,,,,,,,,,,,,,,,,
,,,,,,,,,,,,6708079d21a0f618b83716b0,001,3,2025-04-15_11h50.53.567,avatar_quest_3AFC_legacy,2022.1.3,MacIntel,57.14285714,6708079d21a0f618b83716b0,67fe6e666cecbc9329ddf6d6,67fe7f3efb3fdb152403a598,,,,,,,,,,,,,,,,,,,,,,No Brainslug No Barriers No Money,0,images/assets/snowy_original.jpg,learning,10,images/assets/success.jpg,images/assets/gameover.jpg,,,,,,,,,,,,,0,9,9,10,1,,,,,,,,,,,,,,,,,,,,,,,,,,,,,,,,
,,,,,,,,,,,,6708079d21a0f618b83716b0,001,3,2025-04-15_11h50.53.567,avatar_quest_3AFC_legacy,2022.1.3,MacIntel,57.14285714,6708079d21a0f618b83716b0,67fe6e666cecbc9329ddf6d6,67fe7f3efb3fdb152403a598,"[""left"",""left"",""right"",""right"",""right"",""left"",""left"",""left"",""right"",""right"",""right"",""left"",""left"",""left"",""right"",""right""]","[0.6539999999999964,0.8519999999999754,1.5069999999999482,1.7019999999999982,1.8870000000000005,2.4189999999999827,2.634999999999991,2.7689999999999486,3.336999999999989,3.534999999999968,3.6859999999999786,4.298000000000002,4.518999999999949,4.685999999999979,4.951999999999998,5.153999999999996]",,calibration,No Brainslug Difficult 1 No Money,18,10.587,5.325,16,0,0,TRUE,na,na,na,na,,,,,,,,,,,,,,,,,,,,,,,,,,,,,,,,,,0,0,0,0,1,,,,,,,,,,,,,,,,,,,,,,,
