instruction_mouse.x,instruction_mouse.y,instruction_mouse.leftButton,instruction_mouse.midButton,instruction_mouse.rightButton,instruction_mouse.clicked_name,introduce_general.thisRepN,introduce_general.thisTrialN,introduce_general.thisN,introduce_general.thisIndex,introduce_general.ran,thisInstruction,participant,session,game version,date,expName,psychopyVersion,OS,frameRate,PROLIFIC PID,STUDY ID,SESSION ID,move_resp.keys,move_resp.rt,end_resp.keys,phase,condition,trial_num,time_limit,completion_time,left_right_steps,number_of_obsticle_blocks,number_of_tree_blocks,quest_complete,responsivity_summary,av_inter_brainslug_intervals,proportion_jitter,jitter_direction_proportion_right,calibration_phase.thisRepN,calibration_phase.thisTrialN,calibration_phase.thisN,calibration_phase.thisIndex,calibration_phase.ran,BlockLabel,nObsticles,backgroundImage,phaseLabel,n_side_steps,success_im,gameover_im,success_condition,introduce_learning_or_choice.thisRepN,introduce_learning_or_choice.thisTrialN,introduce_learning_or_choice.thisN,introduce_learning_or_choice.thisIndex,introduce_learning_or_choice.ran,choice_resp.keys,chosen_quest,unchosen_quest,choice_resp_3afc.keys,choice_resp_3afc.rt,unchosen_quests,forced_choice_trial.thisRepN,forced_choice_trial.thisTrialN,forced_choice_trial.thisN,forced_choice_trial.thisIndex,forced_choice_trial.ran,enjoyment_slider.response,enjoyment_slider.rt,effort_slider.response,effort_slider.rt,show_loop2.thisRepN,show_loop2.thisTrialN,show_loop2.thisN,show_loop2.thisIndex,show_loop2.ran,trials_per_block.thisRepN,trials_per_block.thisTrialN,trials_per_block.thisN,trials_per_block.thisIndex,trials_per_block.ran,decision_phase_AFC.thisRepN,decision_phase_AFC.thisTrialN,decision_phase_AFC.thisN,decision_phase_AFC.thisIndex,decision_phase_AFC.ran,blockN,BlockLabel1,questIm1,BlockLabel2,questIm2,BlockLabel3,questIm3,quest_condition,showForcedChoice.thisRepN,showForcedChoice.thisTrialN,showForcedChoice.thisN,showForcedChoice.thisIndex,showForcedChoice.ran
0.427729793,-0.382300352,1,0,0,instruction_button,0,0,0,0,1,images/instructions_part1_LSM_taskversion1/Slide1.JPG,672c0491c5ac03124a6c1bd3,001,3,2025-03-27_18h15.06.323,avatar_quest_3AFC_legacy,2022.1.3,Win32,59.88023952,672c0491c5ac03124a6c1bd3,67e5c8c9bc10e40b86efc6fc,67e5caa4b12acb694b9993a1,,,,,,,,,,,,,,,,,,,,,,,,,,,,,,,,,,,,,,,,,,,,,,,,,,,,,,,,,,,,,,,,,,,,,,,,,,,,,
0.441624296,-0.408699998,1,0,0,instruction_button,0,1,1,1,1,images/instructions_part1_LSM_taskversion1/Slide2.JPG,672c0491c5ac03124a6c1bd3,001,3,2025-03-27_18h15.06.323,avatar_quest_3AFC_legacy,2022.1.3,Win32,59.88023952,672c0491c5ac03124a6c1bd3,67e5c8c9bc10e40b86efc6fc,67e5caa4b12acb694b9993a1,,,,,,,,,,,,,,,,,,,,,,,,,,,,,,,,,,,,,,,,,,,,,,,,,,,,,,,,,,,,,,,,,,,,,,,,,,,,,
0.441624296,-0.408699998,1,0,0,instruction_button,0,2,2,2,1,images/instructions_part1_LSM_taskversion1/Slide3.JPG,672c0491c5ac03124a6c1bd3,001,3,2025-03-27_18h15.06.323,avatar_quest_3AFC_legacy,2022.1.3,Win32,59.88023952,672c0491c5ac03124a6c1bd3,67e5c8c9bc10e40b86efc6fc,67e5caa4b12acb694b9993a1,,,,,,,,,,,,,,,,,,,,,,,,,,,,,,,,,,,,,,,,,,,,,,,,,,,,,,,,,,,,,,,,,,,,,,,,,,,,,
0.380488709,-0.392026517,1,0,0,instruction_button,0,3,3,3,1,images/instructions_part1_LSM_taskversion1/Slide3.5.JPG,672c0491c5ac03124a6c1bd3,001,3,2025-03-27_18h15.06.323,avatar_quest_3AFC_legacy,2022.1.3,Win32,59.88023952,672c0491c5ac03124a6c1bd3,67e5c8c9bc10e40b86efc6fc,67e5caa4b12acb694b9993a1,,,,,,,,,,,,,,,,,,,,,,,,,,,,,,,,,,,,,,,,,,,,,,,,,,,,,,,,,,,,,,,,,,,,,,,,,,,,,
0.395772447,-0.385079266,1,0,0,instruction_button,0,4,4,4,1,images/instructions_part1_LSM_taskversion1/Slide4.JPG,672c0491c5ac03124a6c1bd3,001,3,2025-03-27_18h15.06.323,avatar_quest_3AFC_legacy,2022.1.3,Win32,59.88023952,672c0491c5ac03124a6c1bd3,67e5c8c9bc10e40b86efc6fc,67e5caa4b12acb694b9993a1,,,,,,,,,,,,,,,,,,,,,,,,,,,,,,,,,,,,,,,,,,,,,,,,,,,,,,,,,,,,,,,,,,,,,,,,,,,,,
0.371457288,-0.405921085,1,0,0,instruction_button,0,5,5,5,1,images/instructions_part1_LSM_taskversion1/Slide6.5.JPG,672c0491c5ac03124a6c1bd3,001,3,2025-03-27_18h15.06.323,avatar_quest_3AFC_legacy,2022.1.3,Win32,59.88023952,672c0491c5ac03124a6c1bd3,67e5c8c9bc10e40b86efc6fc,67e5caa4b12acb694b9993a1,,,,,,,,,,,,,,,,,,,,,,,,,,,,,,,,,,,,,,,,,,,,,,,,,,,,,,,,,,,,,,,,,,,,,,,,,,,,,
,,,,,,,,,,,,672c0491c5ac03124a6c1bd3,001,3,2025-03-27_18h15.06.323,avatar_quest_3AFC_legacy,2022.1.3,Win32,59.88023952,672c0491c5ac03124a6c1bd3,67e5c8c9bc10e40b86efc6fc,67e5caa4b12acb694b9993a1,"[""left"",""left"",""right"",""right"",""right"",""right"",""right"",""up"",""up"",""up"",""left"",""right""]","[1.196600000023821,2.905100000023836,3.5672999999523114,3.937499999999986,4.377600000023833,4.762100000023835,5.792499999999976,6.301299999952292,6.684399999976151,7.178999999999988,7.575799999952309,8.014399999976135]",,calibration,No Brainslug No Barriers No Money,1,100,8.8181,7,0,192,TRUE,na,na,na,na,0,0,0,2,1,No Brainslug No Barriers No Money,0,images/assets/snowy_original.jpg,calibration,10,images/assets/success.jpg,images/assets/gameover.jpg,never,,,,,,,,,,,,,,,,,,,,,,,,,,,,,,,,,,,,,,,,,,,,,,,,
,,,,,,,,,,,,672c0491c5ac03124a6c1bd3,001,3,2025-03-27_18h15.06.323,avatar_quest_3AFC_legacy,2022.1.3,Win32,59.88023952,672c0491c5ac03124a6c1bd3,67e5c8c9bc10e40b86efc6fc,67e5caa4b12acb694b9993a1,"[""right"",""right"",""left"",""left"",""left"",""left"",""right"",""right"",""right""]","[0.07119999992846715,1.5699999999999932,2.1970000000000027,2.5843999999761706,2.8443999999761616,3.286599999904638,3.706799999952324,4.5073999999761725,5.11699999999999]",,calibration,No Brainslug No Barriers No Money,2,100,5.4516,8,0,0,TRUE,na,na,na,na,0,1,1,0,1,No Brainslug No Barriers No Money,0,images/assets/snowy_original.jpg,calibration,10,images/assets/success.jpg,images/assets/gameover.jpg,never,,,,,,,,,,,,,,,,,,,,,,,,,,,,,,,,,,,,,,,,,,,,,,,,
,,,,,,,,,,,,672c0491c5ac03124a6c1bd3,001,3,2025-03-27_18h15.06.323,avatar_quest_3AFC_legacy,2022.1.3,Win32,59.88023952,672c0491c5ac03124a6c1bd3,67e5c8c9bc10e40b86efc6fc,67e5caa4b12acb694b9993a1,"[""right"",""left"",""left"",""left"",""right"",""right"",""right"",""left"",""left"",""right""]","[0.2261999999284683,1.7823999999761497,2.1990000000000123,2.859399999976148,3.5051999999284646,3.8368999999761684,4.077699999928484,4.951699999928479,5.2092999999523215,5.830799999952319]",,calibration,No Brainslug No Barriers No Money,3,100,6.9531,10,0,82,TRUE,na,na,na,na,0,2,2,1,1,No Brainslug No Barriers No Money,0,images/assets/snowy_original.jpg,calibration,10,images/assets/success.jpg,images/assets/gameover.jpg,never,,,,,,,,,,,,,,,,,,,,,,,,,,,,,,,,,,,,,,,,,,,,,,,,
0.373541266,-0.405226277,1,0,0,instruction_button,,,,,,images/instructions_part2_LSM_taskversion3.jpg,672c0491c5ac03124a6c1bd3,001,3,2025-03-27_18h15.06.323,avatar_quest_3AFC_legacy,2022.1.3,Win32,59.88023952,672c0491c5ac03124a6c1bd3,67e5c8c9bc10e40b86efc6fc,67e5caa4b12acb694b9993a1,,,,,,,,,,,,,,,,,,,,,,,,,,,,,,0,0,0,0,1,,,,,,,,,,,,,,,,,,,,,,,,,,,,,,,,,,,,,,,,,,,
,,,,,,,,,,,,672c0491c5ac03124a6c1bd3,001,3,2025-03-27_18h15.06.323,avatar_quest_3AFC_legacy,2022.1.3,Win32,59.88023952,672c0491c5ac03124a6c1bd3,67e5c8c9bc10e40b86efc6fc,67e5caa4b12acb694b9993a1,,,,,,,,,,,,,,,,,,,,,,With Brainslug No Barriers No Money,0,images/assets/snowy_original.jpg,learning,10,images/assets/success.jpg,images/assets/gameover.jpg,,,,,,,,With Brainslug Difficult 2 With Money,With Brainslug Difficult 1 No Money,right,5.4059,"[""With Brainslug Difficult 1 No Money"",""With Brainslug Difficult 2 No Money""]",0,0,0,5,1,,,,,,,,,,,,,,,,,,,,,,,,,,,,,,,,
,,,,,,,,,,,,672c0491c5ac03124a6c1bd3,001,3,2025-03-27_18h15.06.323,avatar_quest_3AFC_legacy,2022.1.3,Win32,59.88023952,672c0491c5ac03124a6c1bd3,67e5c8c9bc10e40b86efc6fc,67e5caa4b12acb694b9993a1,"[""left"",""right"",""left"",""right"",""right"",""right"",""right"",""right"",""right"",""right"",""right"",""right"",""right"",""right"",""left"",""left"",""left"",""left"",""left"",""right"",""right"",""right"",""right"",""right"",""right"",""right"",""right"",""left"",""left"",""left"",""right""]","[1.1765000000000043,1.6715000000000089,2.795500000000004,3.3880000000000052,3.61469999992849,4.111600000023856,4.460699999928494,4.670699999928473,4.894100000023855,5.241199999928483,5.466100000023857,5.737199999928492,6.076699999928479,6.312600000023849,6.392100000023845,6.656000000000006,6.877199999928479,7.12069999992849,7.314000000000021,7.671999999999997,7.94550000000001,8.178799999952332,8.424399999976174,8.664000000000016,8.91719999992847,9.154699999928482,9.394899999976161,9.526899999976166,9.794899999976167,10.01219999992847,10.470199999928468]",,calibration,With Brainslug Difficult 2 With Money,4,10.6114,10.6226,10,8,0,FALSE,na,na,na,na,,,,,,,,,,,,,,,,,,,,,,,,,,,,,,,,,,0,0,0,0,1,,,,,,,,,,,,,,,,,,,,,,,
,,,,,,,,,,,,672c0491c5ac03124a6c1bd3,001,3,2025-03-27_18h15.06.323,avatar_quest_3AFC_legacy,2022.1.3,Win32,59.88023952,672c0491c5ac03124a6c1bd3,67e5c8c9bc10e40b86efc6fc,67e5caa4b12acb694b9993a1,,,,,,,,,,,,,,,,,,,,,,With Brainslug Difficult 2 With Money,12,images/assets/snowy_money.jpg,learning,20,images/assets/success_money.jpg,images/assets/gameover.jpg,,,,,,,,,,,,,0,1,1,2,1,,,,,,,,,,,,,,,,,,,,,,,,,,,,,,,,
,,,,,,,,,,,,672c0491c5ac03124a6c1bd3,001,3,2025-03-27_18h15.06.323,avatar_quest_3AFC_legacy,2022.1.3,Win32,59.88023952,672c0491c5ac03124a6c1bd3,67e5c8c9bc10e40b86efc6fc,67e5caa4b12acb694b9993a1,,,,,,,,,,,,,,,,,,,,,,With Brainslug No Barriers With Money,0,images/assets/snowy_money.jpg,learning,10,images/assets/success_money.jpg,images/assets/gameover.jpg,,,,,,,,,,,,,0,2,2,4,1,,,,,,,,,,,,,,,,,,,,,,,,,,,,,,,,
,,,,,,,,,,,,672c0491c5ac03124a6c1bd3,001,3,2025-03-27_18h15.06.323,avatar_quest_3AFC_legacy,2022.1.3,Win32,59.88023952,672c0491c5ac03124a6c1bd3,67e5c8c9bc10e40b86efc6fc,67e5caa4b12acb694b9993a1,,,,,,,,,,,,,,,,,,,,,,No Brainslug Difficult 2 With Money,12,images/assets/snowy_money.jpg,learning,20,images/assets/success_money.jpg,images/assets/gameover.jpg,,,,,,,,,,,,,0,3,3,7,1,,,,,,,,,,,,,,,,,,,,,,,,,,,,,,,,
,,,,,,,,,,,,672c0491c5ac03124a6c1bd3,001,3,2025-03-27_18h15.06.323,avatar_quest_3AFC_legacy,2022.1.3,Win32,59.88023952,672c0491c5ac03124a6c1bd3,67e5c8c9bc10e40b86efc6fc,67e5caa4b12acb694b9993a1,,,,,,,,,,,,,,,,,,,,,,No Brainslug Difficult 2 No Money,12,images/assets/snowy_original.jpg,learning,20,images/assets/success.jpg,images/assets/gameover.jpg,,,,,,,,,,,,,0,4,4,8,1,,,,,,,,,,,,,,,,,,,,,,,,,,,,,,,,
,,,,,,,,,,,,672c0491c5ac03124a6c1bd3,001,3,2025-03-27_18h15.06.323,avatar_quest_3AFC_legacy,2022.1.3,Win32,59.88023952,672c0491c5ac03124a6c1bd3,67e5c8c9bc10e40b86efc6fc,67e5caa4b12acb694b9993a1,,,,,,,,,,,,,,,,,,,,,,With Brainslug Difficult 2 No Money,12,images/assets/snowy_original.jpg,learning,20,images/assets/success.jpg,images/assets/gameover.jpg,,,,,,,,,,,,,0,5,5,3,1,,,,,,,,,,,,,,,,,,,,,,,,,,,,,,,,
,,,,,,,,,,,,672c0491c5ac03124a6c1bd3,001,3,2025-03-27_18h15.06.323,avatar_quest_3AFC_legacy,2022.1.3,Win32,59.88023952,672c0491c5ac03124a6c1bd3,67e5c8c9bc10e40b86efc6fc,67e5caa4b12acb694b9993a1,,,,,,,,,,,,,,,,,,,,,,No Brainslug No Barriers With Money,0,images/assets/snowy_money.jpg,learning,10,images/assets/success_money.jpg,images/assets/gameover.jpg,,,,,,,,,,,,,0,6,6,9,1,,,,,,,,,,,,,,,,,,,,,,,,,,,,,,,,
,,,,,,,,,,,,672c0491c5ac03124a6c1bd3,001,3,2025-03-27_18h15.06.323,avatar_quest_3AFC_legacy,2022.1.3,Win32,59.88023952,672c0491c5ac03124a6c1bd3,67e5c8c9bc10e40b86efc6fc,67e5caa4b12acb694b9993a1,,,,,,,,,,,,,,,,,,,,,,With Brainslug Difficult 1 No Money,6,images/assets/snowy_original.jpg,learning,20,images/assets/success.jpg,images/assets/gameover.jpg,,,,,,,,,,,,,0,7,7,1,1,,,,,,,,,,,,,,,,,,,,,,,,,,,,,,,,
,,,,,,,,,,,,672c0491c5ac03124a6c1bd3,001,3,2025-03-27_18h15.06.323,avatar_quest_3AFC_legacy,2022.1.3,Win32,59.88023952,672c0491c5ac03124a6c1bd3,67e5c8c9bc10e40b86efc6fc,67e5caa4b12acb694b9993a1,,,,,,,,,,,,,,,,,,,,,,No Brainslug Difficult 1 No Money,6,images/assets/snowy_original.jpg,learning,20,images/assets/success.jpg,images/assets/gameover.jpg,,,,,,,,,,,,,0,8,8,6,1,,,,,,,,,,,,,,,,,,,,,,,,,,,,,,,,
,,,,,,,,,,,,672c0491c5ac03124a6c1bd3,001,3,2025-03-27_18h15.06.323,avatar_quest_3AFC_legacy,2022.1.3,Win32,59.88023952,672c0491c5ac03124a6c1bd3,67e5c8c9bc10e40b86efc6fc,67e5caa4b12acb694b9993a1,,,,,,,,,,,,,,,,,,,,,,With Brainslug Difficult 1 With Money,6,images/assets/snowy_money.jpg,learning,20,images/assets/success_money.jpg,images/assets/gameover.jpg,,,,,,,,,,,,,0,9,9,0,1,,,,,,,,,,,,,,,,,,,,,,,,,,,,,,,,
,,,,,,,,,,,,672c0491c5ac03124a6c1bd3,001,3,2025-03-27_18h15.06.323,avatar_quest_3AFC_legacy,2022.1.3,Win32,59.88023952,672c0491c5ac03124a6c1bd3,67e5c8c9bc10e40b86efc6fc,67e5caa4b12acb694b9993a1,,,,,,,,,,,,,,,,,,,,,,No Brainslug No Barriers No Money,0,images/assets/snowy_original.jpg,learning,10,images/assets/success.jpg,images/assets/gameover.jpg,,,,,,,,,,,,,0,10,10,10,1,,,,,,,,,,,,,,,,,,,,,,,,,,,,,,,,
,,,,,,,,,,,,672c0491c5ac03124a6c1bd3,001,3,2025-03-27_18h15.06.323,avatar_quest_3AFC_legacy,2022.1.3,Win32,59.88023952,672c0491c5ac03124a6c1bd3,67e5c8c9bc10e40b86efc6fc,67e5caa4b12acb694b9993a1,,,,,,,,,,,,,,,,,,,,,,,,,,,,,,,,,,,,,,,,,,,,,,,,,,,,,,,0,0,0,0,1,,,,,,,,,,,,,,,,,,
,,,,,,,,,,,,672c0491c5ac03124a6c1bd3,001,3,2025-03-27_18h15.06.323,avatar_quest_3AFC_legacy,2022.1.3,Win32,59.88023952,672c0491c5ac03124a6c1bd3,67e5c8c9bc10e40b86efc6fc,67e5caa4b12acb694b9993a1,,,,,,,,,,,,,,,,,,,,,,With Brainslug Difficult 1 With Money,6,images/assets/snowy_money.jpg,learning,20,images/assets/success_money.jpg,images/assets/gameover.jpg,,,,,,,,With Brainslug Difficult 2 With Money,With Brainslug Difficult 1 No Money,right,3.4214,"[""With Brainslug Difficult 1 No Money"",""With Brainslug Difficult 2 No Money""]",0,0,0,0,1,,,,,,,,,,,,,,,,,,,,,,,,,,,,,,,,
,,,,,,,,,,,,672c0491c5ac03124a6c1bd3,001,3,2025-03-27_18h15.06.323,avatar_quest_3AFC_legacy,2022.1.3,Win32,59.88023952,672c0491c5ac03124a6c1bd3,67e5c8c9bc10e40b86efc6fc,67e5caa4b12acb694b9993a1,,,,,,,,,,,,,,,,,,,,,,With Brainslug No Barriers No Money,0,images/assets/snowy_original.jpg,learning,10,images/assets/success.jpg,images/assets/gameover.jpg,,,,,,,,,,,,,0,1,1,5,1,,,,,,,,,,,,,,,,,,,,,,,,,,,,,,,,
,,,,,,,,,,,,672c0491c5ac03124a6c1bd3,001,3,2025-03-27_18h15.06.323,avatar_quest_3AFC_legacy,2022.1.3,Win32,59.88023952,672c0491c5ac03124a6c1bd3,67e5c8c9bc10e40b86efc6fc,67e5caa4b12acb694b9993a1,,,,,,,,,,,,,,,,,,,,,,No Brainslug Difficult 2 With Money,12,images/assets/snowy_money.jpg,learning,20,images/assets/success_money.jpg,images/assets/gameover.jpg,,,,,,,,,,,,,0,2,2,7,1,,,,,,,,,,,,,,,,,,,,,,,,,,,,,,,,
,,,,,,,,,,,,672c0491c5ac03124a6c1bd3,001,3,2025-03-27_18h15.06.323,avatar_quest_3AFC_legacy,2022.1.3,Win32,59.88023952,672c0491c5ac03124a6c1bd3,67e5c8c9bc10e40b86efc6fc,67e5caa4b12acb694b9993a1,,,,,,,,,,,,,,,,,,,,,,No Brainslug No Barriers With Money,0,images/assets/snowy_money.jpg,learning,10,images/assets/success_money.jpg,images/assets/gameover.jpg,,,,,,,,,,,,,0,3,3,9,1,,,,,,,,,,,,,,,,,,,,,,,,,,,,,,,,
,,,,,,,,,,,,672c0491c5ac03124a6c1bd3,001,3,2025-03-27_18h15.06.323,avatar_quest_3AFC_legacy,2022.1.3,Win32,59.88023952,672c0491c5ac03124a6c1bd3,67e5c8c9bc10e40b86efc6fc,67e5caa4b12acb694b9993a1,,,,,,,,,,,,,,,,,,,,,,No Brainslug Difficult 2 No Money,12,images/assets/snowy_original.jpg,learning,20,images/assets/success.jpg,images/assets/gameover.jpg,,,,,,,,,,,,,0,4,4,8,1,,,,,,,,,,,,,,,,,,,,,,,,,,,,,,,,
,,,,,,,,,,,,672c0491c5ac03124a6c1bd3,001,3,2025-03-27_18h15.06.323,avatar_quest_3AFC_legacy,2022.1.3,Win32,59.88023952,672c0491c5ac03124a6c1bd3,67e5c8c9bc10e40b86efc6fc,67e5caa4b12acb694b9993a1,,,,,,,,,,,,,,,,,,,,,,No Brainslug Difficult 1 No Money,6,images/assets/snowy_original.jpg,learning,20,images/assets/success.jpg,images/assets/gameover.jpg,,,,,,,,,,,,,0,5,5,6,1,,,,,,,,,,,,,,,,,,,,,,,,,,,,,,,,
,,,,,,,,,,,,672c0491c5ac03124a6c1bd3,001,3,2025-03-27_18h15.06.323,avatar_quest_3AFC_legacy,2022.1.3,Win32,59.88023952,672c0491c5ac03124a6c1bd3,67e5c8c9bc10e40b86efc6fc,67e5caa4b12acb694b9993a1,"[""left"",""left"",""left"",""right"",""right"",""up"",""up"",""up"",""left"",""right"",""right"",""left"",""left"",""left"",""right"",""right"",""left"",""left"",""left"",""left"",""right"",""right"",""right"",""right"",""right"",""right"",""left"",""right"",""right"",""right"",""right"",""left"",""right"",""right"",""right"",""right"",""right"",""left"",""left"",""left"",""left"",""left"",""left"",""right"",""right""]","[0.32579999995232356,0.47019999992846806,0.6312999999523186,0.96160000002385,1.1639999999999873,1.3448999999761497,1.5551000000238275,1.7171999999284822,1.8192999999523067,2.180499999999995,2.386600000023833,2.608000000000004,2.777100000023836,2.933100000023842,3.2524999999999977,3.430399999976146,3.5911999999284774,3.7581000000238305,3.9431999999284812,4.073799999952314,4.292000000000002,4.430799999952313,4.597000000000008,4.757299999952323,4.917000000000002,5.064299999952311,5.336500000000001,5.737799999952301,5.985899999976141,6.133799999952316,6.304399999976141,6.371299999952299,6.514100000023831,6.66129999995232,6.803699999928483,7.013699999928463,7.180600000023844,7.382199999928474,7.532899999976166,7.904600000023834,8.03819999992848,8.243100000023844,8.446600000023835,8.587799999952324,8.758799999952316]",,calibration,With Brainslug Difficult 2 With Money,5,10.6114,8.8657,19,9,0,TRUE,na,na,na,na,,,,,,,,,,,,,,,,,,,,,,,,,,,,,,,,,,0,0,0,0,1,,,,,,,,,,,,,,,,,,,,,,,
,,,,,,,,,,,,672c0491c5ac03124a6c1bd3,001,3,2025-03-27_18h15.06.323,avatar_quest_3AFC_legacy,2022.1.3,Win32,59.88023952,672c0491c5ac03124a6c1bd3,67e5c8c9bc10e40b86efc6fc,67e5caa4b12acb694b9993a1,,,,,,,,,,,,,,,,,,,,,,With Brainslug Difficult 2 With Money,12,images/assets/snowy_money.jpg,learning,20,images/assets/success_money.jpg,images/assets/gameover.jpg,,,,,,,,,,,,,0,6,6,2,1,,,,,,,,,,,,,,,,,,,,,,,,,,,,,,,,
,,,,,,,,,,,,672c0491c5ac03124a6c1bd3,001,3,2025-03-27_18h15.06.323,avatar_quest_3AFC_legacy,2022.1.3,Win32,59.88023952,672c0491c5ac03124a6c1bd3,67e5c8c9bc10e40b86efc6fc,67e5caa4b12acb694b9993a1,,,,,,,,,,,,,,,,,,,,,,With Brainslug Difficult 1 No Money,6,images/assets/snowy_original.jpg,learning,20,images/assets/success.jpg,images/assets/gameover.jpg,,,,,,,,,,,,,0,7,7,1,1,,,,,,,,,,,,,,,,,,,,,,,,,,,,,,,,
,,,,,,,,,,,,672c0491c5ac03124a6c1bd3,001,3,2025-03-27_18h15.06.323,avatar_quest_3AFC_legacy,2022.1.3,Win32,59.88023952,672c0491c5ac03124a6c1bd3,67e5c8c9bc10e40b86efc6fc,67e5caa4b12acb694b9993a1,,,,,,,,,,,,,,,,,,,,,,With Brainslug Difficult 2 No Money,12,images/assets/snowy_original.jpg,learning,20,images/assets/success.jpg,images/assets/gameover.jpg,,,,,,,,,,,,,0,8,8,3,1,,,,,,,,,,,,,,,,,,,,,,,,,,,,,,,,
,,,,,,,,,,,,672c0491c5ac03124a6c1bd3,001,3,2025-03-27_18h15.06.323,avatar_quest_3AFC_legacy,2022.1.3,Win32,59.88023952,672c0491c5ac03124a6c1bd3,67e5c8c9bc10e40b86efc6fc,67e5caa4b12acb694b9993a1,,,,,,,,,,,,,,,,,,,,,,With Brainslug No Barriers With Money,0,images/assets/snowy_money.jpg,learning,10,images/assets/success_money.jpg,images/assets/gameover.jpg,,,,,,,,,,,,,0,9,9,4,1,,,,,,,,,,,,,,,,,,,,,,,,,,,,,,,,
,,,,,,,,,,,,672c0491c5ac03124a6c1bd3,001,3,2025-03-27_18h15.06.323,avatar_quest_3AFC_legacy,2022.1.3,Win32,59.88023952,672c0491c5ac03124a6c1bd3,67e5c8c9bc10e40b86efc6fc,67e5caa4b12acb694b9993a1,,,,,,,,,,,,,,,,,,,,,,No Brainslug No Barriers No Money,0,images/assets/snowy_original.jpg,learning,10,images/assets/success.jpg,images/assets/gameover.jpg,,,,,,,,,,,,,0,10,10,10,1,,,,,,,,,,,,,,,,,,,,,,,,,,,,,,,,
,,,,,,,,,,,,672c0491c5ac03124a6c1bd3,001,3,2025-03-27_18h15.06.323,avatar_quest_3AFC_legacy,2022.1.3,Win32,59.88023952,672c0491c5ac03124a6c1bd3,67e5c8c9bc10e40b86efc6fc,67e5caa4b12acb694b9993a1,,,,,,,,,,,,,,,,,,,,,,,,,,,,,,,,,,,,,,,,,,,,,,,,,,,,,,,1,0,1,0,1,,,,,,,,,,,,,,,,,,
,,,,,,,,,,,,672c0491c5ac03124a6c1bd3,001,3,2025-03-27_18h15.06.323,avatar_quest_3AFC_legacy,2022.1.3,Win32,59.88023952,672c0491c5ac03124a6c1bd3,67e5c8c9bc10e40b86efc6fc,67e5caa4b12acb694b9993a1,"[""right"",""left"",""left"",""left"",""left"",""right"",""right"",""right"",""left"",""right"",""right"",""right"",""right"",""right"",""left"",""left"",""left"",""right"",""right"",""left"",""left"",""left"",""right"",""right"",""right"",""left"",""left"",""right"",""right"",""right"",""left"",""left"",""left"",""left"",""left"",""right"",""right"",""right"",""left"",""left"",""left"",""left"",""left"",""right"",""right"",""right"",""right"",""right"",""right"",""right"",""right"",""right""]","[0.3670999999046387,0.8560999999046146,1.0542999999523204,1.2141999999284678,1.3860999999046157,1.73989999997616,1.9295999999046387,2.1027999999523104,2.390999999999991,2.875499999999988,3.117599999904627,3.269899999976161,3.4041999999284656,3.557799999952323,3.7761999999284797,3.927899999976148,4.079499999999996,4.447899999976158,4.603499999999997,4.882699999928462,5.059199999928467,5.281199999928475,5.403899999976147,5.577199999928467,5.729699999928471,5.896199999928456,6.063799999952323,6.254399999976158,6.414599999904624,6.733799999952311,6.879099999904639,7.036899999976157,7.2037999999523095,7.389999999999986,7.655099999904621,7.756799999952307,8.07879999995231,8.226599999904636,8.365899999976165,8.51389999997616,8.664599999904624,8.812199999928481,8.964299999952317,9.220399999976166,9.374399999976163,9.535699999928482,9.690299999952316,9.850599999904631,9.997199999928455,10.148899999976152,10.295199999928457,10.450799999952324]",,calibration,With Brainslug Difficult 2 With Money,6,10.6114,10.615,24,9,0,FALSE,na,na,na,na,,,,,,,,,,,,,,,,,,,,With Brainslug Difficult 2 With Money,With Brainslug Difficult 1 No Money,right,2.3514,"[""With Brainslug Difficult 1 No Money"",""With Brainslug Difficult 2 No Money""]",,,,,,,,,,0,0,0,0,1,,,,,,,,,,,,,,,,,,,,,,,
,,,,,,,,,,,,672c0491c5ac03124a6c1bd3,001,3,2025-03-27_18h15.06.323,avatar_quest_3AFC_legacy,2022.1.3,Win32,59.88023952,672c0491c5ac03124a6c1bd3,67e5c8c9bc10e40b86efc6fc,67e5caa4b12acb694b9993a1,,,,,,,,,,,,,,,,,,,,,,With Brainslug Difficult 2 With Money,12,images/assets/snowy_money.jpg,learning,20,images/assets/success_money.jpg,images/assets/gameover.jpg,,,,,,,,,,,,,0,0,0,2,1,,,,,,,,,,,,,,,,,,,,,,,,,,,,,,,,
,,,,,,,,,,,,672c0491c5ac03124a6c1bd3,001,3,2025-03-27_18h15.06.323,avatar_quest_3AFC_legacy,2022.1.3,Win32,59.88023952,672c0491c5ac03124a6c1bd3,67e5c8c9bc10e40b86efc6fc,67e5caa4b12acb694b9993a1,,,,,,,,,,,,,,,,,,,,,,No Brainslug Difficult 2 No Money,12,images/assets/snowy_original.jpg,learning,20,images/assets/success.jpg,images/assets/gameover.jpg,,,,,,,,,,,,,0,1,1,8,1,,,,,,,,,,,,,,,,,,,,,,,,,,,,,,,,
,,,,,,,,,,,,672c0491c5ac03124a6c1bd3,001,3,2025-03-27_18h15.06.323,avatar_quest_3AFC_legacy,2022.1.3,Win32,59.88023952,672c0491c5ac03124a6c1bd3,67e5c8c9bc10e40b86efc6fc,67e5caa4b12acb694b9993a1,,,,,,,,,,,,,,,,,,,,,,No Brainslug Difficult 2 With Money,12,images/assets/snowy_money.jpg,learning,20,images/assets/success_money.jpg,images/assets/gameover.jpg,,,,,,,,,,,,,0,2,2,7,1,,,,,,,,,,,,,,,,,,,,,,,,,,,,,,,,
,,,,,,,,,,,,672c0491c5ac03124a6c1bd3,001,3,2025-03-27_18h15.06.323,avatar_quest_3AFC_legacy,2022.1.3,Win32,59.88023952,672c0491c5ac03124a6c1bd3,67e5c8c9bc10e40b86efc6fc,67e5caa4b12acb694b9993a1,,,,,,,,,,,,,,,,,,,,,,With Brainslug No Barriers With Money,0,images/assets/snowy_money.jpg,learning,10,images/assets/success_money.jpg,images/assets/gameover.jpg,,,,,,,,,,,,,0,3,3,4,1,,,,,,,,,,,,,,,,,,,,,,,,,,,,,,,,
,,,,,,,,,,,,672c0491c5ac03124a6c1bd3,001,3,2025-03-27_18h15.06.323,avatar_quest_3AFC_legacy,2022.1.3,Win32,59.88023952,672c0491c5ac03124a6c1bd3,67e5c8c9bc10e40b86efc6fc,67e5caa4b12acb694b9993a1,,,,,,,,,,,,,,,,,,,,,,With Brainslug Difficult 2 No Money,12,images/assets/snowy_original.jpg,learning,20,images/assets/success.jpg,images/assets/gameover.jpg,,,,,,,,,,,,,0,4,4,3,1,,,,,,,,,,,,,,,,,,,,,,,,,,,,,,,,
,,,,,,,,,,,,672c0491c5ac03124a6c1bd3,001,3,2025-03-27_18h15.06.323,avatar_quest_3AFC_legacy,2022.1.3,Win32,59.88023952,672c0491c5ac03124a6c1bd3,67e5c8c9bc10e40b86efc6fc,67e5caa4b12acb694b9993a1,,,,,,,,,,,,,,,,,,,,,,No Brainslug No Barriers No Money,0,images/assets/snowy_original.jpg,learning,10,images/assets/success.jpg,images/assets/gameover.jpg,,,,,,,,,,,,,0,5,5,10,1,,,,,,,,,,,,,,,,,,,,,,,,,,,,,,,,
,,,,,,,,,,,,672c0491c5ac03124a6c1bd3,001,3,2025-03-27_18h15.06.323,avatar_quest_3AFC_legacy,2022.1.3,Win32,59.88023952,672c0491c5ac03124a6c1bd3,67e5c8c9bc10e40b86efc6fc,67e5caa4b12acb694b9993a1,,,,,,,,,,,,,,,,,,,,,,With Brainslug Difficult 1 With Money,6,images/assets/snowy_money.jpg,learning,20,images/assets/success_money.jpg,images/assets/gameover.jpg,,,,,,,,,,,,,0,6,6,0,1,,,,,,,,,,,,,,,,,,,,,,,,,,,,,,,,
,,,,,,,,,,,,672c0491c5ac03124a6c1bd3,001,3,2025-03-27_18h15.06.323,avatar_quest_3AFC_legacy,2022.1.3,Win32,59.88023952,672c0491c5ac03124a6c1bd3,67e5c8c9bc10e40b86efc6fc,67e5caa4b12acb694b9993a1,,,,,,,,,,,,,,,,,,,,,,No Brainslug Difficult 1 No Money,6,images/assets/snowy_original.jpg,learning,20,images/assets/success.jpg,images/assets/gameover.jpg,,,,,,,,,,,,,0,7,7,6,1,,,,,,,,,,,,,,,,,,,,,,,,,,,,,,,,
,,,,,,,,,,,,672c0491c5ac03124a6c1bd3,001,3,2025-03-27_18h15.06.323,avatar_quest_3AFC_legacy,2022.1.3,Win32,59.88023952,672c0491c5ac03124a6c1bd3,67e5c8c9bc10e40b86efc6fc,67e5caa4b12acb694b9993a1,,,,,,,,,,,,,,,,,,,,,,With Brainslug Difficult 1 No Money,6,images/assets/snowy_original.jpg,learning,20,images/assets/success.jpg,images/assets/gameover.jpg,,,,,,,,,,,,,0,8,8,1,1,,,,,,,,,,,,,,,,,,,,,,,,,,,,,,,,
,,,,,,,,,,,,672c0491c5ac03124a6c1bd3,001,3,2025-03-27_18h15.06.323,avatar_quest_3AFC_legacy,2022.1.3,Win32,59.88023952,672c0491c5ac03124a6c1bd3,67e5c8c9bc10e40b86efc6fc,67e5caa4b12acb694b9993a1,,,,,,,,,,,,,,,,,,,,,,No Brainslug No Barriers With Money,0,images/assets/snowy_money.jpg,learning,10,images/assets/success_money.jpg,images/assets/gameover.jpg,,,,,,,,,,,,,0,9,9,9,1,,,,,,,,,,,,,,,,,,,,,,,,,,,,,,,,
,,,,,,,,,,,,672c0491c5ac03124a6c1bd3,001,3,2025-03-27_18h15.06.323,avatar_quest_3AFC_legacy,2022.1.3,Win32,59.88023952,672c0491c5ac03124a6c1bd3,67e5c8c9bc10e40b86efc6fc,67e5caa4b12acb694b9993a1,,,,,,,,,,,,,,,,,,,,,,With Brainslug No Barriers No Money,0,images/assets/snowy_original.jpg,learning,10,images/assets/success.jpg,images/assets/gameover.jpg,,,,,,,,,,,,,0,10,10,5,1,,,,,,,,,,,,,,,,,,,,,,,,,,,,,,,,
,,,,,,,,,,,,672c0491c5ac03124a6c1bd3,001,3,2025-03-27_18h15.06.323,avatar_quest_3AFC_legacy,2022.1.3,Win32,59.88023952,672c0491c5ac03124a6c1bd3,67e5c8c9bc10e40b86efc6fc,67e5caa4b12acb694b9993a1,,,,,,,,,,,,,,,,,,,,,,,,,,,,,,,,,,,,,,,,,,,,,,,,,,,,,,,2,0,2,0,1,,,,,,,,,,,,,,,,,,
,,,,,,,,,,,,672c0491c5ac03124a6c1bd3,001,3,2025-03-27_18h15.06.323,avatar_quest_3AFC_legacy,2022.1.3,Win32,59.88023952,672c0491c5ac03124a6c1bd3,67e5c8c9bc10e40b86efc6fc,67e5caa4b12acb694b9993a1,,,,,,,,,,,,,,,,,,,,,,No Brainslug No Barriers With Money,0,images/assets/snowy_money.jpg,learning,10,images/assets/success_money.jpg,images/assets/gameover.jpg,,,,,,,,With Brainslug Difficult 2 With Money,With Brainslug Difficult 1 No Money,right,0.717,"[""With Brainslug Difficult 1 No Money"",""With Brainslug Difficult 2 No Money""]",0,0,0,9,1,,,,,,,,,,,,,,,,,,,,,,,,,,,,,,,,
,,,,,,,,,,,,672c0491c5ac03124a6c1bd3,001,3,2025-03-27_18h15.06.323,avatar_quest_3AFC_legacy,2022.1.3,Win32,59.88023952,672c0491c5ac03124a6c1bd3,67e5c8c9bc10e40b86efc6fc,67e5caa4b12acb694b9993a1,,,,,,,,,,,,,,,,,,,,,,With Brainslug No Barriers With Money,0,images/assets/snowy_money.jpg,learning,10,images/assets/success_money.jpg,images/assets/gameover.jpg,,,,,,,,,,,,,0,1,1,4,1,,,,,,,,,,,,,,,,,,,,,,,,,,,,,,,,
,,,,,,,,,,,,672c0491c5ac03124a6c1bd3,001,3,2025-03-27_18h15.06.323,avatar_quest_3AFC_legacy,2022.1.3,Win32,59.88023952,672c0491c5ac03124a6c1bd3,67e5c8c9bc10e40b86efc6fc,67e5caa4b12acb694b9993a1,,,,,,,,,,,,,,,,,,,,,,No Brainslug No Barriers No Money,0,images/assets/snowy_original.jpg,learning,10,images/assets/success.jpg,images/assets/gameover.jpg,,,,,,,,,,,,,0,2,2,10,1,,,,,,,,,,,,,,,,,,,,,,,,,,,,,,,,
,,,,,,,,,,,,672c0491c5ac03124a6c1bd3,001,3,2025-03-27_18h15.06.323,avatar_quest_3AFC_legacy,2022.1.3,Win32,59.88023952,672c0491c5ac03124a6c1bd3,67e5c8c9bc10e40b86efc6fc,67e5caa4b12acb694b9993a1,"[""left"",""left"",""left"",""left"",""left"",""left"",""right"",""right"",""left"",""right"",""left"",""right"",""right"",""left"",""left"",""left"",""left"",""left"",""right"",""left"",""left"",""left"",""right"",""right"",""right"",""right"",""right"",""right"",""left"",""left"",""left"",""right"",""right"",""right"",""right""]","[0.48050000000000637,0.6401000000238355,0.8284000000953711,0.9777000000476903,1.1241000000238444,1.2924999999999898,1.4367000000476935,1.8035000000000139,1.9993000000715142,2.059800000071533,2.169000000000011,2.201999999999998,2.439200000047691,2.839900000095355,3.004300000071538,3.164800000071523,3.3534000000953768,3.6702000000476858,3.9814000000953627,4.149700000047687,4.347100000023829,4.54020000004769,4.7379000000953795,4.901999999999987,5.343900000095374,5.837900000095374,5.992800000071526,6.156700000047692,6.486999999999995,6.686400000095375,6.841499999999996,7.226400000095367,7.392300000071515,7.602000000000004,7.88690000009538]",,calibration,With Brainslug Difficult 2 With Money,7,10.6114,8.266,12,6,0,TRUE,na,na,na,na,,,,,,,,,,,,,,,,,,,,,,,,,,,,,,,,,,0,0,0,0,1,,,,,,,,,,,,,,,,,,,,,,,
,,,,,,,,,,,,672c0491c5ac03124a6c1bd3,001,3,2025-03-27_18h15.06.323,avatar_quest_3AFC_legacy,2022.1.3,Win32,59.88023952,672c0491c5ac03124a6c1bd3,67e5c8c9bc10e40b86efc6fc,67e5caa4b12acb694b9993a1,,,,,,,,,,,,,,,,,,,,,,With Brainslug Difficult 2 With Money,12,images/assets/snowy_money.jpg,learning,20,images/assets/success_money.jpg,images/assets/gameover.jpg,,,,,,,,,,,,,0,3,3,2,1,,,,,,,,,,,,,,,,,,,,,,,,,,,,,,,,
,,,,,,,,,,,,672c0491c5ac03124a6c1bd3,001,3,2025-03-27_18h15.06.323,avatar_quest_3AFC_legacy,2022.1.3,Win32,59.88023952,672c0491c5ac03124a6c1bd3,67e5c8c9bc10e40b86efc6fc,67e5caa4b12acb694b9993a1,,,,,,,,,,,,,,,,,,,,,,With Brainslug Difficult 1 No Money,6,images/assets/snowy_original.jpg,learning,20,images/assets/success.jpg,images/assets/gameover.jpg,,,,,,,,,,,,,0,4,4,1,1,,,,,,,,,,,,,,,,,,,,,,,,,,,,,,,,
,,,,,,,,,,,,672c0491c5ac03124a6c1bd3,001,3,2025-03-27_18h15.06.323,avatar_quest_3AFC_legacy,2022.1.3,Win32,59.88023952,672c0491c5ac03124a6c1bd3,67e5c8c9bc10e40b86efc6fc,67e5caa4b12acb694b9993a1,,,,,,,,,,,,,,,,,,,,,,With Brainslug Difficult 1 With Money,6,images/assets/snowy_money.jpg,learning,20,images/assets/success_money.jpg,images/assets/gameover.jpg,,,,,,,,,,,,,0,5,5,0,1,,,,,,,,,,,,,,,,,,,,,,,,,,,,,,,,
,,,,,,,,,,,,672c0491c5ac03124a6c1bd3,001,3,2025-03-27_18h15.06.323,avatar_quest_3AFC_legacy,2022.1.3,Win32,59.88023952,672c0491c5ac03124a6c1bd3,67e5c8c9bc10e40b86efc6fc,67e5caa4b12acb694b9993a1,,,,,,,,,,,,,,,,,,,,,,No Brainslug Difficult 2 No Money,12,images/assets/snowy_original.jpg,learning,20,images/assets/success.jpg,images/assets/gameover.jpg,,,,,,,,,,,,,0,6,6,8,1,,,,,,,,,,,,,,,,,,,,,,,,,,,,,,,,
,,,,,,,,,,,,672c0491c5ac03124a6c1bd3,001,3,2025-03-27_18h15.06.323,avatar_quest_3AFC_legacy,2022.1.3,Win32,59.88023952,672c0491c5ac03124a6c1bd3,67e5c8c9bc10e40b86efc6fc,67e5caa4b12acb694b9993a1,,,,,,,,,,,,,,,,,,,,,,With Brainslug No Barriers No Money,0,images/assets/snowy_original.jpg,learning,10,images/assets/success.jpg,images/assets/gameover.jpg,,,,,,,,,,,,,0,7,7,5,1,,,,,,,,,,,,,,,,,,,,,,,,,,,,,,,,
,,,,,,,,,,,,672c0491c5ac03124a6c1bd3,001,3,2025-03-27_18h15.06.323,avatar_quest_3AFC_legacy,2022.1.3,Win32,59.88023952,672c0491c5ac03124a6c1bd3,67e5c8c9bc10e40b86efc6fc,67e5caa4b12acb694b9993a1,,,,,,,,,,,,,,,,,,,,,,With Brainslug Difficult 2 No Money,12,images/assets/snowy_original.jpg,learning,20,images/assets/success.jpg,images/assets/gameover.jpg,,,,,,,,,,,,,0,8,8,3,1,,,,,,,,,,,,,,,,,,,,,,,,,,,,,,,,
,,,,,,,,,,,,672c0491c5ac03124a6c1bd3,001,3,2025-03-27_18h15.06.323,avatar_quest_3AFC_legacy,2022.1.3,Win32,59.88023952,672c0491c5ac03124a6c1bd3,67e5c8c9bc10e40b86efc6fc,67e5caa4b12acb694b9993a1,,,,,,,,,,,,,,,,,,,,,,No Brainslug Difficult 1 No Money,6,images/assets/snowy_original.jpg,learning,20,images/assets/success.jpg,images/assets/gameover.jpg,,,,,,,,,,,,,0,9,9,6,1,,,,,,,,,,,,,,,,,,,,,,,,,,,,,,,,
,,,,,,,,,,,,672c0491c5ac03124a6c1bd3,001,3,2025-03-27_18h15.06.323,avatar_quest_3AFC_legacy,2022.1.3,Win32,59.88023952,672c0491c5ac03124a6c1bd3,67e5c8c9bc10e40b86efc6fc,67e5caa4b12acb694b9993a1,,,,,,,,,,,,,,,,,,,,,,No Brainslug Difficult 2 With Money,12,images/assets/snowy_money.jpg,learning,20,images/assets/success_money.jpg,images/assets/gameover.jpg,,,,,,,,,,,,,0,10,10,7,1,,,,,,,,,,,,,,,,,,,,,,,,,,,,,,,,
,,,,,,,,,,,,672c0491c5ac03124a6c1bd3,001,3,2025-03-27_18h15.06.323,avatar_quest_3AFC_legacy,2022.1.3,Win32,59.88023952,672c0491c5ac03124a6c1bd3,67e5c8c9bc10e40b86efc6fc,67e5caa4b12acb694b9993a1,,,,,,,,,,,,,,,,,,,,,,,,,,,,,,,,,,,,,,,,,,,,,,,,,,,,,,,3,0,3,0,1,,,,,,,,,,,,,,,,,,
,,,,,,,,,,,,672c0491c5ac03124a6c1bd3,001,3,2025-03-27_18h15.06.323,avatar_quest_3AFC_legacy,2022.1.3,Win32,59.88023952,672c0491c5ac03124a6c1bd3,67e5c8c9bc10e40b86efc6fc,67e5caa4b12acb694b9993a1,,,,,,,,,,,,,,,,,,,,,,With Brainslug No Barriers No Money,0,images/assets/snowy_original.jpg,learning,10,images/assets/success.jpg,images/assets/gameover.jpg,,,,,,,,With Brainslug Difficult 2 With Money,With Brainslug Difficult 1 No Money,right,1.4753,"[""With Brainslug Difficult 1 No Money"",""With Brainslug Difficult 2 No Money""]",0,0,0,5,1,,,,,,,,,,,,,,,,,,,,,,,,,,,,,,,,
,,,,,,,,,,,,672c0491c5ac03124a6c1bd3,001,3,2025-03-27_18h15.06.323,avatar_quest_3AFC_legacy,2022.1.3,Win32,59.88023952,672c0491c5ac03124a6c1bd3,67e5c8c9bc10e40b86efc6fc,67e5caa4b12acb694b9993a1,,,,,,,,,,,,,,,,,,,,,,No Brainslug No Barriers No Money,0,images/assets/snowy_original.jpg,learning,10,images/assets/success.jpg,images/assets/gameover.jpg,,,,,,,,,,,,,0,1,1,10,1,,,,,,,,,,,,,,,,,,,,,,,,,,,,,,,,
,,,,,,,,,,,,672c0491c5ac03124a6c1bd3,001,3,2025-03-27_18h15.06.323,avatar_quest_3AFC_legacy,2022.1.3,Win32,59.88023952,672c0491c5ac03124a6c1bd3,67e5c8c9bc10e40b86efc6fc,67e5caa4b12acb694b9993a1,,,,,,,,,,,,,,,,,,,,,,No Brainslug Difficult 2 No Money,12,images/assets/snowy_original.jpg,learning,20,images/assets/success.jpg,images/assets/gameover.jpg,,,,,,,,,,,,,0,2,2,8,1,,,,,,,,,,,,,,,,,,,,,,,,,,,,,,,,
,,,,,,,,,,,,672c0491c5ac03124a6c1bd3,001,3,2025-03-27_18h15.06.323,avatar_quest_3AFC_legacy,2022.1.3,Win32,59.88023952,672c0491c5ac03124a6c1bd3,67e5c8c9bc10e40b86efc6fc,67e5caa4b12acb694b9993a1,,,,,,,,,,,,,,,,,,,,,,With Brainslug Difficult 1 With Money,6,images/assets/snowy_money.jpg,learning,20,images/assets/success_money.jpg,images/assets/gameover.jpg,,,,,,,,,,,,,0,3,3,0,1,,,,,,,,,,,,,,,,,,,,,,,,,,,,,,,,
,,,,,,,,,,,,672c0491c5ac03124a6c1bd3,001,3,2025-03-27_18h15.06.323,avatar_quest_3AFC_legacy,2022.1.3,Win32,59.88023952,672c0491c5ac03124a6c1bd3,67e5c8c9bc10e40b86efc6fc,67e5caa4b12acb694b9993a1,,,,,,,,,,,,,,,,,,,,,,With Brainslug Difficult 2 No Money,12,images/assets/snowy_original.jpg,learning,20,images/assets/success.jpg,images/assets/gameover.jpg,,,,,,,,,,,,,0,4,4,3,1,,,,,,,,,,,,,,,,,,,,,,,,,,,,,,,,
,,,,,,,,,,,,672c0491c5ac03124a6c1bd3,001,3,2025-03-27_18h15.06.323,avatar_quest_3AFC_legacy,2022.1.3,Win32,59.88023952,672c0491c5ac03124a6c1bd3,67e5c8c9bc10e40b86efc6fc,67e5caa4b12acb694b9993a1,"[""left"",""left"",""right"",""right"",""right"",""right"",""left"",""left"",""left"",""left"",""right"",""right"",""right"",""left"",""left"",""left"",""left"",""right"",""right"",""left"",""left"",""right"",""right"",""left"",""left"",""right"",""right"",""right"",""right"",""right"",""right"",""right""]","[0.3224999999999909,0.4984999999999786,1.0478999999761527,1.2983999999761409,1.565299999952316,1.734899999976136,1.8957999999523167,2.057199999928457,2.237600000023832,2.5006999999284574,2.710899999976135,2.9386000000238255,3.098100000023834,3.2308999999761454,3.390399999976154,3.5562999999523015,3.697999999999979,3.9924999999999784,4.17160000002383,4.494299999952318,4.677999999999997,4.847600000023846,4.997600000023823,5.48189999997615,5.65760000002382,5.836500000000001,6.15949999999998,6.32469999992847,6.4852999999523036,6.672499999999985,6.948100000023828,7.120600000023842]",,calibration,With Brainslug Difficult 2 With Money,8,10.6114,7.2323,21,8,0,TRUE,na,na,na,na,,,,,,,,,,,,,,,,,,,,,,,,,,,,,,,,,,0,0,0,0,1,,,,,,,,,,,,,,,,,,,,,,,
,,,,,,,,,,,,672c0491c5ac03124a6c1bd3,001,3,2025-03-27_18h15.06.323,avatar_quest_3AFC_legacy,2022.1.3,Win32,59.88023952,672c0491c5ac03124a6c1bd3,67e5c8c9bc10e40b86efc6fc,67e5caa4b12acb694b9993a1,,,,,,,,,,,,,,,,,,,,,,With Brainslug Difficult 2 With Money,12,images/assets/snowy_money.jpg,learning,20,images/assets/success_money.jpg,images/assets/gameover.jpg,,,,,,,,,,,,,0,5,5,2,1,,,,,,,,,,,,,,,,,,,,,,,,,,,,,,,,
,,,,,,,,,,,,672c0491c5ac03124a6c1bd3,001,3,2025-03-27_18h15.06.323,avatar_quest_3AFC_legacy,2022.1.3,Win32,59.88023952,672c0491c5ac03124a6c1bd3,67e5c8c9bc10e40b86efc6fc,67e5caa4b12acb694b9993a1,,,,,,,,,,,,,,,,,,,,,,With Brainslug Difficult 1 No Money,6,images/assets/snowy_original.jpg,learning,20,images/assets/success.jpg,images/assets/gameover.jpg,,,,,,,,,,,,,0,6,6,1,1,,,,,,,,,,,,,,,,,,,,,,,,,,,,,,,,
,,,,,,,,,,,,672c0491c5ac03124a6c1bd3,001,3,2025-03-27_18h15.06.323,avatar_quest_3AFC_legacy,2022.1.3,Win32,59.88023952,672c0491c5ac03124a6c1bd3,67e5c8c9bc10e40b86efc6fc,67e5caa4b12acb694b9993a1,,,,,,,,,,,,,,,,,,,,,,With Brainslug No Barriers With Money,0,images/assets/snowy_money.jpg,learning,10,images/assets/success_money.jpg,images/assets/gameover.jpg,,,,,,,,,,,,,0,7,7,4,1,,,,,,,,,,,,,,,,,,,,,,,,,,,,,,,,
,,,,,,,,,,,,672c0491c5ac03124a6c1bd3,001,3,2025-03-27_18h15.06.323,avatar_quest_3AFC_legacy,2022.1.3,Win32,59.88023952,672c0491c5ac03124a6c1bd3,67e5c8c9bc10e40b86efc6fc,67e5caa4b12acb694b9993a1,,,,,,,,,,,,,,,,,,,,,,No Brainslug Difficult 2 With Money,12,images/assets/snowy_money.jpg,learning,20,images/assets/success_money.jpg,images/assets/gameover.jpg,,,,,,,,,,,,,0,8,8,7,1,,,,,,,,,,,,,,,,,,,,,,,,,,,,,,,,
,,,,,,,,,,,,672c0491c5ac03124a6c1bd3,001,3,2025-03-27_18h15.06.323,avatar_quest_3AFC_legacy,2022.1.3,Win32,59.88023952,672c0491c5ac03124a6c1bd3,67e5c8c9bc10e40b86efc6fc,67e5caa4b12acb694b9993a1,,,,,,,,,,,,,,,,,,,,,,No Brainslug Difficult 1 No Money,6,images/assets/snowy_original.jpg,learning,20,images/assets/success.jpg,images/assets/gameover.jpg,,,,,,,,,,,,,0,9,9,6,1,,,,,,,,,,,,,,,,,,,,,,,,,,,,,,,,
,,,,,,,,,,,,672c0491c5ac03124a6c1bd3,001,3,2025-03-27_18h15.06.323,avatar_quest_3AFC_legacy,2022.1.3,Win32,59.88023952,672c0491c5ac03124a6c1bd3,67e5c8c9bc10e40b86efc6fc,67e5caa4b12acb694b9993a1,,,,,,,,,,,,,,,,,,,,,,No Brainslug No Barriers With Money,0,images/assets/snowy_money.jpg,learning,10,images/assets/success_money.jpg,images/assets/gameover.jpg,,,,,,,,,,,,,0,10,10,9,1,,,,,,,,,,,,,,,,,,,,,,,,,,,,,,,,
,,,,,,,,,,,,672c0491c5ac03124a6c1bd3,001,3,2025-03-27_18h15.06.323,avatar_quest_3AFC_legacy,2022.1.3,Win32,59.88023952,672c0491c5ac03124a6c1bd3,67e5c8c9bc10e40b86efc6fc,67e5caa4b12acb694b9993a1,,,,,,,,,,,,,,,,,,,,,,,,,,,,,,,,,,,,,,,,,,,,,,,,,,,,,,,4,0,4,0,1,,,,,,,,,,,,,,,,,,
,,,,,,,,,,,,672c0491c5ac03124a6c1bd3,001,3,2025-03-27_18h15.06.323,avatar_quest_3AFC_legacy,2022.1.3,Win32,59.88023952,672c0491c5ac03124a6c1bd3,67e5c8c9bc10e40b86efc6fc,67e5caa4b12acb694b9993a1,,,,,,,,,,,,,,,,,,,,,,No Brainslug No Barriers No Money,0,images/assets/snowy_original.jpg,learning,10,images/assets/success.jpg,images/assets/gameover.jpg,,,,,,,,With Brainslug Difficult 1 No Money,With Brainslug Difficult 1 No Money,left,1.8108,"[""With Brainslug Difficult 2 No Money"",""With Brainslug Difficult 2 With Money""]",0,0,0,10,1,,,,,,,,,,,,,,,,,,,,,,,,,,,,,,,,
,,,,,,,,,,,,672c0491c5ac03124a6c1bd3,001,3,2025-03-27_18h15.06.323,avatar_quest_3AFC_legacy,2022.1.3,Win32,59.88023952,672c0491c5ac03124a6c1bd3,67e5c8c9bc10e40b86efc6fc,67e5caa4b12acb694b9993a1,,,,,,,,,,,,,,,,,,,,,,With Brainslug No Barriers With Money,0,images/assets/snowy_money.jpg,learning,10,images/assets/success_money.jpg,images/assets/gameover.jpg,,,,,,,,,,,,,0,1,1,4,1,,,,,,,,,,,,,,,,,,,,,,,,,,,,,,,,
,,,,,,,,,,,,672c0491c5ac03124a6c1bd3,001,3,2025-03-27_18h15.06.323,avatar_quest_3AFC_legacy,2022.1.3,Win32,59.88023952,672c0491c5ac03124a6c1bd3,67e5c8c9bc10e40b86efc6fc,67e5caa4b12acb694b9993a1,,,,,,,,,,,,,,,,,,,,,,No Brainslug Difficult 2 No Money,12,images/assets/snowy_original.jpg,learning,20,images/assets/success.jpg,images/assets/gameover.jpg,,,,,,,,,,,,,0,2,2,8,1,,,,,,,,,,,,,,,,,,,,,,,,,,,,,,,,
,,,,,,,,,,,,672c0491c5ac03124a6c1bd3,001,3,2025-03-27_18h15.06.323,avatar_quest_3AFC_legacy,2022.1.3,Win32,59.88023952,672c0491c5ac03124a6c1bd3,67e5c8c9bc10e40b86efc6fc,67e5caa4b12acb694b9993a1,,,,,,,,,,,,,,,,,,,,,,With Brainslug Difficult 2 No Money,12,images/assets/snowy_original.jpg,learning,20,images/assets/success.jpg,images/assets/gameover.jpg,,,,,,,,,,,,,0,3,3,3,1,,,,,,,,,,,,,,,,,,,,,,,,,,,,,,,,
,,,,,,,,,,,,672c0491c5ac03124a6c1bd3,001,3,2025-03-27_18h15.06.323,avatar_quest_3AFC_legacy,2022.1.3,Win32,59.88023952,672c0491c5ac03124a6c1bd3,67e5c8c9bc10e40b86efc6fc,67e5caa4b12acb694b9993a1,,,,,,,,,,,,,,,,,,,,,,With Brainslug Difficult 2 With Money,12,images/assets/snowy_money.jpg,learning,20,images/assets/success_money.jpg,images/assets/gameover.jpg,,,,,,,,,,,,,0,4,4,2,1,,,,,,,,,,,,,,,,,,,,,,,,,,,,,,,,
,,,,,,,,,,,,672c0491c5ac03124a6c1bd3,001,3,2025-03-27_18h15.06.323,avatar_quest_3AFC_legacy,2022.1.3,Win32,59.88023952,672c0491c5ac03124a6c1bd3,67e5c8c9bc10e40b86efc6fc,67e5caa4b12acb694b9993a1,,,,,,,,,,,,,,,,,,,,,,With Brainslug Difficult 1 With Money,6,images/assets/snowy_money.jpg,learning,20,images/assets/success_money.jpg,images/assets/gameover.jpg,,,,,,,,,,,,,0,5,5,0,1,,,,,,,,,,,,,,,,,,,,,,,,,,,,,,,,
,,,,,,,,,,,,672c0491c5ac03124a6c1bd3,001,3,2025-03-27_18h15.06.323,avatar_quest_3AFC_legacy,2022.1.3,Win32,59.88023952,672c0491c5ac03124a6c1bd3,67e5c8c9bc10e40b86efc6fc,67e5caa4b12acb694b9993a1,,,,,,,,,,,,,,,,,,,,,,No Brainslug No Barriers With Money,0,images/assets/snowy_money.jpg,learning,10,images/assets/success_money.jpg,images/assets/gameover.jpg,,,,,,,,,,,,,0,6,6,9,1,,,,,,,,,,,,,,,,,,,,,,,,,,,,,,,,
,,,,,,,,,,,,672c0491c5ac03124a6c1bd3,001,3,2025-03-27_18h15.06.323,avatar_quest_3AFC_legacy,2022.1.3,Win32,59.88023952,672c0491c5ac03124a6c1bd3,67e5c8c9bc10e40b86efc6fc,67e5caa4b12acb694b9993a1,"[""left"",""left"",""left"",""right"",""right"",""right"",""right"",""left"",""left"",""right"",""left"",""left"",""left"",""left"",""right"",""right"",""right"",""left"",""left"",""left"",""left""]","[0.4133999999761784,0.5985000000000014,0.7596000000238519,1.3867000000476821,1.5943000000715415,2.160500000000013,2.348200000047683,2.5906000000238407,3.0088999999761654,3.2838000000715226,3.857800000071535,4.023200000047694,4.182200000047686,4.336000000000013,4.749700000047682,4.941800000071538,5.117100000023839,5.453300000071522,5.661000000000001,5.831700000047704,6.049800000071542]",,calibration,With Brainslug Difficult 1 No Money,9,10.6114,6.4819,14,3,0,TRUE,na,na,na,na,,,,,,,,,,,,,,,,,,,,,,,,,,,,,,,,,,0,0,0,0,1,,,,,,,,,,,,,,,,,,,,,,,
,,,,,,,,,,,,672c0491c5ac03124a6c1bd3,001,3,2025-03-27_18h15.06.323,avatar_quest_3AFC_legacy,2022.1.3,Win32,59.88023952,672c0491c5ac03124a6c1bd3,67e5c8c9bc10e40b86efc6fc,67e5caa4b12acb694b9993a1,,,,,,,,,,,,,,,,,,,,,,With Brainslug Difficult 1 No Money,6,images/assets/snowy_original.jpg,learning,20,images/assets/success.jpg,images/assets/gameover.jpg,,,,,,,,,,,,,0,7,7,1,1,,,,,,,,,,,,,,,,,,,,,,,,,,,,,,,,
,,,,,,,,,,,,672c0491c5ac03124a6c1bd3,001,3,2025-03-27_18h15.06.323,avatar_quest_3AFC_legacy,2022.1.3,Win32,59.88023952,672c0491c5ac03124a6c1bd3,67e5c8c9bc10e40b86efc6fc,67e5caa4b12acb694b9993a1,,,,,,,,,,,,,,,,,,,,,,No Brainslug Difficult 1 No Money,6,images/assets/snowy_original.jpg,learning,20,images/assets/success.jpg,images/assets/gameover.jpg,,,,,,,,,,,,,0,8,8,6,1,,,,,,,,,,,,,,,,,,,,,,,,,,,,,,,,
,,,,,,,,,,,,672c0491c5ac03124a6c1bd3,001,3,2025-03-27_18h15.06.323,avatar_quest_3AFC_legacy,2022.1.3,Win32,59.88023952,672c0491c5ac03124a6c1bd3,67e5c8c9bc10e40b86efc6fc,67e5caa4b12acb694b9993a1,,,,,,,,,,,,,,,,,,,,,,With Brainslug No Barriers No Money,0,images/assets/snowy_original.jpg,learning,10,images/assets/success.jpg,images/assets/gameover.jpg,,,,,,,,,,,,,0,9,9,5,1,,,,,,,,,,,,,,,,,,,,,,,,,,,,,,,,
,,,,,,,,,,,,672c0491c5ac03124a6c1bd3,001,3,2025-03-27_18h15.06.323,avatar_quest_3AFC_legacy,2022.1.3,Win32,59.88023952,672c0491c5ac03124a6c1bd3,67e5c8c9bc10e40b86efc6fc,67e5caa4b12acb694b9993a1,,,,,,,,,,,,,,,,,,,,,,No Brainslug Difficult 2 With Money,12,images/assets/snowy_money.jpg,learning,20,images/assets/success_money.jpg,images/assets/gameover.jpg,,,,,,,,,,,,,0,10,10,7,1,,,,,,,,,,,,,,,,,,,,,,,,,,,,,,,,
,,,,,,,,,,,,672c0491c5ac03124a6c1bd3,001,3,2025-03-27_18h15.06.323,avatar_quest_3AFC_legacy,2022.1.3,Win32,59.88023952,672c0491c5ac03124a6c1bd3,67e5c8c9bc10e40b86efc6fc,67e5caa4b12acb694b9993a1,,,,,,,,,,,,,,,,,,,,,,,,,,,,,,,,,,,,,,,,,,,,,,,,,,,,,,,5,0,5,0,1,,,,,,,,,,,,,,,,,,
,,,,,,,,,,,,672c0491c5ac03124a6c1bd3,001,3,2025-03-27_18h15.06.323,avatar_quest_3AFC_legacy,2022.1.3,Win32,59.88023952,672c0491c5ac03124a6c1bd3,67e5c8c9bc10e40b86efc6fc,67e5caa4b12acb694b9993a1,,,,,,,,,,,,,,,,,,,,,,With Brainslug No Barriers With Money,0,images/assets/snowy_money.jpg,learning,10,images/assets/success_money.jpg,images/assets/gameover.jpg,,,,,,,,With Brainslug Difficult 2 With Money,With Brainslug Difficult 1 No Money,right,0.9765,"[""With Brainslug Difficult 1 No Money"",""With Brainslug Difficult 2 No Money""]",0,0,0,4,1,,,,,,,,,,,,,,,,,,,,,,,,,,,,,,,,
,,,,,,,,,,,,672c0491c5ac03124a6c1bd3,001,3,2025-03-27_18h15.06.323,avatar_quest_3AFC_legacy,2022.1.3,Win32,59.88023952,672c0491c5ac03124a6c1bd3,67e5c8c9bc10e40b86efc6fc,67e5caa4b12acb694b9993a1,,,,,,,,,,,,,,,,,,,,,,With Brainslug Difficult 1 With Money,6,images/assets/snowy_money.jpg,learning,20,images/assets/success_money.jpg,images/assets/gameover.jpg,,,,,,,,,,,,,0,1,1,0,1,,,,,,,,,,,,,,,,,,,,,,,,,,,,,,,,
,,,,,,,,,,,,672c0491c5ac03124a6c1bd3,001,3,2025-03-27_18h15.06.323,avatar_quest_3AFC_legacy,2022.1.3,Win32,59.88023952,672c0491c5ac03124a6c1bd3,67e5c8c9bc10e40b86efc6fc,67e5caa4b12acb694b9993a1,,,,,,,,,,,,,,,,,,,,,,No Brainslug Difficult 2 With Money,12,images/assets/snowy_money.jpg,learning,20,images/assets/success_money.jpg,images/assets/gameover.jpg,,,,,,,,,,,,,0,2,2,7,1,,,,,,,,,,,,,,,,,,,,,,,,,,,,,,,,
,,,,,,,,,,,,672c0491c5ac03124a6c1bd3,001,3,2025-03-27_18h15.06.323,avatar_quest_3AFC_legacy,2022.1.3,Win32,59.88023952,672c0491c5ac03124a6c1bd3,67e5c8c9bc10e40b86efc6fc,67e5caa4b12acb694b9993a1,,,,,,,,,,,,,,,,,,,,,,No Brainslug Difficult 2 No Money,12,images/assets/snowy_original.jpg,learning,20,images/assets/success.jpg,images/assets/gameover.jpg,,,,,,,,,,,,,0,3,3,8,1,,,,,,,,,,,,,,,,,,,,,,,,,,,,,,,,
,,,,,,,,,,,,672c0491c5ac03124a6c1bd3,001,3,2025-03-27_18h15.06.323,avatar_quest_3AFC_legacy,2022.1.3,Win32,59.88023952,672c0491c5ac03124a6c1bd3,67e5c8c9bc10e40b86efc6fc,67e5caa4b12acb694b9993a1,,,,,,,,,,,,,,,,,,,,,,No Brainslug No Barriers With Money,0,images/assets/snowy_money.jpg,learning,10,images/assets/success_money.jpg,images/assets/gameover.jpg,,,,,,,,,,,,,0,4,4,9,1,,,,,,,,,,,,,,,,,,,,,,,,,,,,,,,,
,,,,,,,,,,,,672c0491c5ac03124a6c1bd3,001,3,2025-03-27_18h15.06.323,avatar_quest_3AFC_legacy,2022.1.3,Win32,59.88023952,672c0491c5ac03124a6c1bd3,67e5c8c9bc10e40b86efc6fc,67e5caa4b12acb694b9993a1,,,,,,,,,,,,,,,,,,,,,,With Brainslug Difficult 1 No Money,6,images/assets/snowy_original.jpg,learning,20,images/assets/success.jpg,images/assets/gameover.jpg,,,,,,,,,,,,,0,5,5,1,1,,,,,,,,,,,,,,,,,,,,,,,,,,,,,,,,
,,,,,,,,,,,,672c0491c5ac03124a6c1bd3,001,3,2025-03-27_18h15.06.323,avatar_quest_3AFC_legacy,2022.1.3,Win32,59.88023952,672c0491c5ac03124a6c1bd3,67e5c8c9bc10e40b86efc6fc,67e5caa4b12acb694b9993a1,"[""left"",""left"",""left"",""left"",""right"",""right"",""right"",""right"",""right"",""right"",""right"",""right"",""right"",""right"",""right"",""left"",""left"",""left"",""right"",""right"",""right"",""left"",""left"",""left"",""right"",""right"",""right"",""left"",""left"",""left"",""right"",""right"",""right"",""right"",""right"",""right"",""right"",""left"",""left"",""left"",""left"",""left"",""left"",""left"",""left"",""right"",""right"",""right""]","[0.3239000000953922,0.49770000004770054,0.6239000000953752,0.8148000000715285,1.177500000000009,1.3472000000477067,1.5051000000238446,1.6750000000000114,1.991100000023863,2.0844000000953713,2.268700000047687,2.438600000023854,2.5814000000953854,2.71570000004769,2.8695000000000164,3.1313000000715476,3.2882000000476808,3.5431000000238555,3.7530000000000143,3.9390000000000214,4.112200000047693,4.277100000023864,4.447900000095387,4.688700000047703,4.870200000047703,5.07040000009539,5.313900000095373,5.503200000047684,5.940900000095382,6.114000000000004,6.3587000000476905,6.764600000023847,6.930900000095363,7.0971000000238575,7.266800000071527,7.4712000000476735,7.690200000047668,7.876700000047691,8.038400000095379,8.197200000047673,8.35080000007153,8.502900000095366,8.64930000007152,8.836100000023833,9.046999999999997,9.240400000095377,9.480700000047676,9.668000000000035]",,calibration,With Brainslug Difficult 2 With Money,10,10.6114,10.1326,18,8,0,TRUE,na,na,na,na,,,,,,,,,,,,,,,,,,,,,,,,,,,,,,,,,,0,0,0,0,1,,,,,,,,,,,,,,,,,,,,,,,
,,,,,,,,,,,,672c0491c5ac03124a6c1bd3,001,3,2025-03-27_18h15.06.323,avatar_quest_3AFC_legacy,2022.1.3,Win32,59.88023952,672c0491c5ac03124a6c1bd3,67e5c8c9bc10e40b86efc6fc,67e5caa4b12acb694b9993a1,,,,,,,,,,,,,,,,,,,,,,With Brainslug Difficult 2 With Money,12,images/assets/snowy_money.jpg,learning,20,images/assets/success_money.jpg,images/assets/gameover.jpg,,,,,,,,,,,,,0,6,6,2,1,,,,,,,,,,,,,,,,,,,,,,,,,,,,,,,,
,,,,,,,,,,,,672c0491c5ac03124a6c1bd3,001,3,2025-03-27_18h15.06.323,avatar_quest_3AFC_legacy,2022.1.3,Win32,59.88023952,672c0491c5ac03124a6c1bd3,67e5c8c9bc10e40b86efc6fc,67e5caa4b12acb694b9993a1,,,,,,,,,,,,,,,,,,,,,,No Brainslug No Barriers No Money,0,images/assets/snowy_original.jpg,learning,10,images/assets/success.jpg,images/assets/gameover.jpg,,,,,,,,,,,,,0,7,7,10,1,,,,,,,,,,,,,,,,,,,,,,,,,,,,,,,,
,,,,,,,,,,,,672c0491c5ac03124a6c1bd3,001,3,2025-03-27_18h15.06.323,avatar_quest_3AFC_legacy,2022.1.3,Win32,59.88023952,672c0491c5ac03124a6c1bd3,67e5c8c9bc10e40b86efc6fc,67e5caa4b12acb694b9993a1,,,,,,,,,,,,,,,,,,,,,,With Brainslug Difficult 2 No Money,12,images/assets/snowy_original.jpg,learning,20,images/assets/success.jpg,images/assets/gameover.jpg,,,,,,,,,,,,,0,8,8,3,1,,,,,,,,,,,,,,,,,,,,,,,,,,,,,,,,
,,,,,,,,,,,,672c0491c5ac03124a6c1bd3,001,3,2025-03-27_18h15.06.323,avatar_quest_3AFC_legacy,2022.1.3,Win32,59.88023952,672c0491c5ac03124a6c1bd3,67e5c8c9bc10e40b86efc6fc,67e5caa4b12acb694b9993a1,,,,,,,,,,,,,,,,,,,,,,With Brainslug No Barriers No Money,0,images/assets/snowy_original.jpg,learning,10,images/assets/success.jpg,images/assets/gameover.jpg,,,,,,,,,,,,,0,9,9,5,1,,,,,,,,,,,,,,,,,,,,,,,,,,,,,,,,
,,,,,,,,,,,,672c0491c5ac03124a6c1bd3,001,3,2025-03-27_18h15.06.323,avatar_quest_3AFC_legacy,2022.1.3,Win32,59.88023952,672c0491c5ac03124a6c1bd3,67e5c8c9bc10e40b86efc6fc,67e5caa4b12acb694b9993a1,,,,,,,,,,,,,,,,,,,,,,No Brainslug Difficult 1 No Money,6,images/assets/snowy_original.jpg,learning,20,images/assets/success.jpg,images/assets/gameover.jpg,,,,,,,,,,,,,0,10,10,6,1,,,,,,,,,,,,,,,,,,,,,,,,,,,,,,,,
,,,,,,,,,,,,672c0491c5ac03124a6c1bd3,001,3,2025-03-27_18h15.06.323,avatar_quest_3AFC_legacy,2022.1.3,Win32,59.88023952,672c0491c5ac03124a6c1bd3,67e5c8c9bc10e40b86efc6fc,67e5caa4b12acb694b9993a1,,,,,,,,,,,,,,,,,,,,,,,,,,,,,,,,,,,,,,,,,,,,,,,,,,,,,,,6,0,6,0,1,,,,,,,,,,,,,,,,,,
,,,,,,,,,,,,672c0491c5ac03124a6c1bd3,001,3,2025-03-27_18h15.06.323,avatar_quest_3AFC_legacy,2022.1.3,Win32,59.88023952,672c0491c5ac03124a6c1bd3,67e5c8c9bc10e40b86efc6fc,67e5caa4b12acb694b9993a1,,,,,,,,,,,,,,,,,,,,,,With Brainslug Difficult 1 With Money,6,images/assets/snowy_money.jpg,learning,20,images/assets/success_money.jpg,images/assets/gameover.jpg,,,,,,,,With Brainslug Difficult 2 With Money,With Brainslug Difficult 1 No Money,right,1.5482,"[""With Brainslug Difficult 1 No Money"",""With Brainslug Difficult 2 No Money""]",0,0,0,0,1,,,,,,,,,,,,,,,,,,,,,,,,,,,,,,,,
,,,,,,,,,,,,672c0491c5ac03124a6c1bd3,001,3,2025-03-27_18h15.06.323,avatar_quest_3AFC_legacy,2022.1.3,Win32,59.88023952,672c0491c5ac03124a6c1bd3,67e5c8c9bc10e40b86efc6fc,67e5caa4b12acb694b9993a1,,,,,,,,,,,,,,,,,,,,,,No Brainslug No Barriers With Money,0,images/assets/snowy_money.jpg,learning,10,images/assets/success_money.jpg,images/assets/gameover.jpg,,,,,,,,,,,,,0,1,1,9,1,,,,,,,,,,,,,,,,,,,,,,,,,,,,,,,,
,,,,,,,,,,,,672c0491c5ac03124a6c1bd3,001,3,2025-03-27_18h15.06.323,avatar_quest_3AFC_legacy,2022.1.3,Win32,59.88023952,672c0491c5ac03124a6c1bd3,67e5c8c9bc10e40b86efc6fc,67e5caa4b12acb694b9993a1,,,,,,,,,,,,,,,,,,,,,,With Brainslug No Barriers No Money,0,images/assets/snowy_original.jpg,learning,10,images/assets/success.jpg,images/assets/gameover.jpg,,,,,,,,,,,,,0,2,2,5,1,,,,,,,,,,,,,,,,,,,,,,,,,,,,,,,,
,,,,,,,,,,,,672c0491c5ac03124a6c1bd3,001,3,2025-03-27_18h15.06.323,avatar_quest_3AFC_legacy,2022.1.3,Win32,59.88023952,672c0491c5ac03124a6c1bd3,67e5c8c9bc10e40b86efc6fc,67e5caa4b12acb694b9993a1,,,,,,,,,,,,,,,,,,,,,,No Brainslug No Barriers No Money,0,images/assets/snowy_original.jpg,learning,10,images/assets/success.jpg,images/assets/gameover.jpg,,,,,,,,,,,,,0,3,3,10,1,,,,,,,,,,,,,,,,,,,,,,,,,,,,,,,,
,,,,,,,,,,,,672c0491c5ac03124a6c1bd3,001,3,2025-03-27_18h15.06.323,avatar_quest_3AFC_legacy,2022.1.3,Win32,59.88023952,672c0491c5ac03124a6c1bd3,67e5c8c9bc10e40b86efc6fc,67e5caa4b12acb694b9993a1,,,,,,,,,,,,,,,,,,,,,,No Brainslug Difficult 1 No Money,6,images/assets/snowy_original.jpg,learning,20,images/assets/success.jpg,images/assets/gameover.jpg,,,,,,,,,,,,,0,4,4,6,1,,,,,,,,,,,,,,,,,,,,,,,,,,,,,,,,
,,,,,,,,,,,,672c0491c5ac03124a6c1bd3,001,3,2025-03-27_18h15.06.323,avatar_quest_3AFC_legacy,2022.1.3,Win32,59.88023952,672c0491c5ac03124a6c1bd3,67e5c8c9bc10e40b86efc6fc,67e5caa4b12acb694b9993a1,,,,,,,,,,,,,,,,,,,,,,With Brainslug No Barriers With Money,0,images/assets/snowy_money.jpg,learning,10,images/assets/success_money.jpg,images/assets/gameover.jpg,,,,,,,,,,,,,0,5,5,4,1,,,,,,,,,,,,,,,,,,,,,,,,,,,,,,,,
,,,,,,,,,,,,672c0491c5ac03124a6c1bd3,001,3,2025-03-27_18h15.06.323,avatar_quest_3AFC_legacy,2022.1.3,Win32,59.88023952,672c0491c5ac03124a6c1bd3,67e5c8c9bc10e40b86efc6fc,67e5caa4b12acb694b9993a1,"[""left"",""left"",""left"",""right"",""right"",""right"",""left"",""right"",""right"",""right"",""left"",""right"",""right"",""right"",""right"",""right"",""right"",""right"",""right"",""left"",""left"",""right"",""right"",""right"",""right"",""left"",""left"",""left"",""left"",""right"",""right"",""right"",""right"",""right"",""right"",""right"",""left"",""left"",""left"",""left"",""left"",""right"",""right"",""right"",""right"",""right"",""right"",""right"",""right""]","[0.40310000002386914,0.5674999999999955,0.9977000000477005,1.2794999999999845,1.4932000000476933,1.6709999999999923,1.9282999999523724,2.2980000000000302,2.5836000000238926,2.836899999976225,3.065799999952361,3.258700000047696,3.4343999999761934,3.5918999999762207,3.747700000047729,3.8937999999523356,4.047500000000042,4.184799999952332,4.362600000023889,4.597399999976204,4.741799999952349,4.965100000023909,5.106200000047721,5.264799999952373,5.412299999952353,5.592100000023862,5.733399999976172,5.8711000000238585,6.034100000023869,6.3720000000000425,6.549200000047705,6.720100000023905,6.911899999976214,7.078799999952338,7.228500000000025,7.373000000000019,7.574299999952331,7.725700000047738,8.051100000023865,8.421899999976205,8.570399999976217,8.667399999976197,9.293500000000023,9.441600000023897,9.742399999976186,9.909200000047719,10.0638999999762,10.206000000000046,10.354200000047712]",,calibration,With Brainslug Difficult 2 With Money,11,10.6114,10.6155,21,9,0,FALSE,na,na,na,na,,,,,,,,,,,,,,,,,,,,,,,,,,,,,,,,,,0,0,0,0,1,,,,,,,,,,,,,,,,,,,,,,,
,,,,,,,,,,,,672c0491c5ac03124a6c1bd3,001,3,2025-03-27_18h15.06.323,avatar_quest_3AFC_legacy,2022.1.3,Win32,59.88023952,672c0491c5ac03124a6c1bd3,67e5c8c9bc10e40b86efc6fc,67e5caa4b12acb694b9993a1,,,,,,,,,,,,,,,,,,,,,,With Brainslug Difficult 2 With Money,12,images/assets/snowy_money.jpg,learning,20,images/assets/success_money.jpg,images/assets/gameover.jpg,,,,,,,,,,,,,0,6,6,2,1,,,,,,,,,,,,,,,,,,,,,,,,,,,,,,,,
,,,,,,,,,,,,672c0491c5ac03124a6c1bd3,001,3,2025-03-27_18h15.06.323,avatar_quest_3AFC_legacy,2022.1.3,Win32,59.88023952,672c0491c5ac03124a6c1bd3,67e5c8c9bc10e40b86efc6fc,67e5caa4b12acb694b9993a1,,,,,,,,,,,,,,,,,,,,,,With Brainslug Difficult 1 No Money,6,images/assets/snowy_original.jpg,learning,20,images/assets/success.jpg,images/assets/gameover.jpg,,,,,,,,,,,,,0,7,7,1,1,,,,,,,,,,,,,,,,,,,,,,,,,,,,,,,,
,,,,,,,,,,,,672c0491c5ac03124a6c1bd3,001,3,2025-03-27_18h15.06.323,avatar_quest_3AFC_legacy,2022.1.3,Win32,59.88023952,672c0491c5ac03124a6c1bd3,67e5c8c9bc10e40b86efc6fc,67e5caa4b12acb694b9993a1,,,,,,,,,,,,,,,,,,,,,,No Brainslug Difficult 2 No Money,12,images/assets/snowy_original.jpg,learning,20,images/assets/success.jpg,images/assets/gameover.jpg,,,,,,,,,,,,,0,8,8,8,1,,,,,,,,,,,,,,,,,,,,,,,,,,,,,,,,
,,,,,,,,,,,,672c0491c5ac03124a6c1bd3,001,3,2025-03-27_18h15.06.323,avatar_quest_3AFC_legacy,2022.1.3,Win32,59.88023952,672c0491c5ac03124a6c1bd3,67e5c8c9bc10e40b86efc6fc,67e5caa4b12acb694b9993a1,,,,,,,,,,,,,,,,,,,,,,No Brainslug Difficult 2 With Money,12,images/assets/snowy_money.jpg,learning,20,images/assets/success_money.jpg,images/assets/gameover.jpg,,,,,,,,,,,,,0,9,9,7,1,,,,,,,,,,,,,,,,,,,,,,,,,,,,,,,,
,,,,,,,,,,,,672c0491c5ac03124a6c1bd3,001,3,2025-03-27_18h15.06.323,avatar_quest_3AFC_legacy,2022.1.3,Win32,59.88023952,672c0491c5ac03124a6c1bd3,67e5c8c9bc10e40b86efc6fc,67e5caa4b12acb694b9993a1,,,,,,,,,,,,,,,,,,,,,,With Brainslug Difficult 2 No Money,12,images/assets/snowy_original.jpg,learning,20,images/assets/success.jpg,images/assets/gameover.jpg,,,,,,,,,,,,,0,10,10,3,1,,,,,,,,,,,,,,,,,,,,,,,,,,,,,,,,
,,,,,,,,,,,,672c0491c5ac03124a6c1bd3,001,3,2025-03-27_18h15.06.323,avatar_quest_3AFC_legacy,2022.1.3,Win32,59.88023952,672c0491c5ac03124a6c1bd3,67e5c8c9bc10e40b86efc6fc,67e5caa4b12acb694b9993a1,,,,,,,,,,,,,,,,,,,,,,,,,,,,,,,,,,,,,,,,,,,,,,,,,,,,,,,7,0,7,0,1,,,,,,,,,,,,,,,,,,
,,,,,,,,,,,,672c0491c5ac03124a6c1bd3,001,3,2025-03-27_18h15.06.323,avatar_quest_3AFC_legacy,2022.1.3,Win32,59.88023952,672c0491c5ac03124a6c1bd3,67e5c8c9bc10e40b86efc6fc,67e5caa4b12acb694b9993a1,,,,,,,,,,,,,,,,,,,,,,No Brainslug Difficult 1 No Money,6,images/assets/snowy_original.jpg,learning,20,images/assets/success.jpg,images/assets/gameover.jpg,,,,,,,,With Brainslug Difficult 2 With Money,With Brainslug Difficult 1 No Money,right,1.0388,"[""With Brainslug Difficult 1 No Money"",""With Brainslug Difficult 2 No Money""]",0,0,0,6,1,,,,,,,,,,,,,,,,,,,,,,,,,,,,,,,,
,,,,,,,,,,,,672c0491c5ac03124a6c1bd3,001,3,2025-03-27_18h15.06.323,avatar_quest_3AFC_legacy,2022.1.3,Win32,59.88023952,672c0491c5ac03124a6c1bd3,67e5c8c9bc10e40b86efc6fc,67e5caa4b12acb694b9993a1,,,,,,,,,,,,,,,,,,,,,,With Brainslug Difficult 1 With Money,6,images/assets/snowy_money.jpg,learning,20,images/assets/success_money.jpg,images/assets/gameover.jpg,,,,,,,,,,,,,0,1,1,0,1,,,,,,,,,,,,,,,,,,,,,,,,,,,,,,,,
,,,,,,,,,,,,672c0491c5ac03124a6c1bd3,001,3,2025-03-27_18h15.06.323,avatar_quest_3AFC_legacy,2022.1.3,Win32,59.88023952,672c0491c5ac03124a6c1bd3,67e5c8c9bc10e40b86efc6fc,67e5caa4b12acb694b9993a1,,,,,,,,,,,,,,,,,,,,,,With Brainslug No Barriers No Money,0,images/assets/snowy_original.jpg,learning,10,images/assets/success.jpg,images/assets/gameover.jpg,,,,,,,,,,,,,0,2,2,5,1,,,,,,,,,,,,,,,,,,,,,,,,,,,,,,,,
,,,,,,,,,,,,672c0491c5ac03124a6c1bd3,001,3,2025-03-27_18h15.06.323,avatar_quest_3AFC_legacy,2022.1.3,Win32,59.88023952,672c0491c5ac03124a6c1bd3,67e5c8c9bc10e40b86efc6fc,67e5caa4b12acb694b9993a1,,,,,,,,,,,,,,,,,,,,,,With Brainslug Difficult 2 No Money,12,images/assets/snowy_original.jpg,learning,20,images/assets/success.jpg,images/assets/gameover.jpg,,,,,,,,,,,,,0,3,3,3,1,,,,,,,,,,,,,,,,,,,,,,,,,,,,,,,,
,,,,,,,,,,,,672c0491c5ac03124a6c1bd3,001,3,2025-03-27_18h15.06.323,avatar_quest_3AFC_legacy,2022.1.3,Win32,59.88023952,672c0491c5ac03124a6c1bd3,67e5c8c9bc10e40b86efc6fc,67e5caa4b12acb694b9993a1,,,,,,,,,,,,,,,,,,,,,,No Brainslug No Barriers With Money,0,images/assets/snowy_money.jpg,learning,10,images/assets/success_money.jpg,images/assets/gameover.jpg,,,,,,,,,,,,,0,4,4,9,1,,,,,,,,,,,,,,,,,,,,,,,,,,,,,,,,
,,,,,,,,,,,,672c0491c5ac03124a6c1bd3,001,3,2025-03-27_18h15.06.323,avatar_quest_3AFC_legacy,2022.1.3,Win32,59.88023952,672c0491c5ac03124a6c1bd3,67e5c8c9bc10e40b86efc6fc,67e5caa4b12acb694b9993a1,,,,,,,,,,,,,,,,,,,,,,No Brainslug No Barriers No Money,0,images/assets/snowy_original.jpg,learning,10,images/assets/success.jpg,images/assets/gameover.jpg,,,,,,,,,,,,,0,5,5,10,1,,,,,,,,,,,,,,,,,,,,,,,,,,,,,,,,
,,,,,,,,,,,,672c0491c5ac03124a6c1bd3,001,3,2025-03-27_18h15.06.323,avatar_quest_3AFC_legacy,2022.1.3,Win32,59.88023952,672c0491c5ac03124a6c1bd3,67e5c8c9bc10e40b86efc6fc,67e5caa4b12acb694b9993a1,"[""left"",""left"",""left"",""left"",""right"",""right"",""right"",""left"",""left"",""left"",""left"",""left"",""left"",""left"",""left"",""left"",""left"",""left"",""left"",""left"",""left"",""left"",""right"",""right"",""right"",""left"",""left"",""left"",""left"",""left"",""left"",""left"",""left"",""left"",""left"",""left"",""left"",""left"",""left"",""right"",""right"",""right"",""right"",""right"",""right"",""right"",""left"",""left"",""left"",""left"",""right"",""right""]","[0.26469999992843896,0.44029999995228764,0.5824999999999818,1.1084999999999923,1.399000000000001,1.6246000000238041,1.8138999999761154,2.0131999999284744,2.2040000000000077,2.536699999928487,2.694600000023854,2.8511000000238482,2.9914999999999736,3.137999999999977,3.281299999952296,4.11679999995232,4.308100000023842,4.4537999999523095,4.608299999952294,4.772799999952326,4.9297999999523086,5.090299999952322,5.327799999952276,5.649199999928442,5.818600000023821,5.962899999976116,6.292699999928459,6.457699999928479,6.620199999928445,6.783199999928456,6.935199999928443,7.0919999999999845,7.243899999976122,7.416399999976136,7.579899999976135,7.746600000023818,7.912799999952313,8.071399999976165,8.243999999999971,8.429799999952309,8.612699999928452,8.785199999928466,8.944199999928458,9.108299999952294,9.273799999952303,9.446299999952316,9.696299999952316,9.853000000000009,10.032299999952329,10.234499999999969,10.401499999999999,10.580600000023821]",,calibration,With Brainslug Difficult 2 With Money,12,10.6114,10.6159,16,5,0,FALSE,na,na,na,na,,,,,,,,,,,,,,,,,,,,,,,,,,,,,,,,,,0,0,0,0,1,,,,,,,,,,,,,,,,,,,,,,,
,,,,,,,,,,,,672c0491c5ac03124a6c1bd3,001,3,2025-03-27_18h15.06.323,avatar_quest_3AFC_legacy,2022.1.3,Win32,59.88023952,672c0491c5ac03124a6c1bd3,67e5c8c9bc10e40b86efc6fc,67e5caa4b12acb694b9993a1,,,,,,,,,,,,,,,,,,,,,,With Brainslug Difficult 2 With Money,12,images/assets/snowy_money.jpg,learning,20,images/assets/success_money.jpg,images/assets/gameover.jpg,,,,,,,,,,,,,0,6,6,2,1,,,,,,,,,,,,,,,,,,,,,,,,,,,,,,,,
,,,,,,,,,,,,672c0491c5ac03124a6c1bd3,001,3,2025-03-27_18h15.06.323,avatar_quest_3AFC_legacy,2022.1.3,Win32,59.88023952,672c0491c5ac03124a6c1bd3,67e5c8c9bc10e40b86efc6fc,67e5caa4b12acb694b9993a1,,,,,,,,,,,,,,,,,,,,,,With Brainslug Difficult 1 No Money,6,images/assets/snowy_original.jpg,learning,20,images/assets/success.jpg,images/assets/gameover.jpg,,,,,,,,,,,,,0,7,7,1,1,,,,,,,,,,,,,,,,,,,,,,,,,,,,,,,,
,,,,,,,,,,,,672c0491c5ac03124a6c1bd3,001,3,2025-03-27_18h15.06.323,avatar_quest_3AFC_legacy,2022.1.3,Win32,59.88023952,672c0491c5ac03124a6c1bd3,67e5c8c9bc10e40b86efc6fc,67e5caa4b12acb694b9993a1,,,,,,,,,,,,,,,,,,,,,,No Brainslug Difficult 2 With Money,12,images/assets/snowy_money.jpg,learning,20,images/assets/success_money.jpg,images/assets/gameover.jpg,,,,,,,,,,,,,0,8,8,7,1,,,,,,,,,,,,,,,,,,,,,,,,,,,,,,,,
,,,,,,,,,,,,672c0491c5ac03124a6c1bd3,001,3,2025-03-27_18h15.06.323,avatar_quest_3AFC_legacy,2022.1.3,Win32,59.88023952,672c0491c5ac03124a6c1bd3,67e5c8c9bc10e40b86efc6fc,67e5caa4b12acb694b9993a1,,,,,,,,,,,,,,,,,,,,,,No Brainslug Difficult 2 No Money,12,images/assets/snowy_original.jpg,learning,20,images/assets/success.jpg,images/assets/gameover.jpg,,,,,,,,,,,,,0,9,9,8,1,,,,,,,,,,,,,,,,,,,,,,,,,,,,,,,,
,,,,,,,,,,,,672c0491c5ac03124a6c1bd3,001,3,2025-03-27_18h15.06.323,avatar_quest_3AFC_legacy,2022.1.3,Win32,59.88023952,672c0491c5ac03124a6c1bd3,67e5c8c9bc10e40b86efc6fc,67e5caa4b12acb694b9993a1,,,,,,,,,,,,,,,,,,,,,,With Brainslug No Barriers With Money,0,images/assets/snowy_money.jpg,learning,10,images/assets/success_money.jpg,images/assets/gameover.jpg,,,,,,,,,,,,,0,10,10,4,1,,,,,,,,,,,,,,,,,,,,,,,,,,,,,,,,
,,,,,,,,,,,,672c0491c5ac03124a6c1bd3,001,3,2025-03-27_18h15.06.323,avatar_quest_3AFC_legacy,2022.1.3,Win32,59.88023952,672c0491c5ac03124a6c1bd3,67e5c8c9bc10e40b86efc6fc,67e5caa4b12acb694b9993a1,,,,,,,,,,,,,,,,,,,,,,,,,,,,,,,,,,,,,,,,,,,,,,,,,,,,,,,8,0,8,0,1,,,,,,,,,,,,,,,,,,
,,,,,,,,,,,,672c0491c5ac03124a6c1bd3,001,3,2025-03-27_18h15.06.323,avatar_quest_3AFC_legacy,2022.1.3,Win32,59.88023952,672c0491c5ac03124a6c1bd3,67e5c8c9bc10e40b86efc6fc,67e5caa4b12acb694b9993a1,,,,,,,,,,,,,,,,,,,,,,No Brainslug Difficult 1 No Money,6,images/assets/snowy_original.jpg,learning,20,images/assets/success.jpg,images/assets/gameover.jpg,,,,,,,,With Brainslug Difficult 2 No Money,With Brainslug Difficult 1 No Money,down,3.3812,"[""With Brainslug Difficult 1 No Money"",""With Brainslug Difficult 2 With Money""]",0,0,0,6,1,,,,,,,,,,,,,,,,,,,,,,,,,,,,,,,,
,,,,,,,,,,,,672c0491c5ac03124a6c1bd3,001,3,2025-03-27_18h15.06.323,avatar_quest_3AFC_legacy,2022.1.3,Win32,59.88023952,672c0491c5ac03124a6c1bd3,67e5c8c9bc10e40b86efc6fc,67e5caa4b12acb694b9993a1,,,,,,,,,,,,,,,,,,,,,,With Brainslug Difficult 1 With Money,6,images/assets/snowy_money.jpg,learning,20,images/assets/success_money.jpg,images/assets/gameover.jpg,,,,,,,,,,,,,0,1,1,0,1,,,,,,,,,,,,,,,,,,,,,,,,,,,,,,,,
,,,,,,,,,,,,672c0491c5ac03124a6c1bd3,001,3,2025-03-27_18h15.06.323,avatar_quest_3AFC_legacy,2022.1.3,Win32,59.88023952,672c0491c5ac03124a6c1bd3,67e5c8c9bc10e40b86efc6fc,67e5caa4b12acb694b9993a1,"[""left"",""left"",""left"",""left"",""left"",""right"",""right"",""right"",""right"",""right"",""right"",""right"",""right"",""left"",""left"",""left"",""right"",""right"",""right"",""right"",""left"",""left"",""left"",""right"",""right"",""right"",""right"",""right"",""left"",""left"",""left"",""left"",""left"",""left"",""left"",""left"",""right"",""right"",""left"",""left"",""left"",""left"",""right"",""left"",""left"",""left"",""left"",""left"",""right"",""right"",""right"",""right"",""right"",""right""]","[0.396000000000015,0.5816000000238546,0.7513000000715238,0.9033000000715106,1.07260000002384,1.3146000000238587,1.5144999999999982,1.9183000000715538,2.124300000071514,2.467200000047683,2.618499999999983,2.7848000000715274,2.9613999999761518,3.1371000000238496,3.3058000000715424,3.4735000000000014,3.7057000000476705,3.9680000000000177,4.131899999976156,4.283899999976143,4.5011000000238255,4.687300000071502,4.848000000000013,4.998200000047689,5.199300000071503,5.360200000047712,5.532100000023831,5.739100000023825,5.882200000047703,6.045899999976143,6.207200000047692,6.375399999976139,6.538899999976138,6.699800000071548,6.843500000000006,7.007600000023842,7.270600000023819,7.492899999976146,7.676200000047686,7.888200000047675,8.078200000047673,8.264399999976149,8.538800000071546,8.75630000007152,8.90310000002387,9.045300000071506,9.237000000000023,9.388600000023871,9.644600000023843,9.894600000023843,10.043999999999983,10.243300000071542,10.414200000047686,10.567399999976146]",,calibration,With Brainslug Difficult 2 No Money,13,10.6114,10.6156,21,8,0,FALSE,na,na,na,na,,,,,,,,,,,,,,,,,,,,,,,,,,,,,,,,,,0,0,0,0,1,,,,,,,,,,,,,,,,,,,,,,,
,,,,,,,,,,,,672c0491c5ac03124a6c1bd3,001,3,2025-03-27_18h15.06.323,avatar_quest_3AFC_legacy,2022.1.3,Win32,59.88023952,672c0491c5ac03124a6c1bd3,67e5c8c9bc10e40b86efc6fc,67e5caa4b12acb694b9993a1,,,,,,,,,,,,,,,,,,,,,,With Brainslug Difficult 2 No Money,12,images/assets/snowy_original.jpg,learning,20,images/assets/success.jpg,images/assets/gameover.jpg,,,,,,,,,,,,,0,2,2,3,1,,,,,,,,,,,,,,,,,,,,,,,,,,,,,,,,
,,,,,,,,,,,,672c0491c5ac03124a6c1bd3,001,3,2025-03-27_18h15.06.323,avatar_quest_3AFC_legacy,2022.1.3,Win32,59.88023952,672c0491c5ac03124a6c1bd3,67e5c8c9bc10e40b86efc6fc,67e5caa4b12acb694b9993a1,,,,,,,,,,,,,,,,,,,,,,No Brainslug No Barriers No Money,0,images/assets/snowy_original.jpg,learning,10,images/assets/success.jpg,images/assets/gameover.jpg,,,,,,,,,,,,,0,3,3,10,1,,,,,,,,,,,,,,,,,,,,,,,,,,,,,,,,
,,,,,,,,,,,,672c0491c5ac03124a6c1bd3,001,3,2025-03-27_18h15.06.323,avatar_quest_3AFC_legacy,2022.1.3,Win32,59.88023952,672c0491c5ac03124a6c1bd3,67e5c8c9bc10e40b86efc6fc,67e5caa4b12acb694b9993a1,,,,,,,,,,,,,,,,,,,,,,No Brainslug Difficult 2 No Money,12,images/assets/snowy_original.jpg,learning,20,images/assets/success.jpg,images/assets/gameover.jpg,,,,,,,,,,,,,0,4,4,8,1,,,,,,,,,,,,,,,,,,,,,,,,,,,,,,,,
,,,,,,,,,,,,672c0491c5ac03124a6c1bd3,001,3,2025-03-27_18h15.06.323,avatar_quest_3AFC_legacy,2022.1.3,Win32,59.88023952,672c0491c5ac03124a6c1bd3,67e5c8c9bc10e40b86efc6fc,67e5caa4b12acb694b9993a1,,,,,,,,,,,,,,,,,,,,,,With Brainslug Difficult 1 No Money,6,images/assets/snowy_original.jpg,learning,20,images/assets/success.jpg,images/assets/gameover.jpg,,,,,,,,,,,,,0,5,5,1,1,,,,,,,,,,,,,,,,,,,,,,,,,,,,,,,,
,,,,,,,,,,,,672c0491c5ac03124a6c1bd3,001,3,2025-03-27_18h15.06.323,avatar_quest_3AFC_legacy,2022.1.3,Win32,59.88023952,672c0491c5ac03124a6c1bd3,67e5c8c9bc10e40b86efc6fc,67e5caa4b12acb694b9993a1,,,,,,,,,,,,,,,,,,,,,,With Brainslug No Barriers No Money,0,images/assets/snowy_original.jpg,learning,10,images/assets/success.jpg,images/assets/gameover.jpg,,,,,,,,,,,,,0,6,6,5,1,,,,,,,,,,,,,,,,,,,,,,,,,,,,,,,,
,,,,,,,,,,,,672c0491c5ac03124a6c1bd3,001,3,2025-03-27_18h15.06.323,avatar_quest_3AFC_legacy,2022.1.3,Win32,59.88023952,672c0491c5ac03124a6c1bd3,67e5c8c9bc10e40b86efc6fc,67e5caa4b12acb694b9993a1,,,,,,,,,,,,,,,,,,,,,,With Brainslug No Barriers With Money,0,images/assets/snowy_money.jpg,learning,10,images/assets/success_money.jpg,images/assets/gameover.jpg,,,,,,,,,,,,,0,7,7,4,1,,,,,,,,,,,,,,,,,,,,,,,,,,,,,,,,
,,,,,,,,,,,,672c0491c5ac03124a6c1bd3,001,3,2025-03-27_18h15.06.323,avatar_quest_3AFC_legacy,2022.1.3,Win32,59.88023952,672c0491c5ac03124a6c1bd3,67e5c8c9bc10e40b86efc6fc,67e5caa4b12acb694b9993a1,,,,,,,,,,,,,,,,,,,,,,With Brainslug Difficult 2 With Money,12,images/assets/snowy_money.jpg,learning,20,images/assets/success_money.jpg,images/assets/gameover.jpg,,,,,,,,,,,,,0,8,8,2,1,,,,,,,,,,,,,,,,,,,,,,,,,,,,,,,,
,,,,,,,,,,,,672c0491c5ac03124a6c1bd3,001,3,2025-03-27_18h15.06.323,avatar_quest_3AFC_legacy,2022.1.3,Win32,59.88023952,672c0491c5ac03124a6c1bd3,67e5c8c9bc10e40b86efc6fc,67e5caa4b12acb694b9993a1,,,,,,,,,,,,,,,,,,,,,,No Brainslug No Barriers With Money,0,images/assets/snowy_money.jpg,learning,10,images/assets/success_money.jpg,images/assets/gameover.jpg,,,,,,,,,,,,,0,9,9,9,1,,,,,,,,,,,,,,,,,,,,,,,,,,,,,,,,
,,,,,,,,,,,,672c0491c5ac03124a6c1bd3,001,3,2025-03-27_18h15.06.323,avatar_quest_3AFC_legacy,2022.1.3,Win32,59.88023952,672c0491c5ac03124a6c1bd3,67e5c8c9bc10e40b86efc6fc,67e5caa4b12acb694b9993a1,,,,,,,,,,,,,,,,,,,,,,No Brainslug Difficult 2 With Money,12,images/assets/snowy_money.jpg,learning,20,images/assets/success_money.jpg,images/assets/gameover.jpg,,,,,,,,,,,,,0,10,10,7,1,,,,,,,,,,,,,,,,,,,,,,,,,,,,,,,,
,,,,,,,,,,,,672c0491c5ac03124a6c1bd3,001,3,2025-03-27_18h15.06.323,avatar_quest_3AFC_legacy,2022.1.3,Win32,59.88023952,672c0491c5ac03124a6c1bd3,67e5c8c9bc10e40b86efc6fc,67e5caa4b12acb694b9993a1,,,,,,,,,,,,,,,,,,,,,,,,,,,,,,,,,,,,,,,,,,,,,,,,,,,,,,,9,0,9,0,1,,,,,,,,,,,,,,,,,,
,,,,,,,,,,,,672c0491c5ac03124a6c1bd3,001,3,2025-03-27_18h15.06.323,avatar_quest_3AFC_legacy,2022.1.3,Win32,59.88023952,672c0491c5ac03124a6c1bd3,67e5c8c9bc10e40b86efc6fc,67e5caa4b12acb694b9993a1,,,,,,,,,,,,,,,,,,,,,,No Brainslug No Barriers No Money,0,images/assets/snowy_original.jpg,learning,10,images/assets/success.jpg,images/assets/gameover.jpg,,,,,,,,With Brainslug Difficult 2 With Money,With Brainslug Difficult 1 No Money,right,0.6017,"[""With Brainslug Difficult 1 No Money"",""With Brainslug Difficult 2 No Money""]",0,0,0,10,1,,,,,,,,,,,,,,,,,,,,,,,,,,,,,,,,
,,,,,,,,,,,,672c0491c5ac03124a6c1bd3,001,3,2025-03-27_18h15.06.323,avatar_quest_3AFC_legacy,2022.1.3,Win32,59.88023952,672c0491c5ac03124a6c1bd3,67e5c8c9bc10e40b86efc6fc,67e5caa4b12acb694b9993a1,"[""left"",""left"",""left"",""left"",""left"",""left"",""left"",""right"",""right"",""right"",""right"",""left"",""left"",""left"",""right"",""right"",""right"",""right"",""left"",""left"",""left"",""right"",""right"",""right"",""right"",""right"",""right"",""left"",""left"",""right"",""right"",""right"",""left"",""left"",""left"",""right"",""right"",""right"",""right""]","[0.8095999999046057,0.9868999999761741,1.132299999952295,1.3032999999522872,1.4833999999761431,1.6870000000000118,1.8767999999523113,2.152999999999963,2.309899999976153,2.4821999999284685,2.6451999999284794,2.827199999928439,3.174199999928476,3.3483999999761522,3.4541999999284485,3.6343999999761536,3.793099999904598,3.9326999999284453,4.118999999999971,4.255199999928436,4.421699999928478,4.621799999952316,5.0434999999999945,5.299799999952313,5.436099999904627,5.586699999928442,5.742399999976158,5.887899999976128,6.060699999928488,6.2382999999522895,6.426799999952323,6.57839999997617,6.875799999952278,7.02209999990464,7.197499999999991,7.313399999976127,7.483799999952282,7.642999999999972,7.775799999952312]",,calibration,With Brainslug Difficult 2 With Money,14,10.6114,8.2988,17,8,0,TRUE,na,na,na,na,,,,,,,,,,,,,,,,,,,,,,,,,,,,,,,,,,0,0,0,0,1,,,,,,,,,,,,,,,,,,,,,,,
,,,,,,,,,,,,672c0491c5ac03124a6c1bd3,001,3,2025-03-27_18h15.06.323,avatar_quest_3AFC_legacy,2022.1.3,Win32,59.88023952,672c0491c5ac03124a6c1bd3,67e5c8c9bc10e40b86efc6fc,67e5caa4b12acb694b9993a1,,,,,,,,,,,,,,,,,,,,,,With Brainslug Difficult 2 With Money,12,images/assets/snowy_money.jpg,learning,20,images/assets/success_money.jpg,images/assets/gameover.jpg,,,,,,,,,,,,,0,1,1,2,1,,,,,,,,,,,,,,,,,,,,,,,,,,,,,,,,
,,,,,,,,,,,,672c0491c5ac03124a6c1bd3,001,3,2025-03-27_18h15.06.323,avatar_quest_3AFC_legacy,2022.1.3,Win32,59.88023952,672c0491c5ac03124a6c1bd3,67e5c8c9bc10e40b86efc6fc,67e5caa4b12acb694b9993a1,,,,,,,,,,,,,,,,,,,,,,No Brainslug Difficult 2 With Money,12,images/assets/snowy_money.jpg,learning,20,images/assets/success_money.jpg,images/assets/gameover.jpg,,,,,,,,,,,,,0,2,2,7,1,,,,,,,,,,,,,,,,,,,,,,,,,,,,,,,,
,,,,,,,,,,,,672c0491c5ac03124a6c1bd3,001,3,2025-03-27_18h15.06.323,avatar_quest_3AFC_legacy,2022.1.3,Win32,59.88023952,672c0491c5ac03124a6c1bd3,67e5c8c9bc10e40b86efc6fc,67e5caa4b12acb694b9993a1,,,,,,,,,,,,,,,,,,,,,,With Brainslug Difficult 1 With Money,6,images/assets/snowy_money.jpg,learning,20,images/assets/success_money.jpg,images/assets/gameover.jpg,,,,,,,,,,,,,0,3,3,0,1,,,,,,,,,,,,,,,,,,,,,,,,,,,,,,,,
,,,,,,,,,,,,672c0491c5ac03124a6c1bd3,001,3,2025-03-27_18h15.06.323,avatar_quest_3AFC_legacy,2022.1.3,Win32,59.88023952,672c0491c5ac03124a6c1bd3,67e5c8c9bc10e40b86efc6fc,67e5caa4b12acb694b9993a1,,,,,,,,,,,,,,,,,,,,,,With Brainslug No Barriers With Money,0,images/assets/snowy_money.jpg,learning,10,images/assets/success_money.jpg,images/assets/gameover.jpg,,,,,,,,,,,,,0,4,4,4,1,,,,,,,,,,,,,,,,,,,,,,,,,,,,,,,,
,,,,,,,,,,,,672c0491c5ac03124a6c1bd3,001,3,2025-03-27_18h15.06.323,avatar_quest_3AFC_legacy,2022.1.3,Win32,59.88023952,672c0491c5ac03124a6c1bd3,67e5c8c9bc10e40b86efc6fc,67e5caa4b12acb694b9993a1,,,,,,,,,,,,,,,,,,,,,,No Brainslug Difficult 1 No Money,6,images/assets/snowy_original.jpg,learning,20,images/assets/success.jpg,images/assets/gameover.jpg,,,,,,,,,,,,,0,5,5,6,1,,,,,,,,,,,,,,,,,,,,,,,,,,,,,,,,
,,,,,,,,,,,,672c0491c5ac03124a6c1bd3,001,3,2025-03-27_18h15.06.323,avatar_quest_3AFC_legacy,2022.1.3,Win32,59.88023952,672c0491c5ac03124a6c1bd3,67e5c8c9bc10e40b86efc6fc,67e5caa4b12acb694b9993a1,,,,,,,,,,,,,,,,,,,,,,With Brainslug No Barriers No Money,0,images/assets/snowy_original.jpg,learning,10,images/assets/success.jpg,images/assets/gameover.jpg,,,,,,,,,,,,,0,6,6,5,1,,,,,,,,,,,,,,,,,,,,,,,,,,,,,,,,
,,,,,,,,,,,,672c0491c5ac03124a6c1bd3,001,3,2025-03-27_18h15.06.323,avatar_quest_3AFC_legacy,2022.1.3,Win32,59.88023952,672c0491c5ac03124a6c1bd3,67e5c8c9bc10e40b86efc6fc,67e5caa4b12acb694b9993a1,,,,,,,,,,,,,,,,,,,,,,With Brainslug Difficult 2 No Money,12,images/assets/snowy_original.jpg,learning,20,images/assets/success.jpg,images/assets/gameover.jpg,,,,,,,,,,,,,0,7,7,3,1,,,,,,,,,,,,,,,,,,,,,,,,,,,,,,,,
,,,,,,,,,,,,672c0491c5ac03124a6c1bd3,001,3,2025-03-27_18h15.06.323,avatar_quest_3AFC_legacy,2022.1.3,Win32,59.88023952,672c0491c5ac03124a6c1bd3,67e5c8c9bc10e40b86efc6fc,67e5caa4b12acb694b9993a1,,,,,,,,,,,,,,,,,,,,,,No Brainslug Difficult 2 No Money,12,images/assets/snowy_original.jpg,learning,20,images/assets/success.jpg,images/assets/gameover.jpg,,,,,,,,,,,,,0,8,8,8,1,,,,,,,,,,,,,,,,,,,,,,,,,,,,,,,,
,,,,,,,,,,,,672c0491c5ac03124a6c1bd3,001,3,2025-03-27_18h15.06.323,avatar_quest_3AFC_legacy,2022.1.3,Win32,59.88023952,672c0491c5ac03124a6c1bd3,67e5c8c9bc10e40b86efc6fc,67e5caa4b12acb694b9993a1,,,,,,,,,,,,,,,,,,,,,,With Brainslug Difficult 1 No Money,6,images/assets/snowy_original.jpg,learning,20,images/assets/success.jpg,images/assets/gameover.jpg,,,,,,,,,,,,,0,9,9,1,1,,,,,,,,,,,,,,,,,,,,,,,,,,,,,,,,
,,,,,,,,,,,,672c0491c5ac03124a6c1bd3,001,3,2025-03-27_18h15.06.323,avatar_quest_3AFC_legacy,2022.1.3,Win32,59.88023952,672c0491c5ac03124a6c1bd3,67e5c8c9bc10e40b86efc6fc,67e5caa4b12acb694b9993a1,,,,,,,,,,,,,,,,,,,,,,No Brainslug No Barriers With Money,0,images/assets/snowy_money.jpg,learning,10,images/assets/success_money.jpg,images/assets/gameover.jpg,,,,,,,,,,,,,0,10,10,9,1,,,,,,,,,,,,,,,,,,,,,,,,,,,,,,,,
,,,,,,,,,,,,672c0491c5ac03124a6c1bd3,001,3,2025-03-27_18h15.06.323,avatar_quest_3AFC_legacy,2022.1.3,Win32,59.88023952,672c0491c5ac03124a6c1bd3,67e5c8c9bc10e40b86efc6fc,67e5caa4b12acb694b9993a1,,,,,,,,,,,,,,,,,,,,,,,,,,,,,,,,,,,,,,,,,,,,,,,,,,,,,,,10,0,10,0,1,,,,,,,,,,,,,,,,,,
,,,,,,,,,,,,672c0491c5ac03124a6c1bd3,001,3,2025-03-27_18h15.06.323,avatar_quest_3AFC_legacy,2022.1.3,Win32,59.88023952,672c0491c5ac03124a6c1bd3,67e5c8c9bc10e40b86efc6fc,67e5caa4b12acb694b9993a1,,,,,,,,,,,,,,,,,,,,,,With Brainslug Difficult 1 No Money,6,images/assets/snowy_original.jpg,learning,20,images/assets/success.jpg,images/assets/gameover.jpg,,,,,,,,With Brainslug Difficult 2 With Money,With Brainslug Difficult 1 No Money,right,1.7918,"[""With Brainslug Difficult 1 No Money"",""With Brainslug Difficult 2 No Money""]",0,0,0,1,1,,,,,,,,,,,,,,,,,,,,,,,,,,,,,,,,
,,,,,,,,,,,,672c0491c5ac03124a6c1bd3,001,3,2025-03-27_18h15.06.323,avatar_quest_3AFC_legacy,2022.1.3,Win32,59.88023952,672c0491c5ac03124a6c1bd3,67e5c8c9bc10e40b86efc6fc,67e5caa4b12acb694b9993a1,,,,,,,,,,,,,,,,,,,,,,With Brainslug Difficult 1 With Money,6,images/assets/snowy_money.jpg,learning,20,images/assets/success_money.jpg,images/assets/gameover.jpg,,,,,,,,,,,,,0,1,1,0,1,,,,,,,,,,,,,,,,,,,,,,,,,,,,,,,,
,,,,,,,,,,,,672c0491c5ac03124a6c1bd3,001,3,2025-03-27_18h15.06.323,avatar_quest_3AFC_legacy,2022.1.3,Win32,59.88023952,672c0491c5ac03124a6c1bd3,67e5c8c9bc10e40b86efc6fc,67e5caa4b12acb694b9993a1,"[""left"",""left"",""right"",""right"",""right"",""right"",""left"",""left"",""left"",""right"",""right"",""right"",""right"",""right"",""right"",""right"",""right"",""right"",""right"",""left"",""left"",""left"",""left"",""left"",""left"",""right"",""right"",""right"",""right"",""right"",""right"",""right"",""right"",""right"",""left"",""left"",""right"",""right"",""right"",""right"",""right"",""left"",""left"",""right"",""right"",""right"",""right""]","[0.5069000000953565,0.6803000000714974,1.1217000000476673,1.3416000000238455,1.4950000000000045,1.6644000000953838,1.8266000000238591,2.132499999999993,2.2694999999999936,2.6366000000238614,3.0049999999999955,3.1429000000953806,3.27800000000002,3.431900000095368,4.891200000047661,5.172200000047667,5.332200000047692,5.507400000095345,5.649200000047699,5.81680000007151,5.96590000009536,6.113700000047686,6.273600000023862,6.4374000000953515,6.585800000071515,6.882200000047703,7.048700000047688,7.210600000023817,7.3729999999999905,7.533700000047702,7.673999999999978,7.814999999999998,7.9514000000953615,8.147300000071539,8.309700000047656,8.50620000004767,8.689700000047708,8.863600000023837,9.021400000095355,9.204499999999996,9.357800000071506,9.699100000023861,9.901200000047709,10.073200000047677,10.25,10.406000000000006,10.555700000047693]",,calibration,With Brainslug Difficult 2 With Money,15,10.6114,10.6149,21,6,0,FALSE,na,na,na,na,,,,,,,,,,,,,,,,,,,,,,,,,,,,,,,,,,0,0,0,0,1,,,,,,,,,,,,,,,,,,,,,,,
,,,,,,,,,,,,672c0491c5ac03124a6c1bd3,001,3,2025-03-27_18h15.06.323,avatar_quest_3AFC_legacy,2022.1.3,Win32,59.88023952,672c0491c5ac03124a6c1bd3,67e5c8c9bc10e40b86efc6fc,67e5caa4b12acb694b9993a1,,,,,,,,,,,,,,,,,,,,,,With Brainslug Difficult 2 With Money,12,images/assets/snowy_money.jpg,learning,20,images/assets/success_money.jpg,images/assets/gameover.jpg,,,,,,,,,,,,,0,2,2,2,1,,,,,,,,,,,,,,,,,,,,,,,,,,,,,,,,
,,,,,,,,,,,,672c0491c5ac03124a6c1bd3,001,3,2025-03-27_18h15.06.323,avatar_quest_3AFC_legacy,2022.1.3,Win32,59.88023952,672c0491c5ac03124a6c1bd3,67e5c8c9bc10e40b86efc6fc,67e5caa4b12acb694b9993a1,,,,,,,,,,,,,,,,,,,,,,No Brainslug Difficult 1 No Money,6,images/assets/snowy_original.jpg,learning,20,images/assets/success.jpg,images/assets/gameover.jpg,,,,,,,,,,,,,0,3,3,6,1,,,,,,,,,,,,,,,,,,,,,,,,,,,,,,,,
,,,,,,,,,,,,672c0491c5ac03124a6c1bd3,001,3,2025-03-27_18h15.06.323,avatar_quest_3AFC_legacy,2022.1.3,Win32,59.88023952,672c0491c5ac03124a6c1bd3,67e5c8c9bc10e40b86efc6fc,67e5caa4b12acb694b9993a1,,,,,,,,,,,,,,,,,,,,,,With Brainslug No Barriers No Money,0,images/assets/snowy_original.jpg,learning,10,images/assets/success.jpg,images/assets/gameover.jpg,,,,,,,,,,,,,0,4,4,5,1,,,,,,,,,,,,,,,,,,,,,,,,,,,,,,,,
,,,,,,,,,,,,672c0491c5ac03124a6c1bd3,001,3,2025-03-27_18h15.06.323,avatar_quest_3AFC_legacy,2022.1.3,Win32,59.88023952,672c0491c5ac03124a6c1bd3,67e5c8c9bc10e40b86efc6fc,67e5caa4b12acb694b9993a1,,,,,,,,,,,,,,,,,,,,,,With Brainslug Difficult 2 No Money,12,images/assets/snowy_original.jpg,learning,20,images/assets/success.jpg,images/assets/gameover.jpg,,,,,,,,,,,,,0,5,5,3,1,,,,,,,,,,,,,,,,,,,,,,,,,,,,,,,,
,,,,,,,,,,,,672c0491c5ac03124a6c1bd3,001,3,2025-03-27_18h15.06.323,avatar_quest_3AFC_legacy,2022.1.3,Win32,59.88023952,672c0491c5ac03124a6c1bd3,67e5c8c9bc10e40b86efc6fc,67e5caa4b12acb694b9993a1,,,,,,,,,,,,,,,,,,,,,,With Brainslug No Barriers With Money,0,images/assets/snowy_money.jpg,learning,10,images/assets/success_money.jpg,images/assets/gameover.jpg,,,,,,,,,,,,,0,6,6,4,1,,,,,,,,,,,,,,,,,,,,,,,,,,,,,,,,
,,,,,,,,,,,,672c0491c5ac03124a6c1bd3,001,3,2025-03-27_18h15.06.323,avatar_quest_3AFC_legacy,2022.1.3,Win32,59.88023952,672c0491c5ac03124a6c1bd3,67e5c8c9bc10e40b86efc6fc,67e5caa4b12acb694b9993a1,,,,,,,,,,,,,,,,,,,,,,No Brainslug Difficult 2 With Money,12,images/assets/snowy_money.jpg,learning,20,images/assets/success_money.jpg,images/assets/gameover.jpg,,,,,,,,,,,,,0,7,7,7,1,,,,,,,,,,,,,,,,,,,,,,,,,,,,,,,,
,,,,,,,,,,,,672c0491c5ac03124a6c1bd3,001,3,2025-03-27_18h15.06.323,avatar_quest_3AFC_legacy,2022.1.3,Win32,59.88023952,672c0491c5ac03124a6c1bd3,67e5c8c9bc10e40b86efc6fc,67e5caa4b12acb694b9993a1,,,,,,,,,,,,,,,,,,,,,,No Brainslug No Barriers With Money,0,images/assets/snowy_money.jpg,learning,10,images/assets/success_money.jpg,images/assets/gameover.jpg,,,,,,,,,,,,,0,8,8,9,1,,,,,,,,,,,,,,,,,,,,,,,,,,,,,,,,
,,,,,,,,,,,,672c0491c5ac03124a6c1bd3,001,3,2025-03-27_18h15.06.323,avatar_quest_3AFC_legacy,2022.1.3,Win32,59.88023952,672c0491c5ac03124a6c1bd3,67e5c8c9bc10e40b86efc6fc,67e5caa4b12acb694b9993a1,,,,,,,,,,,,,,,,,,,,,,No Brainslug No Barriers No Money,0,images/assets/snowy_original.jpg,learning,10,images/assets/success.jpg,images/assets/gameover.jpg,,,,,,,,,,,,,0,9,9,10,1,,,,,,,,,,,,,,,,,,,,,,,,,,,,,,,,
,,,,,,,,,,,,672c0491c5ac03124a6c1bd3,001,3,2025-03-27_18h15.06.323,avatar_quest_3AFC_legacy,2022.1.3,Win32,59.88023952,672c0491c5ac03124a6c1bd3,67e5c8c9bc10e40b86efc6fc,67e5caa4b12acb694b9993a1,,,,,,,,,,,,,,,,,,,,,,No Brainslug Difficult 2 No Money,12,images/assets/snowy_original.jpg,learning,20,images/assets/success.jpg,images/assets/gameover.jpg,,,,,,,,,,,,,0,10,10,8,1,,,,,,,,,,,,,,,,,,,,,,,,,,,,,,,,
,,,,,,,,,,,,672c0491c5ac03124a6c1bd3,001,3,2025-03-27_18h15.06.323,avatar_quest_3AFC_legacy,2022.1.3,Win32,59.88023952,672c0491c5ac03124a6c1bd3,67e5c8c9bc10e40b86efc6fc,67e5caa4b12acb694b9993a1,,,,,,,,,,,,,,,,,,,,,,,,,,,,,,,,,,,,,,,,,,,,,,,,,,,,,,,11,0,11,0,1,,,,,,,,,,,,,,,,,,
,,,,,,,,,,,,672c0491c5ac03124a6c1bd3,001,3,2025-03-27_18h15.06.323,avatar_quest_3AFC_legacy,2022.1.3,Win32,59.88023952,672c0491c5ac03124a6c1bd3,67e5c8c9bc10e40b86efc6fc,67e5caa4b12acb694b9993a1,,,,,,,,,,,,,,,,,,,,,,,,,,,,,,,,,,,,,,,,,,,,,,,,,,,,,,,,,,,,0,0,0,0,1,1,With Brainslug Difficult 1 No Money,images/assets/With Brainslug Difficult 1 No Money.png,With Brainslug Difficult 2 No Money,images/assets/With Brainslug Difficult 2 No Money.png,With Brainslug Difficult 2 With Money,images/assets/With Brainslug Difficult 2 With Money.png,Achievement vs. money,,,,,
,,,,,,,,,,,,672c0491c5ac03124a6c1bd3,001,3,2025-03-27_18h15.06.323,avatar_quest_3AFC_legacy,2022.1.3,Win32,59.88023952,672c0491c5ac03124a6c1bd3,67e5c8c9bc10e40b86efc6fc,67e5caa4b12acb694b9993a1,,,,,,,,,,,,,,,,,,,,,,With Brainslug Difficult 1 No Money,6,images/assets/snowy_original.jpg,learning,20,images/assets/success.jpg,images/assets/gameover.jpg,,,,,,,,No Brainslug No Barriers With Money,No Brainslug No Barriers No Money,right,2.3024,"[""No Brainslug No Barriers No Money"",""No Brainslug Difficult 1 No Money""]",0,0,0,1,1,,,,,,,,,,,,,,,,,,,,,,,,,,,,,,,,
,,,,,,,,,,,,672c0491c5ac03124a6c1bd3,001,3,2025-03-27_18h15.06.323,avatar_quest_3AFC_legacy,2022.1.3,Win32,59.88023952,672c0491c5ac03124a6c1bd3,67e5c8c9bc10e40b86efc6fc,67e5caa4b12acb694b9993a1,,,,,,,,,,,,,,,,,,,,,,No Brainslug Difficult 2 No Money,12,images/assets/snowy_original.jpg,learning,20,images/assets/success.jpg,images/assets/gameover.jpg,,,,,,,,,,,,,0,1,1,8,1,,,,,,,,,,,,,,,,,,,,,,,,,,,,,,,,
,,,,,,,,,,,,672c0491c5ac03124a6c1bd3,001,3,2025-03-27_18h15.06.323,avatar_quest_3AFC_legacy,2022.1.3,Win32,59.88023952,672c0491c5ac03124a6c1bd3,67e5c8c9bc10e40b86efc6fc,67e5caa4b12acb694b9993a1,,,,,,,,,,,,,,,,,,,,,,No Brainslug No Barriers No Money,0,images/assets/snowy_original.jpg,learning,10,images/assets/success.jpg,images/assets/gameover.jpg,,,,,,,,,,,,,0,2,2,10,1,,,,,,,,,,,,,,,,,,,,,,,,,,,,,,,,
,,,,,,,,,,,,672c0491c5ac03124a6c1bd3,001,3,2025-03-27_18h15.06.323,avatar_quest_3AFC_legacy,2022.1.3,Win32,59.88023952,672c0491c5ac03124a6c1bd3,67e5c8c9bc10e40b86efc6fc,67e5caa4b12acb694b9993a1,,,,,,,,,,,,,,,,,,,,,,With Brainslug No Barriers With Money,0,images/assets/snowy_money.jpg,learning,10,images/assets/success_money.jpg,images/assets/gameover.jpg,,,,,,,,,,,,,0,3,3,4,1,,,,,,,,,,,,,,,,,,,,,,,,,,,,,,,,
,,,,,,,,,,,,672c0491c5ac03124a6c1bd3,001,3,2025-03-27_18h15.06.323,avatar_quest_3AFC_legacy,2022.1.3,Win32,59.88023952,672c0491c5ac03124a6c1bd3,67e5c8c9bc10e40b86efc6fc,67e5caa4b12acb694b9993a1,,,,,,,,,,,,,,,,,,,,,,With Brainslug Difficult 2 No Money,12,images/assets/snowy_original.jpg,learning,20,images/assets/success.jpg,images/assets/gameover.jpg,,,,,,,,,,,,,0,4,4,3,1,,,,,,,,,,,,,,,,,,,,,,,,,,,,,,,,
,,,,,,,,,,,,672c0491c5ac03124a6c1bd3,001,3,2025-03-27_18h15.06.323,avatar_quest_3AFC_legacy,2022.1.3,Win32,59.88023952,672c0491c5ac03124a6c1bd3,67e5c8c9bc10e40b86efc6fc,67e5caa4b12acb694b9993a1,,,,,,,,,,,,,,,,,,,,,,With Brainslug No Barriers No Money,0,images/assets/snowy_original.jpg,learning,10,images/assets/success.jpg,images/assets/gameover.jpg,,,,,,,,,,,,,0,5,5,5,1,,,,,,,,,,,,,,,,,,,,,,,,,,,,,,,,
,,,,,,,,,,,,672c0491c5ac03124a6c1bd3,001,3,2025-03-27_18h15.06.323,avatar_quest_3AFC_legacy,2022.1.3,Win32,59.88023952,672c0491c5ac03124a6c1bd3,67e5c8c9bc10e40b86efc6fc,67e5caa4b12acb694b9993a1,,,,,,,,,,,,,,,,,,,,,,No Brainslug Difficult 2 With Money,12,images/assets/snowy_money.jpg,learning,20,images/assets/success_money.jpg,images/assets/gameover.jpg,,,,,,,,,,,,,0,6,6,7,1,,,,,,,,,,,,,,,,,,,,,,,,,,,,,,,,
,,,,,,,,,,,,672c0491c5ac03124a6c1bd3,001,3,2025-03-27_18h15.06.323,avatar_quest_3AFC_legacy,2022.1.3,Win32,59.88023952,672c0491c5ac03124a6c1bd3,67e5c8c9bc10e40b86efc6fc,67e5caa4b12acb694b9993a1,,,,,,,,,,,,,,,,,,,,,,With Brainslug Difficult 2 With Money,12,images/assets/snowy_money.jpg,learning,20,images/assets/success_money.jpg,images/assets/gameover.jpg,,,,,,,,,,,,,0,7,7,2,1,,,,,,,,,,,,,,,,,,,,,,,,,,,,,,,,
,,,,,,,,,,,,672c0491c5ac03124a6c1bd3,001,3,2025-03-27_18h15.06.323,avatar_quest_3AFC_legacy,2022.1.3,Win32,59.88023952,672c0491c5ac03124a6c1bd3,67e5c8c9bc10e40b86efc6fc,67e5caa4b12acb694b9993a1,,,,,,,,,,,,,,,,,,,,,,With Brainslug Difficult 1 With Money,6,images/assets/snowy_money.jpg,learning,20,images/assets/success_money.jpg,images/assets/gameover.jpg,,,,,,,,,,,,,0,8,8,0,1,,,,,,,,,,,,,,,,,,,,,,,,,,,,,,,,
,,,,,,,,,,,,672c0491c5ac03124a6c1bd3,001,3,2025-03-27_18h15.06.323,avatar_quest_3AFC_legacy,2022.1.3,Win32,59.88023952,672c0491c5ac03124a6c1bd3,67e5c8c9bc10e40b86efc6fc,67e5caa4b12acb694b9993a1,,,,,,,,,,,,,,,,,,,,,,No Brainslug Difficult 1 No Money,6,images/assets/snowy_original.jpg,learning,20,images/assets/success.jpg,images/assets/gameover.jpg,,,,,,,,,,,,,0,9,9,6,1,,,,,,,,,,,,,,,,,,,,,,,,,,,,,,,,
,,,,,,,,,,,,672c0491c5ac03124a6c1bd3,001,3,2025-03-27_18h15.06.323,avatar_quest_3AFC_legacy,2022.1.3,Win32,59.88023952,672c0491c5ac03124a6c1bd3,67e5c8c9bc10e40b86efc6fc,67e5caa4b12acb694b9993a1,"[""right"",""left"",""left"",""left"",""right"",""right"",""right"",""up"",""up"",""up"",""left"",""left"",""right""]","[2.0054999999999836,2.3284999999999627,2.6542999999522863,3.108399999976143,3.3763999999761154,3.7384999999999877,4.768899999976156,5.028799999952298,5.480899999976145,5.613699999928485,5.730299999952308,5.931299999952273,6.3943999999761445]",,calibration,No Brainslug No Barriers With Money,16,8.48912,7.599,10,0,132,TRUE,na,na,na,na,,,,,,,,,,,,,,,,,,,,,,,,,,,,,,,,,,0,0,0,0,1,,,,,,,,,,,,,,,,,,,,,,,
,,,,,,,,,,,,672c0491c5ac03124a6c1bd3,001,3,2025-03-27_18h15.06.323,avatar_quest_3AFC_legacy,2022.1.3,Win32,59.88023952,672c0491c5ac03124a6c1bd3,67e5c8c9bc10e40b86efc6fc,67e5caa4b12acb694b9993a1,,,,,,,,,,,,,,,,,,,,,,No Brainslug No Barriers With Money,0,images/assets/snowy_money.jpg,learning,10,images/assets/success_money.jpg,images/assets/gameover.jpg,,,,,,,,,,,,,0,10,10,9,1,,,,,,,,,,,,,,,,,,,,,,,,,,,,,,,,
,,,,,,,,,,,,672c0491c5ac03124a6c1bd3,001,3,2025-03-27_18h15.06.323,avatar_quest_3AFC_legacy,2022.1.3,Win32,59.88023952,672c0491c5ac03124a6c1bd3,67e5c8c9bc10e40b86efc6fc,67e5caa4b12acb694b9993a1,,,,,,,,,,,,,,,,,,,,,,,,,,,,,,,,,,,,,,,,,,,,,,,,,,,,,,,0,0,0,0,1,,,,,,,,,,,,,,,,,,
,,,,,,,,,,,,672c0491c5ac03124a6c1bd3,001,3,2025-03-27_18h15.06.323,avatar_quest_3AFC_legacy,2022.1.3,Win32,59.88023952,672c0491c5ac03124a6c1bd3,67e5c8c9bc10e40b86efc6fc,67e5caa4b12acb694b9993a1,,,,,,,,,,,,,,,,,,,,,,With Brainslug Difficult 1 With Money,6,images/assets/snowy_money.jpg,learning,20,images/assets/success_money.jpg,images/assets/gameover.jpg,,,,,,,,No Brainslug No Barriers With Money,No Brainslug No Barriers No Money,right,1.4694,"[""No Brainslug No Barriers No Money"",""No Brainslug Difficult 1 No Money""]",0,0,0,0,1,,,,,,,,,,,,,,,,,,,,,,,,,,,,,,,,
,,,,,,,,,,,,672c0491c5ac03124a6c1bd3,001,3,2025-03-27_18h15.06.323,avatar_quest_3AFC_legacy,2022.1.3,Win32,59.88023952,672c0491c5ac03124a6c1bd3,67e5c8c9bc10e40b86efc6fc,67e5caa4b12acb694b9993a1,,,,,,,,,,,,,,,,,,,,,,No Brainslug Difficult 2 No Money,12,images/assets/snowy_original.jpg,learning,20,images/assets/success.jpg,images/assets/gameover.jpg,,,,,,,,,,,,,0,1,1,8,1,,,,,,,,,,,,,,,,,,,,,,,,,,,,,,,,
,,,,,,,,,,,,672c0491c5ac03124a6c1bd3,001,3,2025-03-27_18h15.06.323,avatar_quest_3AFC_legacy,2022.1.3,Win32,59.88023952,672c0491c5ac03124a6c1bd3,67e5c8c9bc10e40b86efc6fc,67e5caa4b12acb694b9993a1,,,,,,,,,,,,,,,,,,,,,,No Brainslug Difficult 2 With Money,12,images/assets/snowy_money.jpg,learning,20,images/assets/success_money.jpg,images/assets/gameover.jpg,,,,,,,,,,,,,0,2,2,7,1,,,,,,,,,,,,,,,,,,,,,,,,,,,,,,,,
,,,,,,,,,,,,672c0491c5ac03124a6c1bd3,001,3,2025-03-27_18h15.06.323,avatar_quest_3AFC_legacy,2022.1.3,Win32,59.88023952,672c0491c5ac03124a6c1bd3,67e5c8c9bc10e40b86efc6fc,67e5caa4b12acb694b9993a1,,,,,,,,,,,,,,,,,,,,,,With Brainslug No Barriers With Money,0,images/assets/snowy_money.jpg,learning,10,images/assets/success_money.jpg,images/assets/gameover.jpg,,,,,,,,,,,,,0,3,3,4,1,,,,,,,,,,,,,,,,,,,,,,,,,,,,,,,,
,,,,,,,,,,,,672c0491c5ac03124a6c1bd3,001,3,2025-03-27_18h15.06.323,avatar_quest_3AFC_legacy,2022.1.3,Win32,59.88023952,672c0491c5ac03124a6c1bd3,67e5c8c9bc10e40b86efc6fc,67e5caa4b12acb694b9993a1,,,,,,,,,,,,,,,,,,,,,,With Brainslug No Barriers No Money,0,images/assets/snowy_original.jpg,learning,10,images/assets/success.jpg,images/assets/gameover.jpg,,,,,,,,,,,,,0,4,4,5,1,,,,,,,,,,,,,,,,,,,,,,,,,,,,,,,,
,,,,,,,,,,,,672c0491c5ac03124a6c1bd3,001,3,2025-03-27_18h15.06.323,avatar_quest_3AFC_legacy,2022.1.3,Win32,59.88023952,672c0491c5ac03124a6c1bd3,67e5c8c9bc10e40b86efc6fc,67e5caa4b12acb694b9993a1,,,,,,,,,,,,,,,,,,,,,,With Brainslug Difficult 1 No Money,6,images/assets/snowy_original.jpg,learning,20,images/assets/success.jpg,images/assets/gameover.jpg,,,,,,,,,,,,,0,5,5,1,1,,,,,,,,,,,,,,,,,,,,,,,,,,,,,,,,
,,,,,,,,,,,,672c0491c5ac03124a6c1bd3,001,3,2025-03-27_18h15.06.323,avatar_quest_3AFC_legacy,2022.1.3,Win32,59.88023952,672c0491c5ac03124a6c1bd3,67e5c8c9bc10e40b86efc6fc,67e5caa4b12acb694b9993a1,,,,,,,,,,,,,,,,,,,,,,With Brainslug Difficult 2 With Money,12,images/assets/snowy_money.jpg,learning,20,images/assets/success_money.jpg,images/assets/gameover.jpg,,,,,,,,,,,,,0,6,6,2,1,,,,,,,,,,,,,,,,,,,,,,,,,,,,,,,,
,,,,,,,,,,,,672c0491c5ac03124a6c1bd3,001,3,2025-03-27_18h15.06.323,avatar_quest_3AFC_legacy,2022.1.3,Win32,59.88023952,672c0491c5ac03124a6c1bd3,67e5c8c9bc10e40b86efc6fc,67e5caa4b12acb694b9993a1,,,,,,,,,,,,,,,,,,,,,,No Brainslug Difficult 1 No Money,6,images/assets/snowy_original.jpg,learning,20,images/assets/success.jpg,images/assets/gameover.jpg,,,,,,,,,,,,,0,7,7,6,1,,,,,,,,,,,,,,,,,,,,,,,,,,,,,,,,
,,,,,,,,,,,,672c0491c5ac03124a6c1bd3,001,3,2025-03-27_18h15.06.323,avatar_quest_3AFC_legacy,2022.1.3,Win32,59.88023952,672c0491c5ac03124a6c1bd3,67e5c8c9bc10e40b86efc6fc,67e5caa4b12acb694b9993a1,"[""left"",""left"",""right"",""right"",""left"",""left"",""right"",""right"",""left"",""left"",""right""]","[0.785399999976164,0.9517999999522999,1.153699999928449,1.36879999995233,2.0806000000238214,2.2893999999761263,3.44139999997617,3.611799999952325,4.37719999992845,4.567299999952297,4.805199999928448]",,calibration,No Brainslug No Barriers With Money,17,8.48912,5.9662,11,0,46,TRUE,na,na,na,na,,,,,,,,,,,,,,,,,,,,,,,,,,,,,,,,,,0,0,0,0,1,,,,,,,,,,,,,,,,,,,,,,,
,,,,,,,,,,,,672c0491c5ac03124a6c1bd3,001,3,2025-03-27_18h15.06.323,avatar_quest_3AFC_legacy,2022.1.3,Win32,59.88023952,672c0491c5ac03124a6c1bd3,67e5c8c9bc10e40b86efc6fc,67e5caa4b12acb694b9993a1,,,,,,,,,,,,,,,,,,,,,,No Brainslug No Barriers With Money,0,images/assets/snowy_money.jpg,learning,10,images/assets/success_money.jpg,images/assets/gameover.jpg,,,,,,,,,,,,,0,8,8,9,1,,,,,,,,,,,,,,,,,,,,,,,,,,,,,,,,
,,,,,,,,,,,,672c0491c5ac03124a6c1bd3,001,3,2025-03-27_18h15.06.323,avatar_quest_3AFC_legacy,2022.1.3,Win32,59.88023952,672c0491c5ac03124a6c1bd3,67e5c8c9bc10e40b86efc6fc,67e5caa4b12acb694b9993a1,,,,,,,,,,,,,,,,,,,,,,With Brainslug Difficult 2 No Money,12,images/assets/snowy_original.jpg,learning,20,images/assets/success.jpg,images/assets/gameover.jpg,,,,,,,,,,,,,0,9,9,3,1,,,,,,,,,,,,,,,,,,,,,,,,,,,,,,,,
,,,,,,,,,,,,672c0491c5ac03124a6c1bd3,001,3,2025-03-27_18h15.06.323,avatar_quest_3AFC_legacy,2022.1.3,Win32,59.88023952,672c0491c5ac03124a6c1bd3,67e5c8c9bc10e40b86efc6fc,67e5caa4b12acb694b9993a1,,,,,,,,,,,,,,,,,,,,,,No Brainslug No Barriers No Money,0,images/assets/snowy_original.jpg,learning,10,images/assets/success.jpg,images/assets/gameover.jpg,,,,,,,,,,,,,0,10,10,10,1,,,,,,,,,,,,,,,,,,,,,,,,,,,,,,,,
,,,,,,,,,,,,672c0491c5ac03124a6c1bd3,001,3,2025-03-27_18h15.06.323,avatar_quest_3AFC_legacy,2022.1.3,Win32,59.88023952,672c0491c5ac03124a6c1bd3,67e5c8c9bc10e40b86efc6fc,67e5caa4b12acb694b9993a1,,,,,,,,,,,,,,,,,,,,,,,,,,,,,,,,,,,,,,,,,,,,,,,,,,,,,,,1,0,1,0,1,,,,,,,,,,,,,,,,,,
,,,,,,,,,,,,672c0491c5ac03124a6c1bd3,001,3,2025-03-27_18h15.06.323,avatar_quest_3AFC_legacy,2022.1.3,Win32,59.88023952,672c0491c5ac03124a6c1bd3,67e5c8c9bc10e40b86efc6fc,67e5caa4b12acb694b9993a1,,,,,,,,,,,,,,,,,,,,,,No Brainslug Difficult 1 No Money,6,images/assets/snowy_original.jpg,learning,20,images/assets/success.jpg,images/assets/gameover.jpg,,,,,,,,No Brainslug No Barriers With Money,No Brainslug No Barriers No Money,right,2.7134,"[""No Brainslug No Barriers No Money"",""No Brainslug Difficult 1 No Money""]",0,0,0,6,1,,,,,,,,,,,,,,,,,,,,,,,,,,,,,,,,
,,,,,,,,,,,,672c0491c5ac03124a6c1bd3,001,3,2025-03-27_18h15.06.323,avatar_quest_3AFC_legacy,2022.1.3,Win32,59.88023952,672c0491c5ac03124a6c1bd3,67e5c8c9bc10e40b86efc6fc,67e5caa4b12acb694b9993a1,,,,,,,,,,,,,,,,,,,,,,No Brainslug No Barriers No Money,0,images/assets/snowy_original.jpg,learning,10,images/assets/success.jpg,images/assets/gameover.jpg,,,,,,,,,,,,,0,1,1,10,1,,,,,,,,,,,,,,,,,,,,,,,,,,,,,,,,
,,,,,,,,,,,,672c0491c5ac03124a6c1bd3,001,3,2025-03-27_18h15.06.323,avatar_quest_3AFC_legacy,2022.1.3,Win32,59.88023952,672c0491c5ac03124a6c1bd3,67e5c8c9bc10e40b86efc6fc,67e5caa4b12acb694b9993a1,,,,,,,,,,,,,,,,,,,,,,With Brainslug No Barriers No Money,0,images/assets/snowy_original.jpg,learning,10,images/assets/success.jpg,images/assets/gameover.jpg,,,,,,,,,,,,,0,2,2,5,1,,,,,,,,,,,,,,,,,,,,,,,,,,,,,,,,
,,,,,,,,,,,,672c0491c5ac03124a6c1bd3,001,3,2025-03-27_18h15.06.323,avatar_quest_3AFC_legacy,2022.1.3,Win32,59.88023952,672c0491c5ac03124a6c1bd3,67e5c8c9bc10e40b86efc6fc,67e5caa4b12acb694b9993a1,,,,,,,,,,,,,,,,,,,,,,With Brainslug Difficult 1 With Money,6,images/assets/snowy_money.jpg,learning,20,images/assets/success_money.jpg,images/assets/gameover.jpg,,,,,,,,,,,,,0,3,3,0,1,,,,,,,,,,,,,,,,,,,,,,,,,,,,,,,,
,,,,,,,,,,,,672c0491c5ac03124a6c1bd3,001,3,2025-03-27_18h15.06.323,avatar_quest_3AFC_legacy,2022.1.3,Win32,59.88023952,672c0491c5ac03124a6c1bd3,67e5c8c9bc10e40b86efc6fc,67e5caa4b12acb694b9993a1,,,,,,,,,,,,,,,,,,,,,,With Brainslug No Barriers With Money,0,images/assets/snowy_money.jpg,learning,10,images/assets/success_money.jpg,images/assets/gameover.jpg,,,,,,,,,,,,,0,4,4,4,1,,,,,,,,,,,,,,,,,,,,,,,,,,,,,,,,
,,,,,,,,,,,,672c0491c5ac03124a6c1bd3,001,3,2025-03-27_18h15.06.323,avatar_quest_3AFC_legacy,2022.1.3,Win32,59.88023952,672c0491c5ac03124a6c1bd3,67e5c8c9bc10e40b86efc6fc,67e5caa4b12acb694b9993a1,,,,,,,,,,,,,,,,,,,,,,With Brainslug Difficult 1 No Money,6,images/assets/snowy_original.jpg,learning,20,images/assets/success.jpg,images/assets/gameover.jpg,,,,,,,,,,,,,0,5,5,1,1,,,,,,,,,,,,,,,,,,,,,,,,,,,,,,,,
,,,,,,,,,,,,672c0491c5ac03124a6c1bd3,001,3,2025-03-27_18h15.06.323,avatar_quest_3AFC_legacy,2022.1.3,Win32,59.88023952,672c0491c5ac03124a6c1bd3,67e5c8c9bc10e40b86efc6fc,67e5caa4b12acb694b9993a1,,,,,,,,,,,,,,,,,,,,,,No Brainslug Difficult 2 With Money,12,images/assets/snowy_money.jpg,learning,20,images/assets/success_money.jpg,images/assets/gameover.jpg,,,,,,,,,,,,,0,6,6,7,1,,,,,,,,,,,,,,,,,,,,,,,,,,,,,,,,
,,,,,,,,,,,,672c0491c5ac03124a6c1bd3,001,3,2025-03-27_18h15.06.323,avatar_quest_3AFC_legacy,2022.1.3,Win32,59.88023952,672c0491c5ac03124a6c1bd3,67e5c8c9bc10e40b86efc6fc,67e5caa4b12acb694b9993a1,,,,,,,,,,,,,,,,,,,,,,No Brainslug Difficult 2 No Money,12,images/assets/snowy_original.jpg,learning,20,images/assets/success.jpg,images/assets/gameover.jpg,,,,,,,,,,,,,0,7,7,8,1,,,,,,,,,,,,,,,,,,,,,,,,,,,,,,,,
,,,,,,,,,,,,672c0491c5ac03124a6c1bd3,001,3,2025-03-27_18h15.06.323,avatar_quest_3AFC_legacy,2022.1.3,Win32,59.88023952,672c0491c5ac03124a6c1bd3,67e5c8c9bc10e40b86efc6fc,67e5caa4b12acb694b9993a1,"[""left"",""left"",""right"",""right"",""left""]","[1.951100000023871,2.6698000000715183,3.394300000071553,3.9806000000238555,4.670300000071563]",,calibration,No Brainslug No Barriers With Money,18,8.48912,5.4824,5,0,0,TRUE,na,na,na,na,,,,,,,,,,,,,,,,,,,,,,,,,,,,,,,,,,0,0,0,0,1,,,,,,,,,,,,,,,,,,,,,,,
