instruction_mouse.x,instruction_mouse.y,instruction_mouse.leftButton,instruction_mouse.midButton,instruction_mouse.rightButton,instruction_mouse.clicked_name,introduce_general.thisRepN,introduce_general.thisTrialN,introduce_general.thisN,introduce_general.thisIndex,introduce_general.ran,thisInstruction,participant,session,game version,date,expName,psychopyVersion,OS,frameRate,PROLIFIC PID,STUDY ID,SESSION ID,move_resp.keys,move_resp.rt,end_resp.keys,phase,condition,trial_num,time_limit,completion_time,left_right_steps,number_of_obsticle_blocks,number_of_tree_blocks,quest_complete,responsivity_summary,av_inter_brainslug_intervals,proportion_jitter,jitter_direction_proportion_right,calibration_phase.thisRepN,calibration_phase.thisTrialN,calibration_phase.thisN,calibration_phase.thisIndex,calibration_phase.ran,BlockLabel,nObsticles,backgroundImage,phaseLabel,n_side_steps,success_im,gameover_im,success_condition,introduce_learning_or_choice.thisRepN,introduce_learning_or_choice.thisTrialN,introduce_learning_or_choice.thisN,introduce_learning_or_choice.thisIndex,introduce_learning_or_choice.ran,choice_resp.keys,chosen_quest,unchosen_quest,choice_resp_3afc.keys,choice_resp_3afc.rt,unchosen_quests,forced_choice_trial.thisRepN,forced_choice_trial.thisTrialN,forced_choice_trial.thisN,forced_choice_trial.thisIndex,forced_choice_trial.ran,enjoyment_slider.response,enjoyment_slider.rt,effort_slider.response,effort_slider.rt,show_loop2.thisRepN,show_loop2.thisTrialN,show_loop2.thisN,show_loop2.thisIndex,show_loop2.ran,trials_per_block.thisRepN,trials_per_block.thisTrialN,trials_per_block.thisN,trials_per_block.thisIndex,trials_per_block.ran,decision_phase_AFC.thisRepN,decision_phase_AFC.thisTrialN,decision_phase_AFC.thisN,decision_phase_AFC.thisIndex,decision_phase_AFC.ran,blockN,BlockLabel1,questIm1,BlockLabel2,questIm2,BlockLabel3,questIm3,quest_condition,showForcedChoice.thisRepN,showForcedChoice.thisTrialN,showForcedChoice.thisN,showForcedChoice.thisIndex,showForcedChoice.ran
0.33203125,-0.401041667,1,0,0,instruction_button,0,0,0,0,1,images/instructions_part1_LSM_taskversion1/Slide1.JPG,675def962e621909f289e12d,001,3,2025-04-15_08h24.02.559,avatar_quest_3AFC_legacy,2022.1.3,Win32,29.85074627,675def962e621909f289e12d,67fe6e666cecbc9329ddf6d6,67fe7559fa122bde75677258,,,,,,,,,,,,,,,,,,,,,,,,,,,,,,,,,,,,,,,,,,,,,,,,,,,,,,,,,,,,,,,,,,,,,,,,,,,,,
0.35546875,-0.399739583,1,0,0,instruction_button,0,1,1,1,1,images/instructions_part1_LSM_taskversion1/Slide2.JPG,675def962e621909f289e12d,001,3,2025-04-15_08h24.02.559,avatar_quest_3AFC_legacy,2022.1.3,Win32,29.85074627,675def962e621909f289e12d,67fe6e666cecbc9329ddf6d6,67fe7559fa122bde75677258,,,,,,,,,,,,,,,,,,,,,,,,,,,,,,,,,,,,,,,,,,,,,,,,,,,,,,,,,,,,,,,,,,,,,,,,,,,,,
0.35546875,-0.399739583,1,0,0,instruction_button,0,2,2,2,1,images/instructions_part1_LSM_taskversion1/Slide3.JPG,675def962e621909f289e12d,001,3,2025-04-15_08h24.02.559,avatar_quest_3AFC_legacy,2022.1.3,Win32,29.85074627,675def962e621909f289e12d,67fe6e666cecbc9329ddf6d6,67fe7559fa122bde75677258,,,,,,,,,,,,,,,,,,,,,,,,,,,,,,,,,,,,,,,,,,,,,,,,,,,,,,,,,,,,,,,,,,,,,,,,,,,,,
0.35546875,-0.399739583,1,0,0,instruction_button,0,3,3,3,1,images/instructions_part1_LSM_taskversion1/Slide3.5.JPG,675def962e621909f289e12d,001,3,2025-04-15_08h24.02.559,avatar_quest_3AFC_legacy,2022.1.3,Win32,29.85074627,675def962e621909f289e12d,67fe6e666cecbc9329ddf6d6,67fe7559fa122bde75677258,,,,,,,,,,,,,,,,,,,,,,,,,,,,,,,,,,,,,,,,,,,,,,,,,,,,,,,,,,,,,,,,,,,,,,,,,,,,,
0.420572917,-0.399739583,1,0,0,instruction_button,0,4,4,4,1,images/instructions_part1_LSM_taskversion1/Slide4.JPG,675def962e621909f289e12d,001,3,2025-04-15_08h24.02.559,avatar_quest_3AFC_legacy,2022.1.3,Win32,29.85074627,675def962e621909f289e12d,67fe6e666cecbc9329ddf6d6,67fe7559fa122bde75677258,,,,,,,,,,,,,,,,,,,,,,,,,,,,,,,,,,,,,,,,,,,,,,,,,,,,,,,,,,,,,,,,,,,,,,,,,,,,,
0.416666667,-0.3984375,1,0,0,instruction_button,0,5,5,5,1,images/instructions_part1_LSM_taskversion1/Slide6.5.JPG,675def962e621909f289e12d,001,3,2025-04-15_08h24.02.559,avatar_quest_3AFC_legacy,2022.1.3,Win32,29.85074627,675def962e621909f289e12d,67fe6e666cecbc9329ddf6d6,67fe7559fa122bde75677258,,,,,,,,,,,,,,,,,,,,,,,,,,,,,,,,,,,,,,,,,,,,,,,,,,,,,,,,,,,,,,,,,,,,,,,,,,,,,
,,,,,,,,,,,,675def962e621909f289e12d,001,3,2025-04-15_08h24.02.559,avatar_quest_3AFC_legacy,2022.1.3,Win32,29.85074627,675def962e621909f289e12d,67fe6e666cecbc9329ddf6d6,67fe7559fa122bde75677258,"[""left"",""left"",""left"",""left"",""right"",""right"",""right""]","[1.8698999999761554,2.8861999999880936,3.4358999999761863,4.323699999988094,4.836599999964221,5.069800000011924,5.270199999988108]",,calibration,No Brainslug No Barriers No Money,1,100,5.4399,6,0,0,TRUE,na,na,na,na,0,0,0,2,1,No Brainslug No Barriers No Money,0,images/assets/snowy_original.jpg,calibration,10,images/assets/success.jpg,images/assets/gameover.jpg,never,,,,,,,,,,,,,,,,,,,,,,,,,,,,,,,,,,,,,,,,,,,,,,,,
,,,,,,,,,,,,675def962e621909f289e12d,001,3,2025-04-15_08h24.02.559,avatar_quest_3AFC_legacy,2022.1.3,Win32,29.85074627,675def962e621909f289e12d,67fe6e666cecbc9329ddf6d6,67fe7559fa122bde75677258,"[""right"",""right"",""right"",""right"",""left"",""left"",""left"",""left"",""left"",""left"",""left"",""left"",""left""]","[0.09819999998808271,0.6804000000357746,0.9973000000119328,1.1808000000119137,1.6795000000000186,1.9141000000238364,2.481300000011913,2.6641000000238364,3.332600000023831,3.454600000023845,3.614100000023825,3.8146000000238587,3.99790000003577]",,calibration,No Brainslug No Barriers No Money,2,100,5.3966,5,0,0,TRUE,na,na,na,na,0,1,1,0,1,No Brainslug No Barriers No Money,0,images/assets/snowy_original.jpg,calibration,10,images/assets/success.jpg,images/assets/gameover.jpg,never,,,,,,,,,,,,,,,,,,,,,,,,,,,,,,,,,,,,,,,,,,,,,,,,
,,,,,,,,,,,,675def962e621909f289e12d,001,3,2025-04-15_08h24.02.559,avatar_quest_3AFC_legacy,2022.1.3,Win32,29.85074627,675def962e621909f289e12d,67fe6e666cecbc9329ddf6d6,67fe7559fa122bde75677258,"[""left"",""left"",""left"",""left"",""left"",""left"",""right"",""right"",""right"",""right"",""right"",""right"",""right"",""right"",""right""]","[1.4206999999880736,2.328699999988089,2.5461999999881186,2.9880999999642768,3.1808000000119137,3.435399999976198,3.663000000000011,3.8963000000119337,4.321199999988096,4.463999999999999,4.6360999999642445,4.830500000000029,4.921300000011911,5.114099999964253,5.369199999988098]",,calibration,No Brainslug No Barriers No Money,3,100,5.3822,7,0,0,TRUE,na,na,na,na,0,2,2,1,1,No Brainslug No Barriers No Money,0,images/assets/snowy_original.jpg,calibration,10,images/assets/success.jpg,images/assets/gameover.jpg,never,,,,,,,,,,,,,,,,,,,,,,,,,,,,,,,,,,,,,,,,,,,,,,,,
0.3828125,-0.397135417,1,0,0,instruction_button,,,,,,images/instructions_part2_LSM_taskversion3.jpg,675def962e621909f289e12d,001,3,2025-04-15_08h24.02.559,avatar_quest_3AFC_legacy,2022.1.3,Win32,29.85074627,675def962e621909f289e12d,67fe6e666cecbc9329ddf6d6,67fe7559fa122bde75677258,,,,,,,,,,,,,,,,,,,,,,,,,,,,,,0,0,0,0,1,,,,,,,,,,,,,,,,,,,,,,,,,,,,,,,,,,,,,,,,,,,
,,,,,,,,,,,,675def962e621909f289e12d,001,3,2025-04-15_08h24.02.559,avatar_quest_3AFC_legacy,2022.1.3,Win32,29.85074627,675def962e621909f289e12d,67fe6e666cecbc9329ddf6d6,67fe7559fa122bde75677258,,,,,,,,,,,,,,,,,,,,,,With Brainslug Difficult 1 With Money,6,images/assets/snowy_money.jpg,learning,20,images/assets/success_money.jpg,images/assets/gameover.jpg,,,,,,,,With Brainslug Difficult 2 With Money,With Brainslug Difficult 1 No Money,right,2.1239,"[""With Brainslug Difficult 1 No Money"",""With Brainslug Difficult 2 No Money""]",0,0,0,0,1,,,,,,,,,,,,,,,,,,,,,,,,,,,,,,,,
,,,,,,,,,,,,675def962e621909f289e12d,001,3,2025-04-15_08h24.02.559,avatar_quest_3AFC_legacy,2022.1.3,Win32,29.85074627,675def962e621909f289e12d,67fe6e666cecbc9329ddf6d6,67fe7559fa122bde75677258,,,,,,,,,,,,,,,,,,,,,,No Brainslug No Barriers No Money,0,images/assets/snowy_original.jpg,learning,10,images/assets/success.jpg,images/assets/gameover.jpg,,,,,,,,,,,,,0,1,1,10,1,,,,,,,,,,,,,,,,,,,,,,,,,,,,,,,,
,,,,,,,,,,,,675def962e621909f289e12d,001,3,2025-04-15_08h24.02.559,avatar_quest_3AFC_legacy,2022.1.3,Win32,29.85074627,675def962e621909f289e12d,67fe6e666cecbc9329ddf6d6,67fe7559fa122bde75677258,,,,,,,,,,,,,,,,,,,,,,No Brainslug No Barriers With Money,0,images/assets/snowy_money.jpg,learning,10,images/assets/success_money.jpg,images/assets/gameover.jpg,,,,,,,,,,,,,0,2,2,9,1,,,,,,,,,,,,,,,,,,,,,,,,,,,,,,,,
,,,,,,,,,,,,675def962e621909f289e12d,001,3,2025-04-15_08h24.02.559,avatar_quest_3AFC_legacy,2022.1.3,Win32,29.85074627,675def962e621909f289e12d,67fe6e666cecbc9329ddf6d6,67fe7559fa122bde75677258,,,,,,,,,,,,,,,,,,,,,,No Brainslug Difficult 1 No Money,6,images/assets/snowy_original.jpg,learning,20,images/assets/success.jpg,images/assets/gameover.jpg,,,,,,,,,,,,,0,3,3,6,1,,,,,,,,,,,,,,,,,,,,,,,,,,,,,,,,
,,,,,,,,,,,,675def962e621909f289e12d,001,3,2025-04-15_08h24.02.559,avatar_quest_3AFC_legacy,2022.1.3,Win32,29.85074627,675def962e621909f289e12d,67fe6e666cecbc9329ddf6d6,67fe7559fa122bde75677258,,,,,,,,,,,,,,,,,,,,,,No Brainslug Difficult 2 With Money,12,images/assets/snowy_money.jpg,learning,20,images/assets/success_money.jpg,images/assets/gameover.jpg,,,,,,,,,,,,,0,4,4,7,1,,,,,,,,,,,,,,,,,,,,,,,,,,,,,,,,
,,,,,,,,,,,,675def962e621909f289e12d,001,3,2025-04-15_08h24.02.559,avatar_quest_3AFC_legacy,2022.1.3,Win32,29.85074627,675def962e621909f289e12d,67fe6e666cecbc9329ddf6d6,67fe7559fa122bde75677258,,,,,,,,,,,,,,,,,,,,,,No Brainslug Difficult 2 No Money,12,images/assets/snowy_original.jpg,learning,20,images/assets/success.jpg,images/assets/gameover.jpg,,,,,,,,,,,,,0,5,5,8,1,,,,,,,,,,,,,,,,,,,,,,,,,,,,,,,,
,,,,,,,,,,,,675def962e621909f289e12d,001,3,2025-04-15_08h24.02.559,avatar_quest_3AFC_legacy,2022.1.3,Win32,29.85074627,675def962e621909f289e12d,67fe6e666cecbc9329ddf6d6,67fe7559fa122bde75677258,,,,,,,,,,,,,,,,,,,,,,With Brainslug No Barriers No Money,0,images/assets/snowy_original.jpg,learning,10,images/assets/success.jpg,images/assets/gameover.jpg,,,,,,,,,,,,,0,6,6,5,1,,,,,,,,,,,,,,,,,,,,,,,,,,,,,,,,
,,,,,,,,,,,,675def962e621909f289e12d,001,3,2025-04-15_08h24.02.559,avatar_quest_3AFC_legacy,2022.1.3,Win32,29.85074627,675def962e621909f289e12d,67fe6e666cecbc9329ddf6d6,67fe7559fa122bde75677258,"[""right"",""right"",""right"",""right"",""right"",""right"",""right"",""right"",""right"",""right"",""right"",""right"",""right"",""right"",""right"",""right"",""left"",""left"",""left"",""right""]","[1.4499999999999886,1.7828999999761663,2.364499999999964,2.546800000011899,2.7501999999880695,2.9331999999880622,3.196300000011888,3.401599999964219,3.6958000000119,4.415099999964241,5.031099999964226,5.3799999999999955,5.835199999988049,5.967099999964205,6.130699999988053,6.283199999988085,6.846399999976143,7.213300000011884,7.396899999976142,7.863599999964208]",,calibration,With Brainslug Difficult 2 With Money,4,8.10935,8.1173,5,4,0,FALSE,na,na,na,na,,,,,,,,,,,,,,,,,,,,,,,,,,,,,,,,,,0,0,0,0,1,,,,,,,,,,,,,,,,,,,,,,,
,,,,,,,,,,,,675def962e621909f289e12d,001,3,2025-04-15_08h24.02.559,avatar_quest_3AFC_legacy,2022.1.3,Win32,29.85074627,675def962e621909f289e12d,67fe6e666cecbc9329ddf6d6,67fe7559fa122bde75677258,,,,,,,,,,,,,,,,,,,,,,With Brainslug Difficult 2 With Money,12,images/assets/snowy_money.jpg,learning,20,images/assets/success_money.jpg,images/assets/gameover.jpg,,,,,,,,,,,,,0,7,7,2,1,,,,,,,,,,,,,,,,,,,,,,,,,,,,,,,,
,,,,,,,,,,,,675def962e621909f289e12d,001,3,2025-04-15_08h24.02.559,avatar_quest_3AFC_legacy,2022.1.3,Win32,29.85074627,675def962e621909f289e12d,67fe6e666cecbc9329ddf6d6,67fe7559fa122bde75677258,,,,,,,,,,,,,,,,,,,,,,With Brainslug Difficult 1 No Money,6,images/assets/snowy_original.jpg,learning,20,images/assets/success.jpg,images/assets/gameover.jpg,,,,,,,,,,,,,0,8,8,1,1,,,,,,,,,,,,,,,,,,,,,,,,,,,,,,,,
,,,,,,,,,,,,675def962e621909f289e12d,001,3,2025-04-15_08h24.02.559,avatar_quest_3AFC_legacy,2022.1.3,Win32,29.85074627,675def962e621909f289e12d,67fe6e666cecbc9329ddf6d6,67fe7559fa122bde75677258,,,,,,,,,,,,,,,,,,,,,,With Brainslug No Barriers With Money,0,images/assets/snowy_money.jpg,learning,10,images/assets/success_money.jpg,images/assets/gameover.jpg,,,,,,,,,,,,,0,9,9,4,1,,,,,,,,,,,,,,,,,,,,,,,,,,,,,,,,
,,,,,,,,,,,,675def962e621909f289e12d,001,3,2025-04-15_08h24.02.559,avatar_quest_3AFC_legacy,2022.1.3,Win32,29.85074627,675def962e621909f289e12d,67fe6e666cecbc9329ddf6d6,67fe7559fa122bde75677258,,,,,,,,,,,,,,,,,,,,,,With Brainslug Difficult 2 No Money,12,images/assets/snowy_original.jpg,learning,20,images/assets/success.jpg,images/assets/gameover.jpg,,,,,,,,,,,,,0,10,10,3,1,,,,,,,,,,,,,,,,,,,,,,,,,,,,,,,,
,,,,,,,,,,,,675def962e621909f289e12d,001,3,2025-04-15_08h24.02.559,avatar_quest_3AFC_legacy,2022.1.3,Win32,29.85074627,675def962e621909f289e12d,67fe6e666cecbc9329ddf6d6,67fe7559fa122bde75677258,,,,,,,,,,,,,,,,,,,,,,,,,,,,,,,,,,,,,,,,,,,,,,,,,,,,,,,0,0,0,0,1,,,,,,,,,,,,,,,,,,
,,,,,,,,,,,,675def962e621909f289e12d,001,3,2025-04-15_08h24.02.559,avatar_quest_3AFC_legacy,2022.1.3,Win32,29.85074627,675def962e621909f289e12d,67fe6e666cecbc9329ddf6d6,67fe7559fa122bde75677258,,,,,,,,,,,,,,,,,,,,,,No Brainslug Difficult 2 With Money,12,images/assets/snowy_money.jpg,learning,20,images/assets/success_money.jpg,images/assets/gameover.jpg,,,,,,,,With Brainslug Difficult 2 No Money,With Brainslug Difficult 1 No Money,down,5.8705,"[""With Brainslug Difficult 1 No Money"",""With Brainslug Difficult 2 With Money""]",0,0,0,7,1,,,,,,,,,,,,,,,,,,,,,,,,,,,,,,,,
,,,,,,,,,,,,675def962e621909f289e12d,001,3,2025-04-15_08h24.02.559,avatar_quest_3AFC_legacy,2022.1.3,Win32,29.85074627,675def962e621909f289e12d,67fe6e666cecbc9329ddf6d6,67fe7559fa122bde75677258,,,,,,,,,,,,,,,,,,,,,,With Brainslug Difficult 1 With Money,6,images/assets/snowy_money.jpg,learning,20,images/assets/success_money.jpg,images/assets/gameover.jpg,,,,,,,,,,,,,0,1,1,0,1,,,,,,,,,,,,,,,,,,,,,,,,,,,,,,,,
,,,,,,,,,,,,675def962e621909f289e12d,001,3,2025-04-15_08h24.02.559,avatar_quest_3AFC_legacy,2022.1.3,Win32,29.85074627,675def962e621909f289e12d,67fe6e666cecbc9329ddf6d6,67fe7559fa122bde75677258,"[""left"",""left"",""left"",""right"",""right"",""left"",""left"",""left"",""left"",""left"",""left"",""right"",""right"",""right"",""right"",""right"",""right"",""left"",""left"",""left"",""left"",""left"",""left"",""left"",""right""]","[0.6225999999642227,0.8725999999642227,1.0275999999642522,1.2895999999642527,1.526599999964219,1.672599999964234,3.8258999999761727,4.011299999952314,4.175999999999988,4.4087999999522935,4.582199999988063,5.161999999999978,5.376399999976172,5.558499999999981,5.858299999952294,6.0245999999642095,6.24179999995232,6.406099999964226,6.607099999964248,6.773500000000013,6.924899999976162,7.13900000000001,7.306899999976167,7.658099999964236,7.97409999996421]",,calibration,With Brainslug Difficult 2 No Money,5,8.10935,8.118,10,4,0,FALSE,na,na,na,na,,,,,,,,,,,,,,,,,,,,,,,,,,,,,,,,,,0,0,0,0,1,,,,,,,,,,,,,,,,,,,,,,,
,,,,,,,,,,,,675def962e621909f289e12d,001,3,2025-04-15_08h24.02.559,avatar_quest_3AFC_legacy,2022.1.3,Win32,29.85074627,675def962e621909f289e12d,67fe6e666cecbc9329ddf6d6,67fe7559fa122bde75677258,,,,,,,,,,,,,,,,,,,,,,With Brainslug Difficult 2 No Money,12,images/assets/snowy_original.jpg,learning,20,images/assets/success.jpg,images/assets/gameover.jpg,,,,,,,,,,,,,0,2,2,3,1,,,,,,,,,,,,,,,,,,,,,,,,,,,,,,,,
,,,,,,,,,,,,675def962e621909f289e12d,001,3,2025-04-15_08h24.02.559,avatar_quest_3AFC_legacy,2022.1.3,Win32,29.85074627,675def962e621909f289e12d,67fe6e666cecbc9329ddf6d6,67fe7559fa122bde75677258,,,,,,,,,,,,,,,,,,,,,,With Brainslug Difficult 1 No Money,6,images/assets/snowy_original.jpg,learning,20,images/assets/success.jpg,images/assets/gameover.jpg,,,,,,,,,,,,,0,3,3,1,1,,,,,,,,,,,,,,,,,,,,,,,,,,,,,,,,
,,,,,,,,,,,,675def962e621909f289e12d,001,3,2025-04-15_08h24.02.559,avatar_quest_3AFC_legacy,2022.1.3,Win32,29.85074627,675def962e621909f289e12d,67fe6e666cecbc9329ddf6d6,67fe7559fa122bde75677258,,,,,,,,,,,,,,,,,,,,,,No Brainslug No Barriers With Money,0,images/assets/snowy_money.jpg,learning,10,images/assets/success_money.jpg,images/assets/gameover.jpg,,,,,,,,,,,,,0,4,4,9,1,,,,,,,,,,,,,,,,,,,,,,,,,,,,,,,,
,,,,,,,,,,,,675def962e621909f289e12d,001,3,2025-04-15_08h24.02.559,avatar_quest_3AFC_legacy,2022.1.3,Win32,29.85074627,675def962e621909f289e12d,67fe6e666cecbc9329ddf6d6,67fe7559fa122bde75677258,,,,,,,,,,,,,,,,,,,,,,With Brainslug No Barriers No Money,0,images/assets/snowy_original.jpg,learning,10,images/assets/success.jpg,images/assets/gameover.jpg,,,,,,,,,,,,,0,5,5,5,1,,,,,,,,,,,,,,,,,,,,,,,,,,,,,,,,
,,,,,,,,,,,,675def962e621909f289e12d,001,3,2025-04-15_08h24.02.559,avatar_quest_3AFC_legacy,2022.1.3,Win32,29.85074627,675def962e621909f289e12d,67fe6e666cecbc9329ddf6d6,67fe7559fa122bde75677258,,,,,,,,,,,,,,,,,,,,,,No Brainslug Difficult 1 No Money,6,images/assets/snowy_original.jpg,learning,20,images/assets/success.jpg,images/assets/gameover.jpg,,,,,,,,,,,,,0,6,6,6,1,,,,,,,,,,,,,,,,,,,,,,,,,,,,,,,,
,,,,,,,,,,,,675def962e621909f289e12d,001,3,2025-04-15_08h24.02.559,avatar_quest_3AFC_legacy,2022.1.3,Win32,29.85074627,675def962e621909f289e12d,67fe6e666cecbc9329ddf6d6,67fe7559fa122bde75677258,,,,,,,,,,,,,,,,,,,,,,With Brainslug No Barriers With Money,0,images/assets/snowy_money.jpg,learning,10,images/assets/success_money.jpg,images/assets/gameover.jpg,,,,,,,,,,,,,0,7,7,4,1,,,,,,,,,,,,,,,,,,,,,,,,,,,,,,,,
,,,,,,,,,,,,675def962e621909f289e12d,001,3,2025-04-15_08h24.02.559,avatar_quest_3AFC_legacy,2022.1.3,Win32,29.85074627,675def962e621909f289e12d,67fe6e666cecbc9329ddf6d6,67fe7559fa122bde75677258,,,,,,,,,,,,,,,,,,,,,,No Brainslug Difficult 2 No Money,12,images/assets/snowy_original.jpg,learning,20,images/assets/success.jpg,images/assets/gameover.jpg,,,,,,,,,,,,,0,8,8,8,1,,,,,,,,,,,,,,,,,,,,,,,,,,,,,,,,
,,,,,,,,,,,,675def962e621909f289e12d,001,3,2025-04-15_08h24.02.559,avatar_quest_3AFC_legacy,2022.1.3,Win32,29.85074627,675def962e621909f289e12d,67fe6e666cecbc9329ddf6d6,67fe7559fa122bde75677258,,,,,,,,,,,,,,,,,,,,,,No Brainslug No Barriers No Money,0,images/assets/snowy_original.jpg,learning,10,images/assets/success.jpg,images/assets/gameover.jpg,,,,,,,,,,,,,0,9,9,10,1,,,,,,,,,,,,,,,,,,,,,,,,,,,,,,,,
,,,,,,,,,,,,675def962e621909f289e12d,001,3,2025-04-15_08h24.02.559,avatar_quest_3AFC_legacy,2022.1.3,Win32,29.85074627,675def962e621909f289e12d,67fe6e666cecbc9329ddf6d6,67fe7559fa122bde75677258,,,,,,,,,,,,,,,,,,,,,,With Brainslug Difficult 2 With Money,12,images/assets/snowy_money.jpg,learning,20,images/assets/success_money.jpg,images/assets/gameover.jpg,,,,,,,,,,,,,0,10,10,2,1,,,,,,,,,,,,,,,,,,,,,,,,,,,,,,,,
,,,,,,,,,,,,675def962e621909f289e12d,001,3,2025-04-15_08h24.02.559,avatar_quest_3AFC_legacy,2022.1.3,Win32,29.85074627,675def962e621909f289e12d,67fe6e666cecbc9329ddf6d6,67fe7559fa122bde75677258,,,,,,,,,,,,,,,,,,,,,,,,,,,,,,,,,,,,,,,,,,,,,,,,,,,,,,,1,0,1,0,1,,,,,,,,,,,,,,,,,,
,,,,,,,,,,,,675def962e621909f289e12d,001,3,2025-04-15_08h24.02.559,avatar_quest_3AFC_legacy,2022.1.3,Win32,29.85074627,675def962e621909f289e12d,67fe6e666cecbc9329ddf6d6,67fe7559fa122bde75677258,,,,,,,,,,,,,,,,,,,,,,With Brainslug Difficult 2 No Money,12,images/assets/snowy_original.jpg,learning,20,images/assets/success.jpg,images/assets/gameover.jpg,,,,,,,,With Brainslug Difficult 1 No Money,With Brainslug Difficult 1 No Money,left,1.7216,"[""With Brainslug Difficult 2 No Money"",""With Brainslug Difficult 2 With Money""]",0,0,0,3,1,,,,,,,,,,,,,,,,,,,,,,,,,,,,,,,,
,,,,,,,,,,,,675def962e621909f289e12d,001,3,2025-04-15_08h24.02.559,avatar_quest_3AFC_legacy,2022.1.3,Win32,29.85074627,675def962e621909f289e12d,67fe6e666cecbc9329ddf6d6,67fe7559fa122bde75677258,,,,,,,,,,,,,,,,,,,,,,No Brainslug No Barriers With Money,0,images/assets/snowy_money.jpg,learning,10,images/assets/success_money.jpg,images/assets/gameover.jpg,,,,,,,,,,,,,0,1,1,9,1,,,,,,,,,,,,,,,,,,,,,,,,,,,,,,,,
,,,,,,,,,,,,675def962e621909f289e12d,001,3,2025-04-15_08h24.02.559,avatar_quest_3AFC_legacy,2022.1.3,Win32,29.85074627,675def962e621909f289e12d,67fe6e666cecbc9329ddf6d6,67fe7559fa122bde75677258,,,,,,,,,,,,,,,,,,,,,,With Brainslug No Barriers No Money,0,images/assets/snowy_original.jpg,learning,10,images/assets/success.jpg,images/assets/gameover.jpg,,,,,,,,,,,,,0,2,2,5,1,,,,,,,,,,,,,,,,,,,,,,,,,,,,,,,,
,,,,,,,,,,,,675def962e621909f289e12d,001,3,2025-04-15_08h24.02.559,avatar_quest_3AFC_legacy,2022.1.3,Win32,29.85074627,675def962e621909f289e12d,67fe6e666cecbc9329ddf6d6,67fe7559fa122bde75677258,"[""right"",""right"",""left"",""left"",""left"",""left"",""left"",""left"",""left"",""right"",""right"",""right"",""right"",""right"",""left"",""left"",""left"",""left"",""left"",""left"",""left"",""right"",""right"",""right"",""right"",""right"",""right"",""left""]","[0.5403999999761595,0.8581999999880736,0.9565000000000055,1.1378999999761845,1.272699999988049,1.4433000000119023,1.6093999999761763,1.7718000000119218,2.0054999999999836,2.3223000000119214,2.5068000000119355,2.655199999988099,2.804600000023868,2.939699999988079,3.7056000000238214,3.9221000000238178,4.079600000023845,4.2221999999880495,4.370800000011911,4.507699999988063,4.988800000011906,5.505699999988053,5.696000000000026,6.372899999976141,6.606100000023844,7.222300000011899,7.406699999988064,8.007899999976132]",,calibration,With Brainslug Difficult 1 No Money,6,8.10935,8.1179,9,5,0,FALSE,na,na,na,na,,,,,,,,,,,,,,,,,,,,,,,,,,,,,,,,,,0,0,0,0,1,,,,,,,,,,,,,,,,,,,,,,,
,,,,,,,,,,,,675def962e621909f289e12d,001,3,2025-04-15_08h24.02.559,avatar_quest_3AFC_legacy,2022.1.3,Win32,29.85074627,675def962e621909f289e12d,67fe6e666cecbc9329ddf6d6,67fe7559fa122bde75677258,,,,,,,,,,,,,,,,,,,,,,With Brainslug Difficult 1 No Money,6,images/assets/snowy_original.jpg,learning,20,images/assets/success.jpg,images/assets/gameover.jpg,,,,,,,,,,,,,0,3,3,1,1,,,,,,,,,,,,,,,,,,,,,,,,,,,,,,,,
,,,,,,,,,,,,675def962e621909f289e12d,001,3,2025-04-15_08h24.02.559,avatar_quest_3AFC_legacy,2022.1.3,Win32,29.85074627,675def962e621909f289e12d,67fe6e666cecbc9329ddf6d6,67fe7559fa122bde75677258,,,,,,,,,,,,,,,,,,,,,,No Brainslug Difficult 1 No Money,6,images/assets/snowy_original.jpg,learning,20,images/assets/success.jpg,images/assets/gameover.jpg,,,,,,,,,,,,,0,4,4,6,1,,,,,,,,,,,,,,,,,,,,,,,,,,,,,,,,
,,,,,,,,,,,,675def962e621909f289e12d,001,3,2025-04-15_08h24.02.559,avatar_quest_3AFC_legacy,2022.1.3,Win32,29.85074627,675def962e621909f289e12d,67fe6e666cecbc9329ddf6d6,67fe7559fa122bde75677258,,,,,,,,,,,,,,,,,,,,,,No Brainslug Difficult 2 No Money,12,images/assets/snowy_original.jpg,learning,20,images/assets/success.jpg,images/assets/gameover.jpg,,,,,,,,,,,,,0,5,5,8,1,,,,,,,,,,,,,,,,,,,,,,,,,,,,,,,,
,,,,,,,,,,,,675def962e621909f289e12d,001,3,2025-04-15_08h24.02.559,avatar_quest_3AFC_legacy,2022.1.3,Win32,29.85074627,675def962e621909f289e12d,67fe6e666cecbc9329ddf6d6,67fe7559fa122bde75677258,,,,,,,,,,,,,,,,,,,,,,With Brainslug No Barriers With Money,0,images/assets/snowy_money.jpg,learning,10,images/assets/success_money.jpg,images/assets/gameover.jpg,,,,,,,,,,,,,0,6,6,4,1,,,,,,,,,,,,,,,,,,,,,,,,,,,,,,,,
,,,,,,,,,,,,675def962e621909f289e12d,001,3,2025-04-15_08h24.02.559,avatar_quest_3AFC_legacy,2022.1.3,Win32,29.85074627,675def962e621909f289e12d,67fe6e666cecbc9329ddf6d6,67fe7559fa122bde75677258,,,,,,,,,,,,,,,,,,,,,,With Brainslug Difficult 2 With Money,12,images/assets/snowy_money.jpg,learning,20,images/assets/success_money.jpg,images/assets/gameover.jpg,,,,,,,,,,,,,0,7,7,2,1,,,,,,,,,,,,,,,,,,,,,,,,,,,,,,,,
,,,,,,,,,,,,675def962e621909f289e12d,001,3,2025-04-15_08h24.02.559,avatar_quest_3AFC_legacy,2022.1.3,Win32,29.85074627,675def962e621909f289e12d,67fe6e666cecbc9329ddf6d6,67fe7559fa122bde75677258,,,,,,,,,,,,,,,,,,,,,,No Brainslug Difficult 2 With Money,12,images/assets/snowy_money.jpg,learning,20,images/assets/success_money.jpg,images/assets/gameover.jpg,,,,,,,,,,,,,0,8,8,7,1,,,,,,,,,,,,,,,,,,,,,,,,,,,,,,,,
,,,,,,,,,,,,675def962e621909f289e12d,001,3,2025-04-15_08h24.02.559,avatar_quest_3AFC_legacy,2022.1.3,Win32,29.85074627,675def962e621909f289e12d,67fe6e666cecbc9329ddf6d6,67fe7559fa122bde75677258,,,,,,,,,,,,,,,,,,,,,,No Brainslug No Barriers No Money,0,images/assets/snowy_original.jpg,learning,10,images/assets/success.jpg,images/assets/gameover.jpg,,,,,,,,,,,,,0,9,9,10,1,,,,,,,,,,,,,,,,,,,,,,,,,,,,,,,,
,,,,,,,,,,,,675def962e621909f289e12d,001,3,2025-04-15_08h24.02.559,avatar_quest_3AFC_legacy,2022.1.3,Win32,29.85074627,675def962e621909f289e12d,67fe6e666cecbc9329ddf6d6,67fe7559fa122bde75677258,,,,,,,,,,,,,,,,,,,,,,With Brainslug Difficult 1 With Money,6,images/assets/snowy_money.jpg,learning,20,images/assets/success_money.jpg,images/assets/gameover.jpg,,,,,,,,,,,,,0,10,10,0,1,,,,,,,,,,,,,,,,,,,,,,,,,,,,,,,,
,,,,,,,,,,,,675def962e621909f289e12d,001,3,2025-04-15_08h24.02.559,avatar_quest_3AFC_legacy,2022.1.3,Win32,29.85074627,675def962e621909f289e12d,67fe6e666cecbc9329ddf6d6,67fe7559fa122bde75677258,,,,,,,,,,,,,,,,,,,,,,,,,,,,,,,,,,,,,,,,,,,,,,,,,,,,,,,2,0,2,0,1,,,,,,,,,,,,,,,,,,
,,,,,,,,,,,,675def962e621909f289e12d,001,3,2025-04-15_08h24.02.559,avatar_quest_3AFC_legacy,2022.1.3,Win32,29.85074627,675def962e621909f289e12d,67fe6e666cecbc9329ddf6d6,67fe7559fa122bde75677258,"[""left"",""left"",""left"",""left"",""right"",""left"",""right"",""right"",""right"",""right"",""right"",""right"",""right"",""left"",""left"",""left"",""left"",""left"",""left"",""left"",""right"",""right"",""right"",""left"",""left"",""left"",""left"",""left"",""left"",""left"",""right""]","[0.7580000000000382,0.9240999999642554,1.056799999952318,1.2100999999642568,1.4402999999523445,1.4405000000000427,1.6082999999523508,1.8414999999999964,2.224699999988104,2.557699999988074,2.9075000000000273,3.191500000000019,3.424399999976174,3.6587999999523504,3.8761999999881027,4.043599999964272,4.1920999999642845,4.441099999964251,4.593899999976202,5.0927999999523195,5.408699999988073,5.607799999952363,5.8078999999762,6.010500000000036,6.209399999976199,6.378599999964251,6.525599999964243,6.674299999952325,6.808399999976189,6.961799999952348,7.360000000000014]",,calibration,With Brainslug Difficult 1 No Money,7,8.10935,7.4843,14,3,0,TRUE,na,na,na,na,,,,,,,,,,,,,,,,,,,,With Brainslug Difficult 1 No Money,With Brainslug Difficult 1 No Money,left,0.1434,"[""With Brainslug Difficult 2 No Money"",""With Brainslug Difficult 2 With Money""]",,,,,,,,,,0,0,0,0,1,,,,,,,,,,,,,,,,,,,,,,,
,,,,,,,,,,,,675def962e621909f289e12d,001,3,2025-04-15_08h24.02.559,avatar_quest_3AFC_legacy,2022.1.3,Win32,29.85074627,675def962e621909f289e12d,67fe6e666cecbc9329ddf6d6,67fe7559fa122bde75677258,,,,,,,,,,,,,,,,,,,,,,With Brainslug Difficult 1 No Money,6,images/assets/snowy_original.jpg,learning,20,images/assets/success.jpg,images/assets/gameover.jpg,,,,,,,,,,,,,0,0,0,1,1,,,,,,,,,,,,,,,,,,,,,,,,,,,,,,,,
,,,,,,,,,,,,675def962e621909f289e12d,001,3,2025-04-15_08h24.02.559,avatar_quest_3AFC_legacy,2022.1.3,Win32,29.85074627,675def962e621909f289e12d,67fe6e666cecbc9329ddf6d6,67fe7559fa122bde75677258,,,,,,,,,,,,,,,,,,,,,,With Brainslug Difficult 1 With Money,6,images/assets/snowy_money.jpg,learning,20,images/assets/success_money.jpg,images/assets/gameover.jpg,,,,,,,,,,,,,0,1,1,0,1,,,,,,,,,,,,,,,,,,,,,,,,,,,,,,,,
,,,,,,,,,,,,675def962e621909f289e12d,001,3,2025-04-15_08h24.02.559,avatar_quest_3AFC_legacy,2022.1.3,Win32,29.85074627,675def962e621909f289e12d,67fe6e666cecbc9329ddf6d6,67fe7559fa122bde75677258,,,,,,,,,,,,,,,,,,,,,,No Brainslug Difficult 1 No Money,6,images/assets/snowy_original.jpg,learning,20,images/assets/success.jpg,images/assets/gameover.jpg,,,,,,,,,,,,,0,2,2,6,1,,,,,,,,,,,,,,,,,,,,,,,,,,,,,,,,
,,,,,,,,,,,,675def962e621909f289e12d,001,3,2025-04-15_08h24.02.559,avatar_quest_3AFC_legacy,2022.1.3,Win32,29.85074627,675def962e621909f289e12d,67fe6e666cecbc9329ddf6d6,67fe7559fa122bde75677258,,,,,,,,,,,,,,,,,,,,,,No Brainslug Difficult 2 No Money,12,images/assets/snowy_original.jpg,learning,20,images/assets/success.jpg,images/assets/gameover.jpg,,,,,,,,,,,,,0,3,3,8,1,,,,,,,,,,,,,,,,,,,,,,,,,,,,,,,,
,,,,,,,,,,,,675def962e621909f289e12d,001,3,2025-04-15_08h24.02.559,avatar_quest_3AFC_legacy,2022.1.3,Win32,29.85074627,675def962e621909f289e12d,67fe6e666cecbc9329ddf6d6,67fe7559fa122bde75677258,,,,,,,,,,,,,,,,,,,,,,With Brainslug No Barriers With Money,0,images/assets/snowy_money.jpg,learning,10,images/assets/success_money.jpg,images/assets/gameover.jpg,,,,,,,,,,,,,0,4,4,4,1,,,,,,,,,,,,,,,,,,,,,,,,,,,,,,,,
,,,,,,,,,,,,675def962e621909f289e12d,001,3,2025-04-15_08h24.02.559,avatar_quest_3AFC_legacy,2022.1.3,Win32,29.85074627,675def962e621909f289e12d,67fe6e666cecbc9329ddf6d6,67fe7559fa122bde75677258,,,,,,,,,,,,,,,,,,,,,,With Brainslug Difficult 2 With Money,12,images/assets/snowy_money.jpg,learning,20,images/assets/success_money.jpg,images/assets/gameover.jpg,,,,,,,,,,,,,0,5,5,2,1,,,,,,,,,,,,,,,,,,,,,,,,,,,,,,,,
,,,,,,,,,,,,675def962e621909f289e12d,001,3,2025-04-15_08h24.02.559,avatar_quest_3AFC_legacy,2022.1.3,Win32,29.85074627,675def962e621909f289e12d,67fe6e666cecbc9329ddf6d6,67fe7559fa122bde75677258,,,,,,,,,,,,,,,,,,,,,,No Brainslug Difficult 2 With Money,12,images/assets/snowy_money.jpg,learning,20,images/assets/success_money.jpg,images/assets/gameover.jpg,,,,,,,,,,,,,0,6,6,7,1,,,,,,,,,,,,,,,,,,,,,,,,,,,,,,,,
,,,,,,,,,,,,675def962e621909f289e12d,001,3,2025-04-15_08h24.02.559,avatar_quest_3AFC_legacy,2022.1.3,Win32,29.85074627,675def962e621909f289e12d,67fe6e666cecbc9329ddf6d6,67fe7559fa122bde75677258,,,,,,,,,,,,,,,,,,,,,,With Brainslug Difficult 2 No Money,12,images/assets/snowy_original.jpg,learning,20,images/assets/success.jpg,images/assets/gameover.jpg,,,,,,,,,,,,,0,7,7,3,1,,,,,,,,,,,,,,,,,,,,,,,,,,,,,,,,
,,,,,,,,,,,,675def962e621909f289e12d,001,3,2025-04-15_08h24.02.559,avatar_quest_3AFC_legacy,2022.1.3,Win32,29.85074627,675def962e621909f289e12d,67fe6e666cecbc9329ddf6d6,67fe7559fa122bde75677258,,,,,,,,,,,,,,,,,,,,,,With Brainslug No Barriers No Money,0,images/assets/snowy_original.jpg,learning,10,images/assets/success.jpg,images/assets/gameover.jpg,,,,,,,,,,,,,0,8,8,5,1,,,,,,,,,,,,,,,,,,,,,,,,,,,,,,,,
,,,,,,,,,,,,675def962e621909f289e12d,001,3,2025-04-15_08h24.02.559,avatar_quest_3AFC_legacy,2022.1.3,Win32,29.85074627,675def962e621909f289e12d,67fe6e666cecbc9329ddf6d6,67fe7559fa122bde75677258,,,,,,,,,,,,,,,,,,,,,,No Brainslug No Barriers With Money,0,images/assets/snowy_money.jpg,learning,10,images/assets/success_money.jpg,images/assets/gameover.jpg,,,,,,,,,,,,,0,9,9,9,1,,,,,,,,,,,,,,,,,,,,,,,,,,,,,,,,
,,,,,,,,,,,,675def962e621909f289e12d,001,3,2025-04-15_08h24.02.559,avatar_quest_3AFC_legacy,2022.1.3,Win32,29.85074627,675def962e621909f289e12d,67fe6e666cecbc9329ddf6d6,67fe7559fa122bde75677258,,,,,,,,,,,,,,,,,,,,,,No Brainslug No Barriers No Money,0,images/assets/snowy_original.jpg,learning,10,images/assets/success.jpg,images/assets/gameover.jpg,,,,,,,,,,,,,0,10,10,10,1,,,,,,,,,,,,,,,,,,,,,,,,,,,,,,,,
,,,,,,,,,,,,675def962e621909f289e12d,001,3,2025-04-15_08h24.02.559,avatar_quest_3AFC_legacy,2022.1.3,Win32,29.85074627,675def962e621909f289e12d,67fe6e666cecbc9329ddf6d6,67fe7559fa122bde75677258,,,,,,,,,,,,,,,,,,,,,,,,,,,,,,,,,,,,,,,,,,,,,,,,,,,,,,,3,0,3,0,1,,,,,,,,,,,,,,,,,,
,,,,,,,,,,,,675def962e621909f289e12d,001,3,2025-04-15_08h24.02.559,avatar_quest_3AFC_legacy,2022.1.3,Win32,29.85074627,675def962e621909f289e12d,67fe6e666cecbc9329ddf6d6,67fe7559fa122bde75677258,,,,,,,,,,,,,,,,,,,,,,No Brainslug Difficult 2 No Money,12,images/assets/snowy_original.jpg,learning,20,images/assets/success.jpg,images/assets/gameover.jpg,,,,,,,,With Brainslug Difficult 1 No Money,With Brainslug Difficult 1 No Money,left,4.6766,"[""With Brainslug Difficult 2 No Money"",""With Brainslug Difficult 2 With Money""]",0,0,0,8,1,,,,,,,,,,,,,,,,,,,,,,,,,,,,,,,,
,,,,,,,,,,,,675def962e621909f289e12d,001,3,2025-04-15_08h24.02.559,avatar_quest_3AFC_legacy,2022.1.3,Win32,29.85074627,675def962e621909f289e12d,67fe6e666cecbc9329ddf6d6,67fe7559fa122bde75677258,,,,,,,,,,,,,,,,,,,,,,With Brainslug Difficult 2 With Money,12,images/assets/snowy_money.jpg,learning,20,images/assets/success_money.jpg,images/assets/gameover.jpg,,,,,,,,,,,,,0,1,1,2,1,,,,,,,,,,,,,,,,,,,,,,,,,,,,,,,,
,,,,,,,,,,,,675def962e621909f289e12d,001,3,2025-04-15_08h24.02.559,avatar_quest_3AFC_legacy,2022.1.3,Win32,29.85074627,675def962e621909f289e12d,67fe6e666cecbc9329ddf6d6,67fe7559fa122bde75677258,,,,,,,,,,,,,,,,,,,,,,With Brainslug No Barriers No Money,0,images/assets/snowy_original.jpg,learning,10,images/assets/success.jpg,images/assets/gameover.jpg,,,,,,,,,,,,,0,2,2,5,1,,,,,,,,,,,,,,,,,,,,,,,,,,,,,,,,
,,,,,,,,,,,,675def962e621909f289e12d,001,3,2025-04-15_08h24.02.559,avatar_quest_3AFC_legacy,2022.1.3,Win32,29.85074627,675def962e621909f289e12d,67fe6e666cecbc9329ddf6d6,67fe7559fa122bde75677258,,,,,,,,,,,,,,,,,,,,,,With Brainslug No Barriers With Money,0,images/assets/snowy_money.jpg,learning,10,images/assets/success_money.jpg,images/assets/gameover.jpg,,,,,,,,,,,,,0,3,3,4,1,,,,,,,,,,,,,,,,,,,,,,,,,,,,,,,,
,,,,,,,,,,,,675def962e621909f289e12d,001,3,2025-04-15_08h24.02.559,avatar_quest_3AFC_legacy,2022.1.3,Win32,29.85074627,675def962e621909f289e12d,67fe6e666cecbc9329ddf6d6,67fe7559fa122bde75677258,,,,,,,,,,,,,,,,,,,,,,With Brainslug Difficult 1 With Money,6,images/assets/snowy_money.jpg,learning,20,images/assets/success_money.jpg,images/assets/gameover.jpg,,,,,,,,,,,,,0,4,4,0,1,,,,,,,,,,,,,,,,,,,,,,,,,,,,,,,,
,,,,,,,,,,,,675def962e621909f289e12d,001,3,2025-04-15_08h24.02.559,avatar_quest_3AFC_legacy,2022.1.3,Win32,29.85074627,675def962e621909f289e12d,67fe6e666cecbc9329ddf6d6,67fe7559fa122bde75677258,,,,,,,,,,,,,,,,,,,,,,No Brainslug No Barriers No Money,0,images/assets/snowy_original.jpg,learning,10,images/assets/success.jpg,images/assets/gameover.jpg,,,,,,,,,,,,,0,5,5,10,1,,,,,,,,,,,,,,,,,,,,,,,,,,,,,,,,
,,,,,,,,,,,,675def962e621909f289e12d,001,3,2025-04-15_08h24.02.559,avatar_quest_3AFC_legacy,2022.1.3,Win32,29.85074627,675def962e621909f289e12d,67fe6e666cecbc9329ddf6d6,67fe7559fa122bde75677258,,,,,,,,,,,,,,,,,,,,,,No Brainslug Difficult 1 No Money,6,images/assets/snowy_original.jpg,learning,20,images/assets/success.jpg,images/assets/gameover.jpg,,,,,,,,,,,,,0,6,6,6,1,,,,,,,,,,,,,,,,,,,,,,,,,,,,,,,,
,,,,,,,,,,,,675def962e621909f289e12d,001,3,2025-04-15_08h24.02.559,avatar_quest_3AFC_legacy,2022.1.3,Win32,29.85074627,675def962e621909f289e12d,67fe6e666cecbc9329ddf6d6,67fe7559fa122bde75677258,"[""left"",""left"",""left"",""left"",""left"",""right"",""right"",""right"",""right"",""right"",""left"",""left"",""left"",""left"",""left"",""left"",""right"",""right"",""right"",""right"",""right"",""left"",""left"",""left"",""left"",""left"",""left""]","[0.46819999998808726,0.632000000000005,0.89910000002385,1.0491999999880477,1.1984999999999673,1.4679000000357405,1.65119999998808,1.7819999999999823,1.8879999999999768,2.01840000003574,2.23210000002382,2.423000000000002,2.582600000023831,2.750100000023849,2.8498000000118964,3.049900000035734,3.3845000000000027,3.5506000000238487,3.6610000000000014,3.884600000023852,4.12110000002383,4.3336999999880845,4.520699999988096,4.668999999999983,4.833900000035783,4.983499999999992,5.122199999988084]",,calibration,With Brainslug Difficult 1 No Money,8,8.10935,5.6893,13,1,0,TRUE,na,na,na,na,,,,,,,,,,,,,,,,,,,,,,,,,,,,,,,,,,0,0,0,0,1,,,,,,,,,,,,,,,,,,,,,,,
,,,,,,,,,,,,675def962e621909f289e12d,001,3,2025-04-15_08h24.02.559,avatar_quest_3AFC_legacy,2022.1.3,Win32,29.85074627,675def962e621909f289e12d,67fe6e666cecbc9329ddf6d6,67fe7559fa122bde75677258,,,,,,,,,,,,,,,,,,,,,,With Brainslug Difficult 1 No Money,6,images/assets/snowy_original.jpg,learning,20,images/assets/success.jpg,images/assets/gameover.jpg,,,,,,,,,,,,,0,7,7,1,1,,,,,,,,,,,,,,,,,,,,,,,,,,,,,,,,
,,,,,,,,,,,,675def962e621909f289e12d,001,3,2025-04-15_08h24.02.559,avatar_quest_3AFC_legacy,2022.1.3,Win32,29.85074627,675def962e621909f289e12d,67fe6e666cecbc9329ddf6d6,67fe7559fa122bde75677258,,,,,,,,,,,,,,,,,,,,,,With Brainslug Difficult 2 No Money,12,images/assets/snowy_original.jpg,learning,20,images/assets/success.jpg,images/assets/gameover.jpg,,,,,,,,,,,,,0,8,8,3,1,,,,,,,,,,,,,,,,,,,,,,,,,,,,,,,,
,,,,,,,,,,,,675def962e621909f289e12d,001,3,2025-04-15_08h24.02.559,avatar_quest_3AFC_legacy,2022.1.3,Win32,29.85074627,675def962e621909f289e12d,67fe6e666cecbc9329ddf6d6,67fe7559fa122bde75677258,,,,,,,,,,,,,,,,,,,,,,No Brainslug No Barriers With Money,0,images/assets/snowy_money.jpg,learning,10,images/assets/success_money.jpg,images/assets/gameover.jpg,,,,,,,,,,,,,0,9,9,9,1,,,,,,,,,,,,,,,,,,,,,,,,,,,,,,,,
,,,,,,,,,,,,675def962e621909f289e12d,001,3,2025-04-15_08h24.02.559,avatar_quest_3AFC_legacy,2022.1.3,Win32,29.85074627,675def962e621909f289e12d,67fe6e666cecbc9329ddf6d6,67fe7559fa122bde75677258,,,,,,,,,,,,,,,,,,,,,,No Brainslug Difficult 2 With Money,12,images/assets/snowy_money.jpg,learning,20,images/assets/success_money.jpg,images/assets/gameover.jpg,,,,,,,,,,,,,0,10,10,7,1,,,,,,,,,,,,,,,,,,,,,,,,,,,,,,,,
,,,,,,,,,,,,675def962e621909f289e12d,001,3,2025-04-15_08h24.02.559,avatar_quest_3AFC_legacy,2022.1.3,Win32,29.85074627,675def962e621909f289e12d,67fe6e666cecbc9329ddf6d6,67fe7559fa122bde75677258,,,,,,,,,,,,,,,,,,,,,,,,,,,,,,,,,,,,,,,,,,,,,,,,,,,,,,,4,0,4,0,1,,,,,,,,,,,,,,,,,,
,,,,,,,,,,,,675def962e621909f289e12d,001,3,2025-04-15_08h24.02.559,avatar_quest_3AFC_legacy,2022.1.3,Win32,29.85074627,675def962e621909f289e12d,67fe6e666cecbc9329ddf6d6,67fe7559fa122bde75677258,,,,,,,,,,,,,,,,,,,,,,No Brainslug No Barriers No Money,0,images/assets/snowy_original.jpg,learning,10,images/assets/success.jpg,images/assets/gameover.jpg,,,,,,,,With Brainslug Difficult 1 No Money,With Brainslug Difficult 1 No Money,left,1.2041,"[""With Brainslug Difficult 2 No Money"",""With Brainslug Difficult 2 With Money""]",0,0,0,10,1,,,,,,,,,,,,,,,,,,,,,,,,,,,,,,,,
,,,,,,,,,,,,675def962e621909f289e12d,001,3,2025-04-15_08h24.02.559,avatar_quest_3AFC_legacy,2022.1.3,Win32,29.85074627,675def962e621909f289e12d,67fe6e666cecbc9329ddf6d6,67fe7559fa122bde75677258,"[""left"",""left"",""left"",""left"",""right"",""right"",""right"",""right"",""left"",""left"",""left"",""left"",""left"",""left"",""left"",""right"",""right"",""right"",""right"",""right"",""left"",""left"",""left"",""left"",""left"",""left""]","[0.41860000002378683,0.573900000035735,0.7156000000238123,0.8656000000237896,1.285400000035736,1.5024000000357205,1.6568000000119127,1.8661000000238346,2.0496000000238155,2.204499999999996,2.3683000000119137,2.518800000011879,2.667300000011892,2.803400000035708,2.933100000023842,3.149600000023838,3.3341999999880727,3.4996999999880245,3.652100000023836,3.8031000000237896,4.120699999988062,4.321600000023807,4.483699999988062,4.633999999999958,4.752900000035709,4.901199999988023]",,calibration,With Brainslug Difficult 1 No Money,9,8.10935,5.417,15,0,0,TRUE,na,na,na,na,,,,,,,,,,,,,,,,,,,,,,,,,,,,,,,,,,0,0,0,0,1,,,,,,,,,,,,,,,,,,,,,,,
,,,,,,,,,,,,675def962e621909f289e12d,001,3,2025-04-15_08h24.02.559,avatar_quest_3AFC_legacy,2022.1.3,Win32,29.85074627,675def962e621909f289e12d,67fe6e666cecbc9329ddf6d6,67fe7559fa122bde75677258,,,,,,,,,,,,,,,,,,,,,,With Brainslug Difficult 1 No Money,6,images/assets/snowy_original.jpg,learning,20,images/assets/success.jpg,images/assets/gameover.jpg,,,,,,,,,,,,,0,1,1,1,1,,,,,,,,,,,,,,,,,,,,,,,,,,,,,,,,
,,,,,,,,,,,,675def962e621909f289e12d,001,3,2025-04-15_08h24.02.559,avatar_quest_3AFC_legacy,2022.1.3,Win32,29.85074627,675def962e621909f289e12d,67fe6e666cecbc9329ddf6d6,67fe7559fa122bde75677258,,,,,,,,,,,,,,,,,,,,,,No Brainslug Difficult 1 No Money,6,images/assets/snowy_original.jpg,learning,20,images/assets/success.jpg,images/assets/gameover.jpg,,,,,,,,,,,,,0,2,2,6,1,,,,,,,,,,,,,,,,,,,,,,,,,,,,,,,,
,,,,,,,,,,,,675def962e621909f289e12d,001,3,2025-04-15_08h24.02.559,avatar_quest_3AFC_legacy,2022.1.3,Win32,29.85074627,675def962e621909f289e12d,67fe6e666cecbc9329ddf6d6,67fe7559fa122bde75677258,,,,,,,,,,,,,,,,,,,,,,With Brainslug Difficult 1 With Money,6,images/assets/snowy_money.jpg,learning,20,images/assets/success_money.jpg,images/assets/gameover.jpg,,,,,,,,,,,,,0,3,3,0,1,,,,,,,,,,,,,,,,,,,,,,,,,,,,,,,,
,,,,,,,,,,,,675def962e621909f289e12d,001,3,2025-04-15_08h24.02.559,avatar_quest_3AFC_legacy,2022.1.3,Win32,29.85074627,675def962e621909f289e12d,67fe6e666cecbc9329ddf6d6,67fe7559fa122bde75677258,,,,,,,,,,,,,,,,,,,,,,No Brainslug Difficult 2 With Money,12,images/assets/snowy_money.jpg,learning,20,images/assets/success_money.jpg,images/assets/gameover.jpg,,,,,,,,,,,,,0,4,4,7,1,,,,,,,,,,,,,,,,,,,,,,,,,,,,,,,,
,,,,,,,,,,,,675def962e621909f289e12d,001,3,2025-04-15_08h24.02.559,avatar_quest_3AFC_legacy,2022.1.3,Win32,29.85074627,675def962e621909f289e12d,67fe6e666cecbc9329ddf6d6,67fe7559fa122bde75677258,,,,,,,,,,,,,,,,,,,,,,With Brainslug No Barriers With Money,0,images/assets/snowy_money.jpg,learning,10,images/assets/success_money.jpg,images/assets/gameover.jpg,,,,,,,,,,,,,0,5,5,4,1,,,,,,,,,,,,,,,,,,,,,,,,,,,,,,,,
,,,,,,,,,,,,675def962e621909f289e12d,001,3,2025-04-15_08h24.02.559,avatar_quest_3AFC_legacy,2022.1.3,Win32,29.85074627,675def962e621909f289e12d,67fe6e666cecbc9329ddf6d6,67fe7559fa122bde75677258,,,,,,,,,,,,,,,,,,,,,,No Brainslug No Barriers With Money,0,images/assets/snowy_money.jpg,learning,10,images/assets/success_money.jpg,images/assets/gameover.jpg,,,,,,,,,,,,,0,6,6,9,1,,,,,,,,,,,,,,,,,,,,,,,,,,,,,,,,
,,,,,,,,,,,,675def962e621909f289e12d,001,3,2025-04-15_08h24.02.559,avatar_quest_3AFC_legacy,2022.1.3,Win32,29.85074627,675def962e621909f289e12d,67fe6e666cecbc9329ddf6d6,67fe7559fa122bde75677258,,,,,,,,,,,,,,,,,,,,,,With Brainslug Difficult 2 With Money,12,images/assets/snowy_money.jpg,learning,20,images/assets/success_money.jpg,images/assets/gameover.jpg,,,,,,,,,,,,,0,7,7,2,1,,,,,,,,,,,,,,,,,,,,,,,,,,,,,,,,
,,,,,,,,,,,,675def962e621909f289e12d,001,3,2025-04-15_08h24.02.559,avatar_quest_3AFC_legacy,2022.1.3,Win32,29.85074627,675def962e621909f289e12d,67fe6e666cecbc9329ddf6d6,67fe7559fa122bde75677258,,,,,,,,,,,,,,,,,,,,,,With Brainslug No Barriers No Money,0,images/assets/snowy_original.jpg,learning,10,images/assets/success.jpg,images/assets/gameover.jpg,,,,,,,,,,,,,0,8,8,5,1,,,,,,,,,,,,,,,,,,,,,,,,,,,,,,,,
,,,,,,,,,,,,675def962e621909f289e12d,001,3,2025-04-15_08h24.02.559,avatar_quest_3AFC_legacy,2022.1.3,Win32,29.85074627,675def962e621909f289e12d,67fe6e666cecbc9329ddf6d6,67fe7559fa122bde75677258,,,,,,,,,,,,,,,,,,,,,,With Brainslug Difficult 2 No Money,12,images/assets/snowy_original.jpg,learning,20,images/assets/success.jpg,images/assets/gameover.jpg,,,,,,,,,,,,,0,9,9,3,1,,,,,,,,,,,,,,,,,,,,,,,,,,,,,,,,
,,,,,,,,,,,,675def962e621909f289e12d,001,3,2025-04-15_08h24.02.559,avatar_quest_3AFC_legacy,2022.1.3,Win32,29.85074627,675def962e621909f289e12d,67fe6e666cecbc9329ddf6d6,67fe7559fa122bde75677258,,,,,,,,,,,,,,,,,,,,,,No Brainslug Difficult 2 No Money,12,images/assets/snowy_original.jpg,learning,20,images/assets/success.jpg,images/assets/gameover.jpg,,,,,,,,,,,,,0,10,10,8,1,,,,,,,,,,,,,,,,,,,,,,,,,,,,,,,,
,,,,,,,,,,,,675def962e621909f289e12d,001,3,2025-04-15_08h24.02.559,avatar_quest_3AFC_legacy,2022.1.3,Win32,29.85074627,675def962e621909f289e12d,67fe6e666cecbc9329ddf6d6,67fe7559fa122bde75677258,,,,,,,,,,,,,,,,,,,,,,,,,,,,,,,,,,,,,,,,,,,,,,,,,,,,,,,5,0,5,0,1,,,,,,,,,,,,,,,,,,
,,,,,,,,,,,,675def962e621909f289e12d,001,3,2025-04-15_08h24.02.559,avatar_quest_3AFC_legacy,2022.1.3,Win32,29.85074627,675def962e621909f289e12d,67fe6e666cecbc9329ddf6d6,67fe7559fa122bde75677258,,,,,,,,,,,,,,,,,,,,,,No Brainslug No Barriers With Money,0,images/assets/snowy_money.jpg,learning,10,images/assets/success_money.jpg,images/assets/gameover.jpg,,,,,,,,With Brainslug Difficult 2 With Money,With Brainslug Difficult 1 No Money,right,25.0514,"[""With Brainslug Difficult 1 No Money"",""With Brainslug Difficult 2 No Money""]",0,0,0,9,1,,,,,,,,,,,,,,,,,,,,,,,,,,,,,,,,
,,,,,,,,,,,,675def962e621909f289e12d,001,3,2025-04-15_08h24.02.559,avatar_quest_3AFC_legacy,2022.1.3,Win32,29.85074627,675def962e621909f289e12d,67fe6e666cecbc9329ddf6d6,67fe7559fa122bde75677258,,,,,,,,,,,,,,,,,,,,,,No Brainslug Difficult 2 No Money,12,images/assets/snowy_original.jpg,learning,20,images/assets/success.jpg,images/assets/gameover.jpg,,,,,,,,,,,,,0,1,1,8,1,,,,,,,,,,,,,,,,,,,,,,,,,,,,,,,,
,,,,,,,,,,,,675def962e621909f289e12d,001,3,2025-04-15_08h24.02.559,avatar_quest_3AFC_legacy,2022.1.3,Win32,29.85074627,675def962e621909f289e12d,67fe6e666cecbc9329ddf6d6,67fe7559fa122bde75677258,,,,,,,,,,,,,,,,,,,,,,With Brainslug Difficult 1 With Money,6,images/assets/snowy_money.jpg,learning,20,images/assets/success_money.jpg,images/assets/gameover.jpg,,,,,,,,,,,,,0,2,2,0,1,,,,,,,,,,,,,,,,,,,,,,,,,,,,,,,,
,,,,,,,,,,,,675def962e621909f289e12d,001,3,2025-04-15_08h24.02.559,avatar_quest_3AFC_legacy,2022.1.3,Win32,29.85074627,675def962e621909f289e12d,67fe6e666cecbc9329ddf6d6,67fe7559fa122bde75677258,,,,,,,,,,,,,,,,,,,,,,With Brainslug No Barriers No Money,0,images/assets/snowy_original.jpg,learning,10,images/assets/success.jpg,images/assets/gameover.jpg,,,,,,,,,,,,,0,3,3,5,1,,,,,,,,,,,,,,,,,,,,,,,,,,,,,,,,
,,,,,,,,,,,,675def962e621909f289e12d,001,3,2025-04-15_08h24.02.559,avatar_quest_3AFC_legacy,2022.1.3,Win32,29.85074627,675def962e621909f289e12d,67fe6e666cecbc9329ddf6d6,67fe7559fa122bde75677258,"[""right"",""left"",""left"",""left"",""left"",""right"",""right"",""left"",""left"",""left"",""right"",""right"",""right"",""right"",""left"",""left"",""left"",""left"",""right"",""right"",""right"",""right"",""right"",""left"",""left"",""left"",""left"",""left"",""right"",""right"",""right"",""right"",""right"",""left"",""left"",""left"",""left"",""left"",""left"",""left""]","[0.5628999999761959,0.7143999999761945,0.88069999998811,1.0333000000119341,1.2135000000000105,1.413499999999999,1.613699999988114,1.7808000000119364,2.0003000000119187,2.1348000000119214,2.4003000000119528,2.6141999999881023,2.731199999988121,2.9811000000238437,3.215399999976171,3.4508999999761727,3.5825000000000387,3.6851000000238514,3.8823000000119237,4.066500000000019,4.231899999976179,4.698600000023873,4.848199999988083,5.047800000011932,5.248600000023885,5.400500000000022,5.532500000000027,5.668600000023844,5.849000000000046,6.032600000023876,6.185300000011921,6.297500000000014,6.648000000000025,7.001500000000021,7.203000000000031,7.365600000023846,7.514600000023847,7.664899999976171,7.816699999988089,7.997899999976198]",,calibration,With Brainslug Difficult 2 With Money,10,8.10935,8.1177,23,6,0,FALSE,na,na,na,na,,,,,,,,,,,,,,,,,,,,,,,,,,,,,,,,,,0,0,0,0,1,,,,,,,,,,,,,,,,,,,,,,,
,,,,,,,,,,,,675def962e621909f289e12d,001,3,2025-04-15_08h24.02.559,avatar_quest_3AFC_legacy,2022.1.3,Win32,29.85074627,675def962e621909f289e12d,67fe6e666cecbc9329ddf6d6,67fe7559fa122bde75677258,,,,,,,,,,,,,,,,,,,,,,With Brainslug Difficult 2 With Money,12,images/assets/snowy_money.jpg,learning,20,images/assets/success_money.jpg,images/assets/gameover.jpg,,,,,,,,,,,,,0,4,4,2,1,,,,,,,,,,,,,,,,,,,,,,,,,,,,,,,,
,,,,,,,,,,,,675def962e621909f289e12d,001,3,2025-04-15_08h24.02.559,avatar_quest_3AFC_legacy,2022.1.3,Win32,29.85074627,675def962e621909f289e12d,67fe6e666cecbc9329ddf6d6,67fe7559fa122bde75677258,,,,,,,,,,,,,,,,,,,,,,No Brainslug Difficult 1 No Money,6,images/assets/snowy_original.jpg,learning,20,images/assets/success.jpg,images/assets/gameover.jpg,,,,,,,,,,,,,0,5,5,6,1,,,,,,,,,,,,,,,,,,,,,,,,,,,,,,,,
,,,,,,,,,,,,675def962e621909f289e12d,001,3,2025-04-15_08h24.02.559,avatar_quest_3AFC_legacy,2022.1.3,Win32,29.85074627,675def962e621909f289e12d,67fe6e666cecbc9329ddf6d6,67fe7559fa122bde75677258,,,,,,,,,,,,,,,,,,,,,,With Brainslug No Barriers With Money,0,images/assets/snowy_money.jpg,learning,10,images/assets/success_money.jpg,images/assets/gameover.jpg,,,,,,,,,,,,,0,6,6,4,1,,,,,,,,,,,,,,,,,,,,,,,,,,,,,,,,
,,,,,,,,,,,,675def962e621909f289e12d,001,3,2025-04-15_08h24.02.559,avatar_quest_3AFC_legacy,2022.1.3,Win32,29.85074627,675def962e621909f289e12d,67fe6e666cecbc9329ddf6d6,67fe7559fa122bde75677258,,,,,,,,,,,,,,,,,,,,,,With Brainslug Difficult 2 No Money,12,images/assets/snowy_original.jpg,learning,20,images/assets/success.jpg,images/assets/gameover.jpg,,,,,,,,,,,,,0,7,7,3,1,,,,,,,,,,,,,,,,,,,,,,,,,,,,,,,,
,,,,,,,,,,,,675def962e621909f289e12d,001,3,2025-04-15_08h24.02.559,avatar_quest_3AFC_legacy,2022.1.3,Win32,29.85074627,675def962e621909f289e12d,67fe6e666cecbc9329ddf6d6,67fe7559fa122bde75677258,,,,,,,,,,,,,,,,,,,,,,No Brainslug No Barriers No Money,0,images/assets/snowy_original.jpg,learning,10,images/assets/success.jpg,images/assets/gameover.jpg,,,,,,,,,,,,,0,8,8,10,1,,,,,,,,,,,,,,,,,,,,,,,,,,,,,,,,
,,,,,,,,,,,,675def962e621909f289e12d,001,3,2025-04-15_08h24.02.559,avatar_quest_3AFC_legacy,2022.1.3,Win32,29.85074627,675def962e621909f289e12d,67fe6e666cecbc9329ddf6d6,67fe7559fa122bde75677258,,,,,,,,,,,,,,,,,,,,,,No Brainslug Difficult 2 With Money,12,images/assets/snowy_money.jpg,learning,20,images/assets/success_money.jpg,images/assets/gameover.jpg,,,,,,,,,,,,,0,9,9,7,1,,,,,,,,,,,,,,,,,,,,,,,,,,,,,,,,
,,,,,,,,,,,,675def962e621909f289e12d,001,3,2025-04-15_08h24.02.559,avatar_quest_3AFC_legacy,2022.1.3,Win32,29.85074627,675def962e621909f289e12d,67fe6e666cecbc9329ddf6d6,67fe7559fa122bde75677258,,,,,,,,,,,,,,,,,,,,,,With Brainslug Difficult 1 No Money,6,images/assets/snowy_original.jpg,learning,20,images/assets/success.jpg,images/assets/gameover.jpg,,,,,,,,,,,,,0,10,10,1,1,,,,,,,,,,,,,,,,,,,,,,,,,,,,,,,,
,,,,,,,,,,,,675def962e621909f289e12d,001,3,2025-04-15_08h24.02.559,avatar_quest_3AFC_legacy,2022.1.3,Win32,29.85074627,675def962e621909f289e12d,67fe6e666cecbc9329ddf6d6,67fe7559fa122bde75677258,,,,,,,,,,,,,,,,,,,,,,,,,,,,,,,,,,,,,,,,,,,,,,,,,,,,,,,6,0,6,0,1,,,,,,,,,,,,,,,,,,
,,,,,,,,,,,,675def962e621909f289e12d,001,3,2025-04-15_08h24.02.559,avatar_quest_3AFC_legacy,2022.1.3,Win32,29.85074627,675def962e621909f289e12d,67fe6e666cecbc9329ddf6d6,67fe7559fa122bde75677258,,,,,,,,,,,,,,,,,,,,,,With Brainslug No Barriers With Money,0,images/assets/snowy_money.jpg,learning,10,images/assets/success_money.jpg,images/assets/gameover.jpg,,,,,,,,With Brainslug Difficult 1 No Money,With Brainslug Difficult 1 No Money,left,0.9748,"[""With Brainslug Difficult 2 No Money"",""With Brainslug Difficult 2 With Money""]",0,0,0,4,1,,,,,,,,,,,,,,,,,,,,,,,,,,,,,,,,
,,,,,,,,,,,,675def962e621909f289e12d,001,3,2025-04-15_08h24.02.559,avatar_quest_3AFC_legacy,2022.1.3,Win32,29.85074627,675def962e621909f289e12d,67fe6e666cecbc9329ddf6d6,67fe7559fa122bde75677258,,,,,,,,,,,,,,,,,,,,,,No Brainslug No Barriers With Money,0,images/assets/snowy_money.jpg,learning,10,images/assets/success_money.jpg,images/assets/gameover.jpg,,,,,,,,,,,,,0,1,1,9,1,,,,,,,,,,,,,,,,,,,,,,,,,,,,,,,,
,,,,,,,,,,,,675def962e621909f289e12d,001,3,2025-04-15_08h24.02.559,avatar_quest_3AFC_legacy,2022.1.3,Win32,29.85074627,675def962e621909f289e12d,67fe6e666cecbc9329ddf6d6,67fe7559fa122bde75677258,,,,,,,,,,,,,,,,,,,,,,With Brainslug Difficult 1 With Money,6,images/assets/snowy_money.jpg,learning,20,images/assets/success_money.jpg,images/assets/gameover.jpg,,,,,,,,,,,,,0,2,2,0,1,,,,,,,,,,,,,,,,,,,,,,,,,,,,,,,,
,,,,,,,,,,,,675def962e621909f289e12d,001,3,2025-04-15_08h24.02.559,avatar_quest_3AFC_legacy,2022.1.3,Win32,29.85074627,675def962e621909f289e12d,67fe6e666cecbc9329ddf6d6,67fe7559fa122bde75677258,"[""left"",""left"",""left"",""left"",""right"",""right"",""right"",""right"",""right"",""right"",""left"",""left"",""left"",""left"",""right"",""right"",""right"",""right"",""right"",""right"",""left"",""left"",""left"",""left"",""left"",""left"",""left""]","[0.5126999999880582,0.6298000000119259,0.7823999999761782,0.9708000000119341,1.196699999988084,1.3646999999880904,1.5488000000119087,1.680100000023856,2.0211999999880845,2.1798999999761577,2.34699999999998,2.517100000023845,2.6808000000119137,2.813300000011907,3.014800000011917,3.2139999999999986,3.3778000000119164,3.5313000000119246,3.6501999999881036,3.7816999999880636,4.014100000023859,4.233499999999992,4.383500000000026,4.548399999976141,4.673800000011909,4.814800000011928,4.9481999999881054]",,calibration,With Brainslug Difficult 1 No Money,11,8.10935,5.3838,16,0,0,TRUE,na,na,na,na,,,,,,,,,,,,,,,,,,,,,,,,,,,,,,,,,,0,0,0,0,1,,,,,,,,,,,,,,,,,,,,,,,
,,,,,,,,,,,,675def962e621909f289e12d,001,3,2025-04-15_08h24.02.559,avatar_quest_3AFC_legacy,2022.1.3,Win32,29.85074627,675def962e621909f289e12d,67fe6e666cecbc9329ddf6d6,67fe7559fa122bde75677258,,,,,,,,,,,,,,,,,,,,,,With Brainslug Difficult 1 No Money,6,images/assets/snowy_original.jpg,learning,20,images/assets/success.jpg,images/assets/gameover.jpg,,,,,,,,,,,,,0,3,3,1,1,,,,,,,,,,,,,,,,,,,,,,,,,,,,,,,,
,,,,,,,,,,,,675def962e621909f289e12d,001,3,2025-04-15_08h24.02.559,avatar_quest_3AFC_legacy,2022.1.3,Win32,29.85074627,675def962e621909f289e12d,67fe6e666cecbc9329ddf6d6,67fe7559fa122bde75677258,,,,,,,,,,,,,,,,,,,,,,No Brainslug Difficult 2 No Money,12,images/assets/snowy_original.jpg,learning,20,images/assets/success.jpg,images/assets/gameover.jpg,,,,,,,,,,,,,0,4,4,8,1,,,,,,,,,,,,,,,,,,,,,,,,,,,,,,,,
,,,,,,,,,,,,675def962e621909f289e12d,001,3,2025-04-15_08h24.02.559,avatar_quest_3AFC_legacy,2022.1.3,Win32,29.85074627,675def962e621909f289e12d,67fe6e666cecbc9329ddf6d6,67fe7559fa122bde75677258,,,,,,,,,,,,,,,,,,,,,,With Brainslug Difficult 2 With Money,12,images/assets/snowy_money.jpg,learning,20,images/assets/success_money.jpg,images/assets/gameover.jpg,,,,,,,,,,,,,0,5,5,2,1,,,,,,,,,,,,,,,,,,,,,,,,,,,,,,,,
,,,,,,,,,,,,675def962e621909f289e12d,001,3,2025-04-15_08h24.02.559,avatar_quest_3AFC_legacy,2022.1.3,Win32,29.85074627,675def962e621909f289e12d,67fe6e666cecbc9329ddf6d6,67fe7559fa122bde75677258,,,,,,,,,,,,,,,,,,,,,,With Brainslug No Barriers No Money,0,images/assets/snowy_original.jpg,learning,10,images/assets/success.jpg,images/assets/gameover.jpg,,,,,,,,,,,,,0,6,6,5,1,,,,,,,,,,,,,,,,,,,,,,,,,,,,,,,,
,,,,,,,,,,,,675def962e621909f289e12d,001,3,2025-04-15_08h24.02.559,avatar_quest_3AFC_legacy,2022.1.3,Win32,29.85074627,675def962e621909f289e12d,67fe6e666cecbc9329ddf6d6,67fe7559fa122bde75677258,,,,,,,,,,,,,,,,,,,,,,No Brainslug Difficult 2 With Money,12,images/assets/snowy_money.jpg,learning,20,images/assets/success_money.jpg,images/assets/gameover.jpg,,,,,,,,,,,,,0,7,7,7,1,,,,,,,,,,,,,,,,,,,,,,,,,,,,,,,,
,,,,,,,,,,,,675def962e621909f289e12d,001,3,2025-04-15_08h24.02.559,avatar_quest_3AFC_legacy,2022.1.3,Win32,29.85074627,675def962e621909f289e12d,67fe6e666cecbc9329ddf6d6,67fe7559fa122bde75677258,,,,,,,,,,,,,,,,,,,,,,No Brainslug Difficult 1 No Money,6,images/assets/snowy_original.jpg,learning,20,images/assets/success.jpg,images/assets/gameover.jpg,,,,,,,,,,,,,0,8,8,6,1,,,,,,,,,,,,,,,,,,,,,,,,,,,,,,,,
,,,,,,,,,,,,675def962e621909f289e12d,001,3,2025-04-15_08h24.02.559,avatar_quest_3AFC_legacy,2022.1.3,Win32,29.85074627,675def962e621909f289e12d,67fe6e666cecbc9329ddf6d6,67fe7559fa122bde75677258,,,,,,,,,,,,,,,,,,,,,,With Brainslug Difficult 2 No Money,12,images/assets/snowy_original.jpg,learning,20,images/assets/success.jpg,images/assets/gameover.jpg,,,,,,,,,,,,,0,9,9,3,1,,,,,,,,,,,,,,,,,,,,,,,,,,,,,,,,
,,,,,,,,,,,,675def962e621909f289e12d,001,3,2025-04-15_08h24.02.559,avatar_quest_3AFC_legacy,2022.1.3,Win32,29.85074627,675def962e621909f289e12d,67fe6e666cecbc9329ddf6d6,67fe7559fa122bde75677258,,,,,,,,,,,,,,,,,,,,,,No Brainslug No Barriers No Money,0,images/assets/snowy_original.jpg,learning,10,images/assets/success.jpg,images/assets/gameover.jpg,,,,,,,,,,,,,0,10,10,10,1,,,,,,,,,,,,,,,,,,,,,,,,,,,,,,,,
,,,,,,,,,,,,675def962e621909f289e12d,001,3,2025-04-15_08h24.02.559,avatar_quest_3AFC_legacy,2022.1.3,Win32,29.85074627,675def962e621909f289e12d,67fe6e666cecbc9329ddf6d6,67fe7559fa122bde75677258,,,,,,,,,,,,,,,,,,,,,,,,,,,,,,,,,,,,,,,,,,,,,,,,,,,,,,,7,0,7,0,1,,,,,,,,,,,,,,,,,,
,,,,,,,,,,,,675def962e621909f289e12d,001,3,2025-04-15_08h24.02.559,avatar_quest_3AFC_legacy,2022.1.3,Win32,29.85074627,675def962e621909f289e12d,67fe6e666cecbc9329ddf6d6,67fe7559fa122bde75677258,,,,,,,,,,,,,,,,,,,,,,No Brainslug Difficult 2 No Money,12,images/assets/snowy_original.jpg,learning,20,images/assets/success.jpg,images/assets/gameover.jpg,,,,,,,,With Brainslug Difficult 1 No Money,With Brainslug Difficult 1 No Money,left,0.455,"[""With Brainslug Difficult 2 No Money"",""With Brainslug Difficult 2 With Money""]",0,0,0,8,1,,,,,,,,,,,,,,,,,,,,,,,,,,,,,,,,
,,,,,,,,,,,,675def962e621909f289e12d,001,3,2025-04-15_08h24.02.559,avatar_quest_3AFC_legacy,2022.1.3,Win32,29.85074627,675def962e621909f289e12d,67fe6e666cecbc9329ddf6d6,67fe7559fa122bde75677258,,,,,,,,,,,,,,,,,,,,,,No Brainslug Difficult 2 With Money,12,images/assets/snowy_money.jpg,learning,20,images/assets/success_money.jpg,images/assets/gameover.jpg,,,,,,,,,,,,,0,1,1,7,1,,,,,,,,,,,,,,,,,,,,,,,,,,,,,,,,
,,,,,,,,,,,,675def962e621909f289e12d,001,3,2025-04-15_08h24.02.559,avatar_quest_3AFC_legacy,2022.1.3,Win32,29.85074627,675def962e621909f289e12d,67fe6e666cecbc9329ddf6d6,67fe7559fa122bde75677258,,,,,,,,,,,,,,,,,,,,,,No Brainslug No Barriers No Money,0,images/assets/snowy_original.jpg,learning,10,images/assets/success.jpg,images/assets/gameover.jpg,,,,,,,,,,,,,0,2,2,10,1,,,,,,,,,,,,,,,,,,,,,,,,,,,,,,,,
,,,,,,,,,,,,675def962e621909f289e12d,001,3,2025-04-15_08h24.02.559,avatar_quest_3AFC_legacy,2022.1.3,Win32,29.85074627,675def962e621909f289e12d,67fe6e666cecbc9329ddf6d6,67fe7559fa122bde75677258,,,,,,,,,,,,,,,,,,,,,,With Brainslug Difficult 1 With Money,6,images/assets/snowy_money.jpg,learning,20,images/assets/success_money.jpg,images/assets/gameover.jpg,,,,,,,,,,,,,0,3,3,0,1,,,,,,,,,,,,,,,,,,,,,,,,,,,,,,,,
,,,,,,,,,,,,675def962e621909f289e12d,001,3,2025-04-15_08h24.02.559,avatar_quest_3AFC_legacy,2022.1.3,Win32,29.85074627,675def962e621909f289e12d,67fe6e666cecbc9329ddf6d6,67fe7559fa122bde75677258,,,,,,,,,,,,,,,,,,,,,,With Brainslug No Barriers No Money,0,images/assets/snowy_original.jpg,learning,10,images/assets/success.jpg,images/assets/gameover.jpg,,,,,,,,,,,,,0,4,4,5,1,,,,,,,,,,,,,,,,,,,,,,,,,,,,,,,,
,,,,,,,,,,,,675def962e621909f289e12d,001,3,2025-04-15_08h24.02.559,avatar_quest_3AFC_legacy,2022.1.3,Win32,29.85074627,675def962e621909f289e12d,67fe6e666cecbc9329ddf6d6,67fe7559fa122bde75677258,"[""left"",""left"",""left"",""left"",""right"",""right"",""right"",""up"",""left"",""left"",""left"",""left"",""right"",""right""]","[0.4338999999761768,0.5858000000118864,0.7203000000118891,0.8686999999880527,1.2263999999761381,1.6018999999761263,1.8738999999761745,5.137699999988058,6.419599999964248,6.619699999988086,6.7703000000119005,6.953899999976159,7.703300000011893,7.904800000011903]",,calibration,With Brainslug Difficult 1 No Money,12,8.10935,8.1174,3,2,0,FALSE,na,na,na,na,,,,,,,,,,,,,,,,,,,,,,,,,,,,,,,,,,0,0,0,0,1,,,,,,,,,,,,,,,,,,,,,,,
,,,,,,,,,,,,675def962e621909f289e12d,001,3,2025-04-15_08h24.02.559,avatar_quest_3AFC_legacy,2022.1.3,Win32,29.85074627,675def962e621909f289e12d,67fe6e666cecbc9329ddf6d6,67fe7559fa122bde75677258,,,,,,,,,,,,,,,,,,,,,,With Brainslug Difficult 1 No Money,6,images/assets/snowy_original.jpg,learning,20,images/assets/success.jpg,images/assets/gameover.jpg,,,,,,,,,,,,,0,5,5,1,1,,,,,,,,,,,,,,,,,,,,,,,,,,,,,,,,
,,,,,,,,,,,,675def962e621909f289e12d,001,3,2025-04-15_08h24.02.559,avatar_quest_3AFC_legacy,2022.1.3,Win32,29.85074627,675def962e621909f289e12d,67fe6e666cecbc9329ddf6d6,67fe7559fa122bde75677258,,,,,,,,,,,,,,,,,,,,,,No Brainslug Difficult 1 No Money,6,images/assets/snowy_original.jpg,learning,20,images/assets/success.jpg,images/assets/gameover.jpg,,,,,,,,,,,,,0,6,6,6,1,,,,,,,,,,,,,,,,,,,,,,,,,,,,,,,,
,,,,,,,,,,,,675def962e621909f289e12d,001,3,2025-04-15_08h24.02.559,avatar_quest_3AFC_legacy,2022.1.3,Win32,29.85074627,675def962e621909f289e12d,67fe6e666cecbc9329ddf6d6,67fe7559fa122bde75677258,,,,,,,,,,,,,,,,,,,,,,With Brainslug Difficult 2 With Money,12,images/assets/snowy_money.jpg,learning,20,images/assets/success_money.jpg,images/assets/gameover.jpg,,,,,,,,,,,,,0,7,7,2,1,,,,,,,,,,,,,,,,,,,,,,,,,,,,,,,,
,,,,,,,,,,,,675def962e621909f289e12d,001,3,2025-04-15_08h24.02.559,avatar_quest_3AFC_legacy,2022.1.3,Win32,29.85074627,675def962e621909f289e12d,67fe6e666cecbc9329ddf6d6,67fe7559fa122bde75677258,,,,,,,,,,,,,,,,,,,,,,With Brainslug Difficult 2 No Money,12,images/assets/snowy_original.jpg,learning,20,images/assets/success.jpg,images/assets/gameover.jpg,,,,,,,,,,,,,0,8,8,3,1,,,,,,,,,,,,,,,,,,,,,,,,,,,,,,,,
,,,,,,,,,,,,675def962e621909f289e12d,001,3,2025-04-15_08h24.02.559,avatar_quest_3AFC_legacy,2022.1.3,Win32,29.85074627,675def962e621909f289e12d,67fe6e666cecbc9329ddf6d6,67fe7559fa122bde75677258,,,,,,,,,,,,,,,,,,,,,,No Brainslug No Barriers With Money,0,images/assets/snowy_money.jpg,learning,10,images/assets/success_money.jpg,images/assets/gameover.jpg,,,,,,,,,,,,,0,9,9,9,1,,,,,,,,,,,,,,,,,,,,,,,,,,,,,,,,
,,,,,,,,,,,,675def962e621909f289e12d,001,3,2025-04-15_08h24.02.559,avatar_quest_3AFC_legacy,2022.1.3,Win32,29.85074627,675def962e621909f289e12d,67fe6e666cecbc9329ddf6d6,67fe7559fa122bde75677258,,,,,,,,,,,,,,,,,,,,,,With Brainslug No Barriers With Money,0,images/assets/snowy_money.jpg,learning,10,images/assets/success_money.jpg,images/assets/gameover.jpg,,,,,,,,,,,,,0,10,10,4,1,,,,,,,,,,,,,,,,,,,,,,,,,,,,,,,,
,,,,,,,,,,,,675def962e621909f289e12d,001,3,2025-04-15_08h24.02.559,avatar_quest_3AFC_legacy,2022.1.3,Win32,29.85074627,675def962e621909f289e12d,67fe6e666cecbc9329ddf6d6,67fe7559fa122bde75677258,,,,,,,,,,,,,,,,,,,,,,,,,,,,,,,,,,,,,,,,,,,,,,,,,,,,,,,8,0,8,0,1,,,,,,,,,,,,,,,,,,
,,,,,,,,,,,,675def962e621909f289e12d,001,3,2025-04-15_08h24.02.559,avatar_quest_3AFC_legacy,2022.1.3,Win32,29.85074627,675def962e621909f289e12d,67fe6e666cecbc9329ddf6d6,67fe7559fa122bde75677258,,,,,,,,,,,,,,,,,,,,,,No Brainslug No Barriers No Money,0,images/assets/snowy_original.jpg,learning,10,images/assets/success.jpg,images/assets/gameover.jpg,,,,,,,,With Brainslug Difficult 2 With Money,With Brainslug Difficult 1 No Money,right,0.0008,"[""With Brainslug Difficult 1 No Money"",""With Brainslug Difficult 2 No Money""]",0,0,0,10,1,,,,,,,,,,,,,,,,,,,,,,,,,,,,,,,,
,,,,,,,,,,,,675def962e621909f289e12d,001,3,2025-04-15_08h24.02.559,avatar_quest_3AFC_legacy,2022.1.3,Win32,29.85074627,675def962e621909f289e12d,67fe6e666cecbc9329ddf6d6,67fe7559fa122bde75677258,,,,,,,,,,,,,,,,,,,,,,No Brainslug Difficult 2 No Money,12,images/assets/snowy_original.jpg,learning,20,images/assets/success.jpg,images/assets/gameover.jpg,,,,,,,,,,,,,0,1,1,8,1,,,,,,,,,,,,,,,,,,,,,,,,,,,,,,,,
,,,,,,,,,,,,675def962e621909f289e12d,001,3,2025-04-15_08h24.02.559,avatar_quest_3AFC_legacy,2022.1.3,Win32,29.85074627,675def962e621909f289e12d,67fe6e666cecbc9329ddf6d6,67fe7559fa122bde75677258,,,,,,,,,,,,,,,,,,,,,,With Brainslug Difficult 2 No Money,12,images/assets/snowy_original.jpg,learning,20,images/assets/success.jpg,images/assets/gameover.jpg,,,,,,,,,,,,,0,2,2,3,1,,,,,,,,,,,,,,,,,,,,,,,,,,,,,,,,
,,,,,,,,,,,,675def962e621909f289e12d,001,3,2025-04-15_08h24.02.559,avatar_quest_3AFC_legacy,2022.1.3,Win32,29.85074627,675def962e621909f289e12d,67fe6e666cecbc9329ddf6d6,67fe7559fa122bde75677258,,,,,,,,,,,,,,,,,,,,,,With Brainslug No Barriers No Money,0,images/assets/snowy_original.jpg,learning,10,images/assets/success.jpg,images/assets/gameover.jpg,,,,,,,,,,,,,0,3,3,5,1,,,,,,,,,,,,,,,,,,,,,,,,,,,,,,,,
,,,,,,,,,,,,675def962e621909f289e12d,001,3,2025-04-15_08h24.02.559,avatar_quest_3AFC_legacy,2022.1.3,Win32,29.85074627,675def962e621909f289e12d,67fe6e666cecbc9329ddf6d6,67fe7559fa122bde75677258,"[""left"",""left"",""left"",""left"",""right"",""right"",""right"",""right"",""right"",""right"",""right"",""right"",""left"",""left"",""left"",""right"",""right"",""right"",""right"",""right"",""right"",""right"",""right"",""left"",""left"",""right"",""right"",""right"",""right"",""right"",""right"",""right"",""right""]","[0.6650999999642409,0.8598000000119441,1.0288000000119268,1.16130000001192,1.3799999999999955,1.7435999999642604,1.8799999999999955,2.033099999964236,2.2465999999642463,2.5613999999761745,2.777499999999975,3.01219999998807,3.380099999964216,3.5833000000119455,3.7468000000119446,4.011000000000024,4.1946999999880745,4.327199999988068,4.711500000000001,4.9101999999880945,5.143699999988087,5.344199999988064,5.695599999964259,5.994699999988086,6.2773000000119055,6.844499999999982,7.078199999988101,7.228199999988078,7.400500000000022,7.513199999988103,7.661199999988071,7.811800000011942,7.982899999976155]",,calibration,With Brainslug Difficult 2 With Money,13,8.10935,8.1171,18,3,0,FALSE,na,na,na,na,,,,,,,,,,,,,,,,,,,,,,,,,,,,,,,,,,0,0,0,0,1,,,,,,,,,,,,,,,,,,,,,,,
,,,,,,,,,,,,675def962e621909f289e12d,001,3,2025-04-15_08h24.02.559,avatar_quest_3AFC_legacy,2022.1.3,Win32,29.85074627,675def962e621909f289e12d,67fe6e666cecbc9329ddf6d6,67fe7559fa122bde75677258,,,,,,,,,,,,,,,,,,,,,,With Brainslug Difficult 2 With Money,12,images/assets/snowy_money.jpg,learning,20,images/assets/success_money.jpg,images/assets/gameover.jpg,,,,,,,,,,,,,0,4,4,2,1,,,,,,,,,,,,,,,,,,,,,,,,,,,,,,,,
,,,,,,,,,,,,675def962e621909f289e12d,001,3,2025-04-15_08h24.02.559,avatar_quest_3AFC_legacy,2022.1.3,Win32,29.85074627,675def962e621909f289e12d,67fe6e666cecbc9329ddf6d6,67fe7559fa122bde75677258,,,,,,,,,,,,,,,,,,,,,,No Brainslug No Barriers With Money,0,images/assets/snowy_money.jpg,learning,10,images/assets/success_money.jpg,images/assets/gameover.jpg,,,,,,,,,,,,,0,5,5,9,1,,,,,,,,,,,,,,,,,,,,,,,,,,,,,,,,
,,,,,,,,,,,,675def962e621909f289e12d,001,3,2025-04-15_08h24.02.559,avatar_quest_3AFC_legacy,2022.1.3,Win32,29.85074627,675def962e621909f289e12d,67fe6e666cecbc9329ddf6d6,67fe7559fa122bde75677258,,,,,,,,,,,,,,,,,,,,,,With Brainslug No Barriers With Money,0,images/assets/snowy_money.jpg,learning,10,images/assets/success_money.jpg,images/assets/gameover.jpg,,,,,,,,,,,,,0,6,6,4,1,,,,,,,,,,,,,,,,,,,,,,,,,,,,,,,,
,,,,,,,,,,,,675def962e621909f289e12d,001,3,2025-04-15_08h24.02.559,avatar_quest_3AFC_legacy,2022.1.3,Win32,29.85074627,675def962e621909f289e12d,67fe6e666cecbc9329ddf6d6,67fe7559fa122bde75677258,,,,,,,,,,,,,,,,,,,,,,With Brainslug Difficult 1 With Money,6,images/assets/snowy_money.jpg,learning,20,images/assets/success_money.jpg,images/assets/gameover.jpg,,,,,,,,,,,,,0,7,7,0,1,,,,,,,,,,,,,,,,,,,,,,,,,,,,,,,,
,,,,,,,,,,,,675def962e621909f289e12d,001,3,2025-04-15_08h24.02.559,avatar_quest_3AFC_legacy,2022.1.3,Win32,29.85074627,675def962e621909f289e12d,67fe6e666cecbc9329ddf6d6,67fe7559fa122bde75677258,,,,,,,,,,,,,,,,,,,,,,With Brainslug Difficult 1 No Money,6,images/assets/snowy_original.jpg,learning,20,images/assets/success.jpg,images/assets/gameover.jpg,,,,,,,,,,,,,0,8,8,1,1,,,,,,,,,,,,,,,,,,,,,,,,,,,,,,,,
,,,,,,,,,,,,675def962e621909f289e12d,001,3,2025-04-15_08h24.02.559,avatar_quest_3AFC_legacy,2022.1.3,Win32,29.85074627,675def962e621909f289e12d,67fe6e666cecbc9329ddf6d6,67fe7559fa122bde75677258,,,,,,,,,,,,,,,,,,,,,,No Brainslug Difficult 2 With Money,12,images/assets/snowy_money.jpg,learning,20,images/assets/success_money.jpg,images/assets/gameover.jpg,,,,,,,,,,,,,0,9,9,7,1,,,,,,,,,,,,,,,,,,,,,,,,,,,,,,,,
,,,,,,,,,,,,675def962e621909f289e12d,001,3,2025-04-15_08h24.02.559,avatar_quest_3AFC_legacy,2022.1.3,Win32,29.85074627,675def962e621909f289e12d,67fe6e666cecbc9329ddf6d6,67fe7559fa122bde75677258,,,,,,,,,,,,,,,,,,,,,,No Brainslug Difficult 1 No Money,6,images/assets/snowy_original.jpg,learning,20,images/assets/success.jpg,images/assets/gameover.jpg,,,,,,,,,,,,,0,10,10,6,1,,,,,,,,,,,,,,,,,,,,,,,,,,,,,,,,
,,,,,,,,,,,,675def962e621909f289e12d,001,3,2025-04-15_08h24.02.559,avatar_quest_3AFC_legacy,2022.1.3,Win32,29.85074627,675def962e621909f289e12d,67fe6e666cecbc9329ddf6d6,67fe7559fa122bde75677258,,,,,,,,,,,,,,,,,,,,,,,,,,,,,,,,,,,,,,,,,,,,,,,,,,,,,,,9,0,9,0,1,,,,,,,,,,,,,,,,,,
,,,,,,,,,,,,675def962e621909f289e12d,001,3,2025-04-15_08h24.02.559,avatar_quest_3AFC_legacy,2022.1.3,Win32,29.85074627,675def962e621909f289e12d,67fe6e666cecbc9329ddf6d6,67fe7559fa122bde75677258,,,,,,,,,,,,,,,,,,,,,,With Brainslug Difficult 2 No Money,12,images/assets/snowy_original.jpg,learning,20,images/assets/success.jpg,images/assets/gameover.jpg,,,,,,,,With Brainslug Difficult 1 No Money,With Brainslug Difficult 1 No Money,left,1.0821,"[""With Brainslug Difficult 2 No Money"",""With Brainslug Difficult 2 With Money""]",0,0,0,3,1,,,,,,,,,,,,,,,,,,,,,,,,,,,,,,,,
,,,,,,,,,,,,675def962e621909f289e12d,001,3,2025-04-15_08h24.02.559,avatar_quest_3AFC_legacy,2022.1.3,Win32,29.85074627,675def962e621909f289e12d,67fe6e666cecbc9329ddf6d6,67fe7559fa122bde75677258,,,,,,,,,,,,,,,,,,,,,,No Brainslug Difficult 2 No Money,12,images/assets/snowy_original.jpg,learning,20,images/assets/success.jpg,images/assets/gameover.jpg,,,,,,,,,,,,,0,1,1,8,1,,,,,,,,,,,,,,,,,,,,,,,,,,,,,,,,
,,,,,,,,,,,,675def962e621909f289e12d,001,3,2025-04-15_08h24.02.559,avatar_quest_3AFC_legacy,2022.1.3,Win32,29.85074627,675def962e621909f289e12d,67fe6e666cecbc9329ddf6d6,67fe7559fa122bde75677258,,,,,,,,,,,,,,,,,,,,,,No Brainslug No Barriers With Money,0,images/assets/snowy_money.jpg,learning,10,images/assets/success_money.jpg,images/assets/gameover.jpg,,,,,,,,,,,,,0,2,2,9,1,,,,,,,,,,,,,,,,,,,,,,,,,,,,,,,,
,,,,,,,,,,,,675def962e621909f289e12d,001,3,2025-04-15_08h24.02.559,avatar_quest_3AFC_legacy,2022.1.3,Win32,29.85074627,675def962e621909f289e12d,67fe6e666cecbc9329ddf6d6,67fe7559fa122bde75677258,,,,,,,,,,,,,,,,,,,,,,With Brainslug No Barriers No Money,0,images/assets/snowy_original.jpg,learning,10,images/assets/success.jpg,images/assets/gameover.jpg,,,,,,,,,,,,,0,3,3,5,1,,,,,,,,,,,,,,,,,,,,,,,,,,,,,,,,
,,,,,,,,,,,,675def962e621909f289e12d,001,3,2025-04-15_08h24.02.559,avatar_quest_3AFC_legacy,2022.1.3,Win32,29.85074627,675def962e621909f289e12d,67fe6e666cecbc9329ddf6d6,67fe7559fa122bde75677258,,,,,,,,,,,,,,,,,,,,,,No Brainslug Difficult 2 With Money,12,images/assets/snowy_money.jpg,learning,20,images/assets/success_money.jpg,images/assets/gameover.jpg,,,,,,,,,,,,,0,4,4,7,1,,,,,,,,,,,,,,,,,,,,,,,,,,,,,,,,
,,,,,,,,,,,,675def962e621909f289e12d,001,3,2025-04-15_08h24.02.559,avatar_quest_3AFC_legacy,2022.1.3,Win32,29.85074627,675def962e621909f289e12d,67fe6e666cecbc9329ddf6d6,67fe7559fa122bde75677258,,,,,,,,,,,,,,,,,,,,,,With Brainslug Difficult 2 With Money,12,images/assets/snowy_money.jpg,learning,20,images/assets/success_money.jpg,images/assets/gameover.jpg,,,,,,,,,,,,,0,5,5,2,1,,,,,,,,,,,,,,,,,,,,,,,,,,,,,,,,
,,,,,,,,,,,,675def962e621909f289e12d,001,3,2025-04-15_08h24.02.559,avatar_quest_3AFC_legacy,2022.1.3,Win32,29.85074627,675def962e621909f289e12d,67fe6e666cecbc9329ddf6d6,67fe7559fa122bde75677258,,,,,,,,,,,,,,,,,,,,,,No Brainslug Difficult 1 No Money,6,images/assets/snowy_original.jpg,learning,20,images/assets/success.jpg,images/assets/gameover.jpg,,,,,,,,,,,,,0,6,6,6,1,,,,,,,,,,,,,,,,,,,,,,,,,,,,,,,,
,,,,,,,,,,,,675def962e621909f289e12d,001,3,2025-04-15_08h24.02.559,avatar_quest_3AFC_legacy,2022.1.3,Win32,29.85074627,675def962e621909f289e12d,67fe6e666cecbc9329ddf6d6,67fe7559fa122bde75677258,"[""left"",""left"",""left"",""left"",""left"",""right"",""right"",""right"",""right"",""right"",""right"",""right"",""left"",""right"",""right"",""right"",""right"",""right"",""left"",""left"",""left"",""left"",""left"",""left"",""left"",""left"",""left"",""left"",""left"",""right"",""right"",""right"",""right"",""right"",""right"",""right"",""right"",""left"",""left"",""left"",""left""]","[0.41039999997616405,0.5786999999880891,0.7446999999880859,0.9293000000119491,1.0813999999761563,1.3623999999761622,1.596099999964224,1.7783000000119387,1.9630000000000223,2.1125999999642318,2.245199999988074,2.3791999999880886,2.6631999999880804,3.136000000000024,3.2960999999642695,3.445399999976189,3.546199999988062,3.684399999976165,4.029300000011915,4.219800000011901,4.3961999999880845,4.5491999999881045,4.698300000011955,4.846199999988073,5.062999999999988,5.214300000011917,5.396399999976154,5.547699999988083,5.712699999988104,6.062800000011919,6.26409999996423,6.4303000000119255,6.585199999988106,6.7345000000000255,6.867099999964239,6.963099999964243,7.129899999976146,7.44769999998806,7.647099999964269,7.816899999976158,7.980699999988076]",,calibration,With Brainslug Difficult 1 No Money,14,8.10935,8.1176,17,3,0,FALSE,na,na,na,na,,,,,,,,,,,,,,,,,,,,,,,,,,,,,,,,,,0,0,0,0,1,,,,,,,,,,,,,,,,,,,,,,,
,,,,,,,,,,,,675def962e621909f289e12d,001,3,2025-04-15_08h24.02.559,avatar_quest_3AFC_legacy,2022.1.3,Win32,29.85074627,675def962e621909f289e12d,67fe6e666cecbc9329ddf6d6,67fe7559fa122bde75677258,,,,,,,,,,,,,,,,,,,,,,With Brainslug Difficult 1 No Money,6,images/assets/snowy_original.jpg,learning,20,images/assets/success.jpg,images/assets/gameover.jpg,,,,,,,,,,,,,0,7,7,1,1,,,,,,,,,,,,,,,,,,,,,,,,,,,,,,,,
,,,,,,,,,,,,675def962e621909f289e12d,001,3,2025-04-15_08h24.02.559,avatar_quest_3AFC_legacy,2022.1.3,Win32,29.85074627,675def962e621909f289e12d,67fe6e666cecbc9329ddf6d6,67fe7559fa122bde75677258,,,,,,,,,,,,,,,,,,,,,,With Brainslug No Barriers With Money,0,images/assets/snowy_money.jpg,learning,10,images/assets/success_money.jpg,images/assets/gameover.jpg,,,,,,,,,,,,,0,8,8,4,1,,,,,,,,,,,,,,,,,,,,,,,,,,,,,,,,
,,,,,,,,,,,,675def962e621909f289e12d,001,3,2025-04-15_08h24.02.559,avatar_quest_3AFC_legacy,2022.1.3,Win32,29.85074627,675def962e621909f289e12d,67fe6e666cecbc9329ddf6d6,67fe7559fa122bde75677258,,,,,,,,,,,,,,,,,,,,,,With Brainslug Difficult 1 With Money,6,images/assets/snowy_money.jpg,learning,20,images/assets/success_money.jpg,images/assets/gameover.jpg,,,,,,,,,,,,,0,9,9,0,1,,,,,,,,,,,,,,,,,,,,,,,,,,,,,,,,
,,,,,,,,,,,,675def962e621909f289e12d,001,3,2025-04-15_08h24.02.559,avatar_quest_3AFC_legacy,2022.1.3,Win32,29.85074627,675def962e621909f289e12d,67fe6e666cecbc9329ddf6d6,67fe7559fa122bde75677258,,,,,,,,,,,,,,,,,,,,,,No Brainslug No Barriers No Money,0,images/assets/snowy_original.jpg,learning,10,images/assets/success.jpg,images/assets/gameover.jpg,,,,,,,,,,,,,0,10,10,10,1,,,,,,,,,,,,,,,,,,,,,,,,,,,,,,,,
,,,,,,,,,,,,675def962e621909f289e12d,001,3,2025-04-15_08h24.02.559,avatar_quest_3AFC_legacy,2022.1.3,Win32,29.85074627,675def962e621909f289e12d,67fe6e666cecbc9329ddf6d6,67fe7559fa122bde75677258,,,,,,,,,,,,,,,,,,,,,,,,,,,,,,,,,,,,,,,,,,,,,,,,,,,,,,,10,0,10,0,1,,,,,,,,,,,,,,,,,,
,,,,,,,,,,,,675def962e621909f289e12d,001,3,2025-04-15_08h24.02.559,avatar_quest_3AFC_legacy,2022.1.3,Win32,29.85074627,675def962e621909f289e12d,67fe6e666cecbc9329ddf6d6,67fe7559fa122bde75677258,,,,,,,,,,,,,,,,,,,,,,With Brainslug No Barriers With Money,0,images/assets/snowy_money.jpg,learning,10,images/assets/success_money.jpg,images/assets/gameover.jpg,,,,,,,,With Brainslug Difficult 1 No Money,With Brainslug Difficult 1 No Money,left,0.0708,"[""With Brainslug Difficult 2 No Money"",""With Brainslug Difficult 2 With Money""]",0,0,0,4,1,,,,,,,,,,,,,,,,,,,,,,,,,,,,,,,,
,,,,,,,,,,,,675def962e621909f289e12d,001,3,2025-04-15_08h24.02.559,avatar_quest_3AFC_legacy,2022.1.3,Win32,29.85074627,675def962e621909f289e12d,67fe6e666cecbc9329ddf6d6,67fe7559fa122bde75677258,,,,,,,,,,,,,,,,,,,,,,No Brainslug Difficult 1 No Money,6,images/assets/snowy_original.jpg,learning,20,images/assets/success.jpg,images/assets/gameover.jpg,,,,,,,,,,,,,0,1,1,6,1,,,,,,,,,,,,,,,,,,,,,,,,,,,,,,,,
,,,,,,,,,,,,675def962e621909f289e12d,001,3,2025-04-15_08h24.02.559,avatar_quest_3AFC_legacy,2022.1.3,Win32,29.85074627,675def962e621909f289e12d,67fe6e666cecbc9329ddf6d6,67fe7559fa122bde75677258,,,,,,,,,,,,,,,,,,,,,,No Brainslug Difficult 2 With Money,12,images/assets/snowy_money.jpg,learning,20,images/assets/success_money.jpg,images/assets/gameover.jpg,,,,,,,,,,,,,0,2,2,7,1,,,,,,,,,,,,,,,,,,,,,,,,,,,,,,,,
,,,,,,,,,,,,675def962e621909f289e12d,001,3,2025-04-15_08h24.02.559,avatar_quest_3AFC_legacy,2022.1.3,Win32,29.85074627,675def962e621909f289e12d,67fe6e666cecbc9329ddf6d6,67fe7559fa122bde75677258,,,,,,,,,,,,,,,,,,,,,,With Brainslug No Barriers No Money,0,images/assets/snowy_original.jpg,learning,10,images/assets/success.jpg,images/assets/gameover.jpg,,,,,,,,,,,,,0,3,3,5,1,,,,,,,,,,,,,,,,,,,,,,,,,,,,,,,,
,,,,,,,,,,,,675def962e621909f289e12d,001,3,2025-04-15_08h24.02.559,avatar_quest_3AFC_legacy,2022.1.3,Win32,29.85074627,675def962e621909f289e12d,67fe6e666cecbc9329ddf6d6,67fe7559fa122bde75677258,,,,,,,,,,,,,,,,,,,,,,With Brainslug Difficult 2 No Money,12,images/assets/snowy_original.jpg,learning,20,images/assets/success.jpg,images/assets/gameover.jpg,,,,,,,,,,,,,0,4,4,3,1,,,,,,,,,,,,,,,,,,,,,,,,,,,,,,,,
,,,,,,,,,,,,675def962e621909f289e12d,001,3,2025-04-15_08h24.02.559,avatar_quest_3AFC_legacy,2022.1.3,Win32,29.85074627,675def962e621909f289e12d,67fe6e666cecbc9329ddf6d6,67fe7559fa122bde75677258,,,,,,,,,,,,,,,,,,,,,,No Brainslug Difficult 2 No Money,12,images/assets/snowy_original.jpg,learning,20,images/assets/success.jpg,images/assets/gameover.jpg,,,,,,,,,,,,,0,5,5,8,1,,,,,,,,,,,,,,,,,,,,,,,,,,,,,,,,
,,,,,,,,,,,,675def962e621909f289e12d,001,3,2025-04-15_08h24.02.559,avatar_quest_3AFC_legacy,2022.1.3,Win32,29.85074627,675def962e621909f289e12d,67fe6e666cecbc9329ddf6d6,67fe7559fa122bde75677258,,,,,,,,,,,,,,,,,,,,,,No Brainslug No Barriers With Money,0,images/assets/snowy_money.jpg,learning,10,images/assets/success_money.jpg,images/assets/gameover.jpg,,,,,,,,,,,,,0,6,6,9,1,,,,,,,,,,,,,,,,,,,,,,,,,,,,,,,,
,,,,,,,,,,,,675def962e621909f289e12d,001,3,2025-04-15_08h24.02.559,avatar_quest_3AFC_legacy,2022.1.3,Win32,29.85074627,675def962e621909f289e12d,67fe6e666cecbc9329ddf6d6,67fe7559fa122bde75677258,,,,,,,,,,,,,,,,,,,,,,With Brainslug Difficult 2 With Money,12,images/assets/snowy_money.jpg,learning,20,images/assets/success_money.jpg,images/assets/gameover.jpg,,,,,,,,,,,,,0,7,7,2,1,,,,,,,,,,,,,,,,,,,,,,,,,,,,,,,,
,,,,,,,,,,,,675def962e621909f289e12d,001,3,2025-04-15_08h24.02.559,avatar_quest_3AFC_legacy,2022.1.3,Win32,29.85074627,675def962e621909f289e12d,67fe6e666cecbc9329ddf6d6,67fe7559fa122bde75677258,"[""left"",""left"",""left"",""right"",""right"",""right"",""right"",""left"",""left"",""left"",""left"",""left"",""left"",""left"",""right"",""right"",""right"",""right"",""right"",""right"",""right"",""left"",""left"",""left"",""left"",""left"",""left""]","[0.9776000000238128,1.3105000000000473,1.46160000002385,1.6232000000477456,1.8245000000000573,1.9908000000119728,2.1272000000477647,2.32440000003578,2.541200000047752,2.7079000000358064,2.875100000023849,3.025400000035802,3.158800000011979,3.2590000000000146,3.4339000000358055,3.636500000000069,3.787700000047721,3.9212000000477474,4.043600000023844,4.146700000047758,4.329000000000065,4.537000000000035,4.726200000047697,4.887800000011907,5.0553000000119255,5.206600000023855,5.340600000023869]",,calibration,With Brainslug Difficult 1 No Money,15,8.10935,5.68,12,2,0,TRUE,na,na,na,na,,,,,,,,,,,,,,,,,,,,,,,,,,,,,,,,,,0,0,0,0,1,,,,,,,,,,,,,,,,,,,,,,,
,,,,,,,,,,,,675def962e621909f289e12d,001,3,2025-04-15_08h24.02.559,avatar_quest_3AFC_legacy,2022.1.3,Win32,29.85074627,675def962e621909f289e12d,67fe6e666cecbc9329ddf6d6,67fe7559fa122bde75677258,,,,,,,,,,,,,,,,,,,,,,With Brainslug Difficult 1 No Money,6,images/assets/snowy_original.jpg,learning,20,images/assets/success.jpg,images/assets/gameover.jpg,,,,,,,,,,,,,0,8,8,1,1,,,,,,,,,,,,,,,,,,,,,,,,,,,,,,,,
,,,,,,,,,,,,675def962e621909f289e12d,001,3,2025-04-15_08h24.02.559,avatar_quest_3AFC_legacy,2022.1.3,Win32,29.85074627,675def962e621909f289e12d,67fe6e666cecbc9329ddf6d6,67fe7559fa122bde75677258,,,,,,,,,,,,,,,,,,,,,,With Brainslug Difficult 1 With Money,6,images/assets/snowy_money.jpg,learning,20,images/assets/success_money.jpg,images/assets/gameover.jpg,,,,,,,,,,,,,0,9,9,0,1,,,,,,,,,,,,,,,,,,,,,,,,,,,,,,,,
,,,,,,,,,,,,675def962e621909f289e12d,001,3,2025-04-15_08h24.02.559,avatar_quest_3AFC_legacy,2022.1.3,Win32,29.85074627,675def962e621909f289e12d,67fe6e666cecbc9329ddf6d6,67fe7559fa122bde75677258,,,,,,,,,,,,,,,,,,,,,,No Brainslug No Barriers No Money,0,images/assets/snowy_original.jpg,learning,10,images/assets/success.jpg,images/assets/gameover.jpg,,,,,,,,,,,,,0,10,10,10,1,,,,,,,,,,,,,,,,,,,,,,,,,,,,,,,,
,,,,,,,,,,,,675def962e621909f289e12d,001,3,2025-04-15_08h24.02.559,avatar_quest_3AFC_legacy,2022.1.3,Win32,29.85074627,675def962e621909f289e12d,67fe6e666cecbc9329ddf6d6,67fe7559fa122bde75677258,,,,,,,,,,,,,,,,,,,,,,,,,,,,,,,,,,,,,,,,,,,,,,,,,,,,,,,11,0,11,0,1,,,,,,,,,,,,,,,,,,
,,,,,,,,,,,,675def962e621909f289e12d,001,3,2025-04-15_08h24.02.559,avatar_quest_3AFC_legacy,2022.1.3,Win32,29.85074627,675def962e621909f289e12d,67fe6e666cecbc9329ddf6d6,67fe7559fa122bde75677258,,,,,,,,,,,,,,,,,,,,,,,,,,,,,,,,,,,,,,,,,,,,,,,,,,,,,,,,,,,,0,0,0,0,1,1,With Brainslug Difficult 1 No Money,images/assets/With Brainslug Difficult 1 No Money.png,With Brainslug Difficult 2 No Money,images/assets/With Brainslug Difficult 2 No Money.png,With Brainslug Difficult 2 With Money,images/assets/With Brainslug Difficult 2 With Money.png,Achievement vs. money,,,,,
,,,,,,,,,,,,675def962e621909f289e12d,001,3,2025-04-15_08h24.02.559,avatar_quest_3AFC_legacy,2022.1.3,Win32,29.85074627,675def962e621909f289e12d,67fe6e666cecbc9329ddf6d6,67fe7559fa122bde75677258,"[""left"",""left"",""right"",""right"",""right"",""left"",""left"",""left"",""left"",""left"",""left"",""right"",""right"",""right"",""right"",""left"",""right""]","[0.4576999999881082,0.6131000000239055,0.9238000000119655,1.1380000000000337,1.37030000001198,1.691000000000031,1.8953000000119573,2.632100000023911,2.7913000000119155,2.965400000035743,3.0961000000238528,3.3599000000357364,3.5799000000357637,3.7913000000119155,3.96369999998808,4.358600000023898,4.8214000000356805]",,calibration,No Brainslug No Barriers No Money,16,6.48748,6.5006,15,0,81,FALSE,na,na,na,na,,,,,,,,,,,,,,,,,,,,No Brainslug No Barriers No Money,No Brainslug No Barriers No Money,left,0.715,"[""No Brainslug Difficult 1 No Money"",""No Brainslug No Barriers With Money""]",,,,,,,,,,0,0,0,0,1,,,,,,,,,,,,,,,,,,,,,,,
,,,,,,,,,,,,675def962e621909f289e12d,001,3,2025-04-15_08h24.02.559,avatar_quest_3AFC_legacy,2022.1.3,Win32,29.85074627,675def962e621909f289e12d,67fe6e666cecbc9329ddf6d6,67fe7559fa122bde75677258,,,,,,,,,,,,,,,,,,,,,,No Brainslug No Barriers No Money,0,images/assets/snowy_original.jpg,learning,10,images/assets/success.jpg,images/assets/gameover.jpg,,,,,,,,,,,,,0,0,0,10,1,,,,,,,,,,,,,,,,,,,,,,,,,,,,,,,,
,,,,,,,,,,,,675def962e621909f289e12d,001,3,2025-04-15_08h24.02.559,avatar_quest_3AFC_legacy,2022.1.3,Win32,29.85074627,675def962e621909f289e12d,67fe6e666cecbc9329ddf6d6,67fe7559fa122bde75677258,,,,,,,,,,,,,,,,,,,,,,With Brainslug Difficult 2 With Money,12,images/assets/snowy_money.jpg,learning,20,images/assets/success_money.jpg,images/assets/gameover.jpg,,,,,,,,,,,,,0,1,1,2,1,,,,,,,,,,,,,,,,,,,,,,,,,,,,,,,,
,,,,,,,,,,,,675def962e621909f289e12d,001,3,2025-04-15_08h24.02.559,avatar_quest_3AFC_legacy,2022.1.3,Win32,29.85074627,675def962e621909f289e12d,67fe6e666cecbc9329ddf6d6,67fe7559fa122bde75677258,,,,,,,,,,,,,,,,,,,,,,With Brainslug Difficult 1 With Money,6,images/assets/snowy_money.jpg,learning,20,images/assets/success_money.jpg,images/assets/gameover.jpg,,,,,,,,,,,,,0,2,2,0,1,,,,,,,,,,,,,,,,,,,,,,,,,,,,,,,,
,,,,,,,,,,,,675def962e621909f289e12d,001,3,2025-04-15_08h24.02.559,avatar_quest_3AFC_legacy,2022.1.3,Win32,29.85074627,675def962e621909f289e12d,67fe6e666cecbc9329ddf6d6,67fe7559fa122bde75677258,,,,,,,,,,,,,,,,,,,,,,No Brainslug Difficult 2 With Money,12,images/assets/snowy_money.jpg,learning,20,images/assets/success_money.jpg,images/assets/gameover.jpg,,,,,,,,,,,,,0,3,3,7,1,,,,,,,,,,,,,,,,,,,,,,,,,,,,,,,,
,,,,,,,,,,,,675def962e621909f289e12d,001,3,2025-04-15_08h24.02.559,avatar_quest_3AFC_legacy,2022.1.3,Win32,29.85074627,675def962e621909f289e12d,67fe6e666cecbc9329ddf6d6,67fe7559fa122bde75677258,,,,,,,,,,,,,,,,,,,,,,No Brainslug No Barriers With Money,0,images/assets/snowy_money.jpg,learning,10,images/assets/success_money.jpg,images/assets/gameover.jpg,,,,,,,,,,,,,0,4,4,9,1,,,,,,,,,,,,,,,,,,,,,,,,,,,,,,,,
,,,,,,,,,,,,675def962e621909f289e12d,001,3,2025-04-15_08h24.02.559,avatar_quest_3AFC_legacy,2022.1.3,Win32,29.85074627,675def962e621909f289e12d,67fe6e666cecbc9329ddf6d6,67fe7559fa122bde75677258,,,,,,,,,,,,,,,,,,,,,,With Brainslug No Barriers With Money,0,images/assets/snowy_money.jpg,learning,10,images/assets/success_money.jpg,images/assets/gameover.jpg,,,,,,,,,,,,,0,5,5,4,1,,,,,,,,,,,,,,,,,,,,,,,,,,,,,,,,
,,,,,,,,,,,,675def962e621909f289e12d,001,3,2025-04-15_08h24.02.559,avatar_quest_3AFC_legacy,2022.1.3,Win32,29.85074627,675def962e621909f289e12d,67fe6e666cecbc9329ddf6d6,67fe7559fa122bde75677258,,,,,,,,,,,,,,,,,,,,,,With Brainslug No Barriers No Money,0,images/assets/snowy_original.jpg,learning,10,images/assets/success.jpg,images/assets/gameover.jpg,,,,,,,,,,,,,0,6,6,5,1,,,,,,,,,,,,,,,,,,,,,,,,,,,,,,,,
,,,,,,,,,,,,675def962e621909f289e12d,001,3,2025-04-15_08h24.02.559,avatar_quest_3AFC_legacy,2022.1.3,Win32,29.85074627,675def962e621909f289e12d,67fe6e666cecbc9329ddf6d6,67fe7559fa122bde75677258,,,,,,,,,,,,,,,,,,,,,,No Brainslug Difficult 1 No Money,6,images/assets/snowy_original.jpg,learning,20,images/assets/success.jpg,images/assets/gameover.jpg,,,,,,,,,,,,,0,7,7,6,1,,,,,,,,,,,,,,,,,,,,,,,,,,,,,,,,
,,,,,,,,,,,,675def962e621909f289e12d,001,3,2025-04-15_08h24.02.559,avatar_quest_3AFC_legacy,2022.1.3,Win32,29.85074627,675def962e621909f289e12d,67fe6e666cecbc9329ddf6d6,67fe7559fa122bde75677258,,,,,,,,,,,,,,,,,,,,,,With Brainslug Difficult 2 No Money,12,images/assets/snowy_original.jpg,learning,20,images/assets/success.jpg,images/assets/gameover.jpg,,,,,,,,,,,,,0,8,8,3,1,,,,,,,,,,,,,,,,,,,,,,,,,,,,,,,,
,,,,,,,,,,,,675def962e621909f289e12d,001,3,2025-04-15_08h24.02.559,avatar_quest_3AFC_legacy,2022.1.3,Win32,29.85074627,675def962e621909f289e12d,67fe6e666cecbc9329ddf6d6,67fe7559fa122bde75677258,,,,,,,,,,,,,,,,,,,,,,With Brainslug Difficult 1 No Money,6,images/assets/snowy_original.jpg,learning,20,images/assets/success.jpg,images/assets/gameover.jpg,,,,,,,,,,,,,0,9,9,1,1,,,,,,,,,,,,,,,,,,,,,,,,,,,,,,,,
,,,,,,,,,,,,675def962e621909f289e12d,001,3,2025-04-15_08h24.02.559,avatar_quest_3AFC_legacy,2022.1.3,Win32,29.85074627,675def962e621909f289e12d,67fe6e666cecbc9329ddf6d6,67fe7559fa122bde75677258,,,,,,,,,,,,,,,,,,,,,,No Brainslug Difficult 2 No Money,12,images/assets/snowy_original.jpg,learning,20,images/assets/success.jpg,images/assets/gameover.jpg,,,,,,,,,,,,,0,10,10,8,1,,,,,,,,,,,,,,,,,,,,,,,,,,,,,,,,
,,,,,,,,,,,,675def962e621909f289e12d,001,3,2025-04-15_08h24.02.559,avatar_quest_3AFC_legacy,2022.1.3,Win32,29.85074627,675def962e621909f289e12d,67fe6e666cecbc9329ddf6d6,67fe7559fa122bde75677258,,,,,,,,,,,,,,,,,,,,,,,,,,,,,,,,,,,,,,,,,,,,,,,,,,,,,,,0,0,0,0,1,,,,,,,,,,,,,,,,,,
,,,,,,,,,,,,675def962e621909f289e12d,001,3,2025-04-15_08h24.02.559,avatar_quest_3AFC_legacy,2022.1.3,Win32,29.85074627,675def962e621909f289e12d,67fe6e666cecbc9329ddf6d6,67fe7559fa122bde75677258,,,,,,,,,,,,,,,,,,,,,,No Brainslug Difficult 2 No Money,12,images/assets/snowy_original.jpg,learning,20,images/assets/success.jpg,images/assets/gameover.jpg,,,,,,,,No Brainslug No Barriers No Money,No Brainslug No Barriers No Money,left,1.3903,"[""No Brainslug Difficult 1 No Money"",""No Brainslug No Barriers With Money""]",0,0,0,8,1,,,,,,,,,,,,,,,,,,,,,,,,,,,,,,,,
,,,,,,,,,,,,675def962e621909f289e12d,001,3,2025-04-15_08h24.02.559,avatar_quest_3AFC_legacy,2022.1.3,Win32,29.85074627,675def962e621909f289e12d,67fe6e666cecbc9329ddf6d6,67fe7559fa122bde75677258,,,,,,,,,,,,,,,,,,,,,,With Brainslug Difficult 1 With Money,6,images/assets/snowy_money.jpg,learning,20,images/assets/success_money.jpg,images/assets/gameover.jpg,,,,,,,,,,,,,0,1,1,0,1,,,,,,,,,,,,,,,,,,,,,,,,,,,,,,,,
,,,,,,,,,,,,675def962e621909f289e12d,001,3,2025-04-15_08h24.02.559,avatar_quest_3AFC_legacy,2022.1.3,Win32,29.85074627,675def962e621909f289e12d,67fe6e666cecbc9329ddf6d6,67fe7559fa122bde75677258,,,,,,,,,,,,,,,,,,,,,,No Brainslug Difficult 1 No Money,6,images/assets/snowy_original.jpg,learning,20,images/assets/success.jpg,images/assets/gameover.jpg,,,,,,,,,,,,,0,2,2,6,1,,,,,,,,,,,,,,,,,,,,,,,,,,,,,,,,
,,,,,,,,,,,,675def962e621909f289e12d,001,3,2025-04-15_08h24.02.559,avatar_quest_3AFC_legacy,2022.1.3,Win32,29.85074627,675def962e621909f289e12d,67fe6e666cecbc9329ddf6d6,67fe7559fa122bde75677258,,,,,,,,,,,,,,,,,,,,,,With Brainslug Difficult 2 With Money,12,images/assets/snowy_money.jpg,learning,20,images/assets/success_money.jpg,images/assets/gameover.jpg,,,,,,,,,,,,,0,3,3,2,1,,,,,,,,,,,,,,,,,,,,,,,,,,,,,,,,
,,,,,,,,,,,,675def962e621909f289e12d,001,3,2025-04-15_08h24.02.559,avatar_quest_3AFC_legacy,2022.1.3,Win32,29.85074627,675def962e621909f289e12d,67fe6e666cecbc9329ddf6d6,67fe7559fa122bde75677258,,,,,,,,,,,,,,,,,,,,,,With Brainslug No Barriers No Money,0,images/assets/snowy_original.jpg,learning,10,images/assets/success.jpg,images/assets/gameover.jpg,,,,,,,,,,,,,0,4,4,5,1,,,,,,,,,,,,,,,,,,,,,,,,,,,,,,,,
,,,,,,,,,,,,675def962e621909f289e12d,001,3,2025-04-15_08h24.02.559,avatar_quest_3AFC_legacy,2022.1.3,Win32,29.85074627,675def962e621909f289e12d,67fe6e666cecbc9329ddf6d6,67fe7559fa122bde75677258,,,,,,,,,,,,,,,,,,,,,,With Brainslug Difficult 1 No Money,6,images/assets/snowy_original.jpg,learning,20,images/assets/success.jpg,images/assets/gameover.jpg,,,,,,,,,,,,,0,5,5,1,1,,,,,,,,,,,,,,,,,,,,,,,,,,,,,,,,
,,,,,,,,,,,,675def962e621909f289e12d,001,3,2025-04-15_08h24.02.559,avatar_quest_3AFC_legacy,2022.1.3,Win32,29.85074627,675def962e621909f289e12d,67fe6e666cecbc9329ddf6d6,67fe7559fa122bde75677258,,,,,,,,,,,,,,,,,,,,,,No Brainslug Difficult 2 With Money,12,images/assets/snowy_money.jpg,learning,20,images/assets/success_money.jpg,images/assets/gameover.jpg,,,,,,,,,,,,,0,6,6,7,1,,,,,,,,,,,,,,,,,,,,,,,,,,,,,,,,
,,,,,,,,,,,,675def962e621909f289e12d,001,3,2025-04-15_08h24.02.559,avatar_quest_3AFC_legacy,2022.1.3,Win32,29.85074627,675def962e621909f289e12d,67fe6e666cecbc9329ddf6d6,67fe7559fa122bde75677258,,,,,,,,,,,,,,,,,,,,,,With Brainslug No Barriers With Money,0,images/assets/snowy_money.jpg,learning,10,images/assets/success_money.jpg,images/assets/gameover.jpg,,,,,,,,,,,,,0,7,7,4,1,,,,,,,,,,,,,,,,,,,,,,,,,,,,,,,,
,,,,,,,,,,,,675def962e621909f289e12d,001,3,2025-04-15_08h24.02.559,avatar_quest_3AFC_legacy,2022.1.3,Win32,29.85074627,675def962e621909f289e12d,67fe6e666cecbc9329ddf6d6,67fe7559fa122bde75677258,,,,,,,,,,,,,,,,,,,,,,No Brainslug No Barriers With Money,0,images/assets/snowy_money.jpg,learning,10,images/assets/success_money.jpg,images/assets/gameover.jpg,,,,,,,,,,,,,0,8,8,9,1,,,,,,,,,,,,,,,,,,,,,,,,,,,,,,,,
,,,,,,,,,,,,675def962e621909f289e12d,001,3,2025-04-15_08h24.02.559,avatar_quest_3AFC_legacy,2022.1.3,Win32,29.85074627,675def962e621909f289e12d,67fe6e666cecbc9329ddf6d6,67fe7559fa122bde75677258,"[""left"",""left"",""right"",""right"",""right"",""left"",""left"",""left"",""left"",""left"",""left"",""right"",""right"",""right"",""right""]","[0.5315000000000509,0.7193000000119127,0.9215999999642008,1.1225000000000591,1.2843000000119673,1.6068999999761218,2.3356999999880372,2.535800000011932,2.7065000000000055,2.9198000000119464,3.0906999999881464,3.4446999999880745,3.6456999999880964,3.81639999997617,4.170399999976212]",,calibration,No Brainslug No Barriers No Money,17,6.48748,6.5008,13,0,81,FALSE,na,na,na,na,,,,,,,,,,,,,,,,,,,,,,,,,,,,,,,,,,0,0,0,0,1,,,,,,,,,,,,,,,,,,,,,,,
,,,,,,,,,,,,675def962e621909f289e12d,001,3,2025-04-15_08h24.02.559,avatar_quest_3AFC_legacy,2022.1.3,Win32,29.85074627,675def962e621909f289e12d,67fe6e666cecbc9329ddf6d6,67fe7559fa122bde75677258,,,,,,,,,,,,,,,,,,,,,,No Brainslug No Barriers No Money,0,images/assets/snowy_original.jpg,learning,10,images/assets/success.jpg,images/assets/gameover.jpg,,,,,,,,,,,,,0,9,9,10,1,,,,,,,,,,,,,,,,,,,,,,,,,,,,,,,,
,,,,,,,,,,,,675def962e621909f289e12d,001,3,2025-04-15_08h24.02.559,avatar_quest_3AFC_legacy,2022.1.3,Win32,29.85074627,675def962e621909f289e12d,67fe6e666cecbc9329ddf6d6,67fe7559fa122bde75677258,,,,,,,,,,,,,,,,,,,,,,With Brainslug Difficult 2 No Money,12,images/assets/snowy_original.jpg,learning,20,images/assets/success.jpg,images/assets/gameover.jpg,,,,,,,,,,,,,0,10,10,3,1,,,,,,,,,,,,,,,,,,,,,,,,,,,,,,,,
,,,,,,,,,,,,675def962e621909f289e12d,001,3,2025-04-15_08h24.02.559,avatar_quest_3AFC_legacy,2022.1.3,Win32,29.85074627,675def962e621909f289e12d,67fe6e666cecbc9329ddf6d6,67fe7559fa122bde75677258,,,,,,,,,,,,,,,,,,,,,,,,,,,,,,,,,,,,,,,,,,,,,,,,,,,,,,,1,0,1,0,1,,,,,,,,,,,,,,,,,,
,,,,,,,,,,,,675def962e621909f289e12d,001,3,2025-04-15_08h24.02.559,avatar_quest_3AFC_legacy,2022.1.3,Win32,29.85074627,675def962e621909f289e12d,67fe6e666cecbc9329ddf6d6,67fe7559fa122bde75677258,,,,,,,,,,,,,,,,,,,,,,With Brainslug Difficult 1 With Money,6,images/assets/snowy_money.jpg,learning,20,images/assets/success_money.jpg,images/assets/gameover.jpg,,,,,,,,No Brainslug No Barriers No Money,No Brainslug No Barriers No Money,left,3.0482,"[""No Brainslug Difficult 1 No Money"",""No Brainslug No Barriers With Money""]",0,0,0,0,1,,,,,,,,,,,,,,,,,,,,,,,,,,,,,,,,
,,,,,,,,,,,,675def962e621909f289e12d,001,3,2025-04-15_08h24.02.559,avatar_quest_3AFC_legacy,2022.1.3,Win32,29.85074627,675def962e621909f289e12d,67fe6e666cecbc9329ddf6d6,67fe7559fa122bde75677258,,,,,,,,,,,,,,,,,,,,,,With Brainslug Difficult 1 No Money,6,images/assets/snowy_original.jpg,learning,20,images/assets/success.jpg,images/assets/gameover.jpg,,,,,,,,,,,,,0,1,1,1,1,,,,,,,,,,,,,,,,,,,,,,,,,,,,,,,,
,,,,,,,,,,,,675def962e621909f289e12d,001,3,2025-04-15_08h24.02.559,avatar_quest_3AFC_legacy,2022.1.3,Win32,29.85074627,675def962e621909f289e12d,67fe6e666cecbc9329ddf6d6,67fe7559fa122bde75677258,,,,,,,,,,,,,,,,,,,,,,No Brainslug Difficult 2 With Money,12,images/assets/snowy_money.jpg,learning,20,images/assets/success_money.jpg,images/assets/gameover.jpg,,,,,,,,,,,,,0,2,2,7,1,,,,,,,,,,,,,,,,,,,,,,,,,,,,,,,,
,,,,,,,,,,,,675def962e621909f289e12d,001,3,2025-04-15_08h24.02.559,avatar_quest_3AFC_legacy,2022.1.3,Win32,29.85074627,675def962e621909f289e12d,67fe6e666cecbc9329ddf6d6,67fe7559fa122bde75677258,,,,,,,,,,,,,,,,,,,,,,With Brainslug No Barriers No Money,0,images/assets/snowy_original.jpg,learning,10,images/assets/success.jpg,images/assets/gameover.jpg,,,,,,,,,,,,,0,3,3,5,1,,,,,,,,,,,,,,,,,,,,,,,,,,,,,,,,
,,,,,,,,,,,,675def962e621909f289e12d,001,3,2025-04-15_08h24.02.559,avatar_quest_3AFC_legacy,2022.1.3,Win32,29.85074627,675def962e621909f289e12d,67fe6e666cecbc9329ddf6d6,67fe7559fa122bde75677258,,,,,,,,,,,,,,,,,,,,,,No Brainslug Difficult 2 No Money,12,images/assets/snowy_original.jpg,learning,20,images/assets/success.jpg,images/assets/gameover.jpg,,,,,,,,,,,,,0,4,4,8,1,,,,,,,,,,,,,,,,,,,,,,,,,,,,,,,,
,,,,,,,,,,,,675def962e621909f289e12d,001,3,2025-04-15_08h24.02.559,avatar_quest_3AFC_legacy,2022.1.3,Win32,29.85074627,675def962e621909f289e12d,67fe6e666cecbc9329ddf6d6,67fe7559fa122bde75677258,,,,,,,,,,,,,,,,,,,,,,With Brainslug Difficult 2 No Money,12,images/assets/snowy_original.jpg,learning,20,images/assets/success.jpg,images/assets/gameover.jpg,,,,,,,,,,,,,0,5,5,3,1,,,,,,,,,,,,,,,,,,,,,,,,,,,,,,,,
,,,,,,,,,,,,675def962e621909f289e12d,001,3,2025-04-15_08h24.02.559,avatar_quest_3AFC_legacy,2022.1.3,Win32,29.85074627,675def962e621909f289e12d,67fe6e666cecbc9329ddf6d6,67fe7559fa122bde75677258,,,,,,,,,,,,,,,,,,,,,,With Brainslug Difficult 2 With Money,12,images/assets/snowy_money.jpg,learning,20,images/assets/success_money.jpg,images/assets/gameover.jpg,,,,,,,,,,,,,0,6,6,2,1,,,,,,,,,,,,,,,,,,,,,,,,,,,,,,,,
,,,,,,,,,,,,675def962e621909f289e12d,001,3,2025-04-15_08h24.02.559,avatar_quest_3AFC_legacy,2022.1.3,Win32,29.85074627,675def962e621909f289e12d,67fe6e666cecbc9329ddf6d6,67fe7559fa122bde75677258,,,,,,,,,,,,,,,,,,,,,,No Brainslug Difficult 1 No Money,6,images/assets/snowy_original.jpg,learning,20,images/assets/success.jpg,images/assets/gameover.jpg,,,,,,,,,,,,,0,7,7,6,1,,,,,,,,,,,,,,,,,,,,,,,,,,,,,,,,
,,,,,,,,,,,,675def962e621909f289e12d,001,3,2025-04-15_08h24.02.559,avatar_quest_3AFC_legacy,2022.1.3,Win32,29.85074627,675def962e621909f289e12d,67fe6e666cecbc9329ddf6d6,67fe7559fa122bde75677258,,,,,,,,,,,,,,,,,,,,,,No Brainslug No Barriers With Money,0,images/assets/snowy_money.jpg,learning,10,images/assets/success_money.jpg,images/assets/gameover.jpg,,,,,,,,,,,,,0,8,8,9,1,,,,,,,,,,,,,,,,,,,,,,,,,,,,,,,,
,,,,,,,,,,,,675def962e621909f289e12d,001,3,2025-04-15_08h24.02.559,avatar_quest_3AFC_legacy,2022.1.3,Win32,29.85074627,675def962e621909f289e12d,67fe6e666cecbc9329ddf6d6,67fe7559fa122bde75677258,"[""left"",""right"",""right"",""left"",""left"",""left"",""left"",""left"",""right"",""right"",""right""]","[0.43489999997621,0.6965000000000146,0.94969999998807,1.461999999999989,2.430600000023901,2.629399999976158,2.8151000000239037,2.9920000000000755,3.2791000000238455,3.497899999976198,3.885499999999979]",,calibration,No Brainslug No Barriers No Money,18,6.48748,6.5006,10,0,79,FALSE,na,na,na,na,,,,,,,,,,,,,,,,,,,,,,,,,,,,,,,,,,0,0,0,0,1,,,,,,,,,,,,,,,,,,,,,,,
,,,,,,,,,,,,675def962e621909f289e12d,001,3,2025-04-15_08h24.02.559,avatar_quest_3AFC_legacy,2022.1.3,Win32,29.85074627,675def962e621909f289e12d,67fe6e666cecbc9329ddf6d6,67fe7559fa122bde75677258,,,,,,,,,,,,,,,,,,,,,,No Brainslug No Barriers No Money,0,images/assets/snowy_original.jpg,learning,10,images/assets/success.jpg,images/assets/gameover.jpg,,,,,,,,,,,,,0,9,9,10,1,,,,,,,,,,,,,,,,,,,,,,,,,,,,,,,,
,,,,,,,,,,,,675def962e621909f289e12d,001,3,2025-04-15_08h24.02.559,avatar_quest_3AFC_legacy,2022.1.3,Win32,29.85074627,675def962e621909f289e12d,67fe6e666cecbc9329ddf6d6,67fe7559fa122bde75677258,,,,,,,,,,,,,,,,,,,,,,With Brainslug No Barriers With Money,0,images/assets/snowy_money.jpg,learning,10,images/assets/success_money.jpg,images/assets/gameover.jpg,,,,,,,,,,,,,0,10,10,4,1,,,,,,,,,,,,,,,,,,,,,,,,,,,,,,,,
,,,,,,,,,,,,675def962e621909f289e12d,001,3,2025-04-15_08h24.02.559,avatar_quest_3AFC_legacy,2022.1.3,Win32,29.85074627,675def962e621909f289e12d,67fe6e666cecbc9329ddf6d6,67fe7559fa122bde75677258,,,,,,,,,,,,,,,,,,,,,,,,,,,,,,,,,,,,,,,,,,,,,,,,,,,,,,,2,0,2,0,1,,,,,,,,,,,,,,,,,,
,,,,,,,,,,,,675def962e621909f289e12d,001,3,2025-04-15_08h24.02.559,avatar_quest_3AFC_legacy,2022.1.3,Win32,29.85074627,675def962e621909f289e12d,67fe6e666cecbc9329ddf6d6,67fe7559fa122bde75677258,,,,,,,,,,,,,,,,,,,,,,With Brainslug Difficult 1 No Money,6,images/assets/snowy_original.jpg,learning,20,images/assets/success.jpg,images/assets/gameover.jpg,,,,,,,,No Brainslug Difficult 1 No Money,No Brainslug No Barriers No Money,down,2.0558,"[""No Brainslug No Barriers No Money"",""No Brainslug No Barriers With Money""]",0,0,0,1,1,,,,,,,,,,,,,,,,,,,,,,,,,,,,,,,,
,,,,,,,,,,,,675def962e621909f289e12d,001,3,2025-04-15_08h24.02.559,avatar_quest_3AFC_legacy,2022.1.3,Win32,29.85074627,675def962e621909f289e12d,67fe6e666cecbc9329ddf6d6,67fe7559fa122bde75677258,,,,,,,,,,,,,,,,,,,,,,With Brainslug Difficult 2 With Money,12,images/assets/snowy_money.jpg,learning,20,images/assets/success_money.jpg,images/assets/gameover.jpg,,,,,,,,,,,,,0,1,1,2,1,,,,,,,,,,,,,,,,,,,,,,,,,,,,,,,,
,,,,,,,,,,,,675def962e621909f289e12d,001,3,2025-04-15_08h24.02.559,avatar_quest_3AFC_legacy,2022.1.3,Win32,29.85074627,675def962e621909f289e12d,67fe6e666cecbc9329ddf6d6,67fe7559fa122bde75677258,,,,,,,,,,,,,,,,,,,,,,With Brainslug No Barriers No Money,0,images/assets/snowy_original.jpg,learning,10,images/assets/success.jpg,images/assets/gameover.jpg,,,,,,,,,,,,,0,2,2,5,1,,,,,,,,,,,,,,,,,,,,,,,,,,,,,,,,
,,,,,,,,,,,,675def962e621909f289e12d,001,3,2025-04-15_08h24.02.559,avatar_quest_3AFC_legacy,2022.1.3,Win32,29.85074627,675def962e621909f289e12d,67fe6e666cecbc9329ddf6d6,67fe7559fa122bde75677258,,,,,,,,,,,,,,,,,,,,,,No Brainslug No Barriers With Money,0,images/assets/snowy_money.jpg,learning,10,images/assets/success_money.jpg,images/assets/gameover.jpg,,,,,,,,,,,,,0,3,3,9,1,,,,,,,,,,,,,,,,,,,,,,,,,,,,,,,,
,,,,,,,,,,,,675def962e621909f289e12d,001,3,2025-04-15_08h24.02.559,avatar_quest_3AFC_legacy,2022.1.3,Win32,29.85074627,675def962e621909f289e12d,67fe6e666cecbc9329ddf6d6,67fe7559fa122bde75677258,,,,,,,,,,,,,,,,,,,,,,With Brainslug Difficult 2 No Money,12,images/assets/snowy_original.jpg,learning,20,images/assets/success.jpg,images/assets/gameover.jpg,,,,,,,,,,,,,0,4,4,3,1,,,,,,,,,,,,,,,,,,,,,,,,,,,,,,,,
,,,,,,,,,,,,675def962e621909f289e12d,001,3,2025-04-15_08h24.02.559,avatar_quest_3AFC_legacy,2022.1.3,Win32,29.85074627,675def962e621909f289e12d,67fe6e666cecbc9329ddf6d6,67fe7559fa122bde75677258,,,,,,,,,,,,,,,,,,,,,,No Brainslug Difficult 2 With Money,12,images/assets/snowy_money.jpg,learning,20,images/assets/success_money.jpg,images/assets/gameover.jpg,,,,,,,,,,,,,0,5,5,7,1,,,,,,,,,,,,,,,,,,,,,,,,,,,,,,,,
