instruction_mouse.x,instruction_mouse.y,instruction_mouse.leftButton,instruction_mouse.midButton,instruction_mouse.rightButton,instruction_mouse.clicked_name,introduce_general.thisRepN,introduce_general.thisTrialN,introduce_general.thisN,introduce_general.thisIndex,introduce_general.ran,thisInstruction,participant,session,game version,date,expName,psychopyVersion,OS,frameRate,PROLIFIC PID,STUDY ID,SESSION ID,move_resp.keys,move_resp.rt,end_resp.keys,phase,condition,trial_num,time_limit,completion_time,left_right_steps,number_of_obsticle_blocks,number_of_tree_blocks,quest_complete,responsivity_summary,av_inter_brainslug_intervals,proportion_jitter,jitter_direction_proportion_right,calibration_phase.thisRepN,calibration_phase.thisTrialN,calibration_phase.thisN,calibration_phase.thisIndex,calibration_phase.ran,BlockLabel,nObsticles,backgroundImage,phaseLabel,n_side_steps,success_im,gameover_im,success_condition,introduce_learning_or_choice.thisRepN,introduce_learning_or_choice.thisTrialN,introduce_learning_or_choice.thisN,introduce_learning_or_choice.thisIndex,introduce_learning_or_choice.ran,choice_resp.keys,chosen_quest,unchosen_quest,choice_resp_3afc.keys,choice_resp_3afc.rt,unchosen_quests,forced_choice_trial.thisRepN,forced_choice_trial.thisTrialN,forced_choice_trial.thisN,forced_choice_trial.thisIndex,forced_choice_trial.ran,enjoyment_slider.response,enjoyment_slider.rt,effort_slider.response,effort_slider.rt,show_loop2.thisRepN,show_loop2.thisTrialN,show_loop2.thisN,show_loop2.thisIndex,show_loop2.ran,trials_per_block.thisRepN,trials_per_block.thisTrialN,trials_per_block.thisN,trials_per_block.thisIndex,trials_per_block.ran
0.393055556,-0.393055556,1,0,0,instruction_button,0,0,0,0,1,images/instructions_part1_LSM_taskversion1/Slide1.JPG,67d34a0adaf54e3354cf2b1c,001,3,2025-04-15_07h17.55.919,avatar_quest_3AFC_legacy,2022.1.3,Win32,59.88023952,67d34a0adaf54e3354cf2b1c,67fe37cb3bd870bba73819bd,67fe3df008e6cdf9fae61593,,,,,,,,,,,,,,,,,,,,,,,,,,,,,,,,,,,,,,,,,,,,,,,,,,,,,,,,,,,
0.363888889,-0.403472222,1,0,0,instruction_button,0,1,1,1,1,images/instructions_part1_LSM_taskversion1/Slide2.JPG,67d34a0adaf54e3354cf2b1c,001,3,2025-04-15_07h17.55.919,avatar_quest_3AFC_legacy,2022.1.3,Win32,59.88023952,67d34a0adaf54e3354cf2b1c,67fe37cb3bd870bba73819bd,67fe3df008e6cdf9fae61593,,,,,,,,,,,,,,,,,,,,,,,,,,,,,,,,,,,,,,,,,,,,,,,,,,,,,,,,,,,
0.379861111,-0.419444444,1,0,0,instruction_button,0,2,2,2,1,images/instructions_part1_LSM_taskversion1/Slide3.JPG,67d34a0adaf54e3354cf2b1c,001,3,2025-04-15_07h17.55.919,avatar_quest_3AFC_legacy,2022.1.3,Win32,59.88023952,67d34a0adaf54e3354cf2b1c,67fe37cb3bd870bba73819bd,67fe3df008e6cdf9fae61593,,,,,,,,,,,,,,,,,,,,,,,,,,,,,,,,,,,,,,,,,,,,,,,,,,,,,,,,,,,
0.369444444,-0.418055556,1,0,0,instruction_button,0,3,3,3,1,images/instructions_part1_LSM_taskversion1/Slide3.5.JPG,67d34a0adaf54e3354cf2b1c,001,3,2025-04-15_07h17.55.919,avatar_quest_3AFC_legacy,2022.1.3,Win32,59.88023952,67d34a0adaf54e3354cf2b1c,67fe37cb3bd870bba73819bd,67fe3df008e6cdf9fae61593,,,,,,,,,,,,,,,,,,,,,,,,,,,,,,,,,,,,,,,,,,,,,,,,,,,,,,,,,,,
0.369444444,-0.418055556,1,0,0,instruction_button,0,4,4,4,1,images/instructions_part1_LSM_taskversion1/Slide4.JPG,67d34a0adaf54e3354cf2b1c,001,3,2025-04-15_07h17.55.919,avatar_quest_3AFC_legacy,2022.1.3,Win32,59.88023952,67d34a0adaf54e3354cf2b1c,67fe37cb3bd870bba73819bd,67fe3df008e6cdf9fae61593,,,,,,,,,,,,,,,,,,,,,,,,,,,,,,,,,,,,,,,,,,,,,,,,,,,,,,,,,,,
0.369444444,-0.418055556,1,0,0,instruction_button,0,5,5,5,1,images/instructions_part1_LSM_taskversion1/Slide6.5.JPG,67d34a0adaf54e3354cf2b1c,001,3,2025-04-15_07h17.55.919,avatar_quest_3AFC_legacy,2022.1.3,Win32,59.88023952,67d34a0adaf54e3354cf2b1c,67fe37cb3bd870bba73819bd,67fe3df008e6cdf9fae61593,,,,,,,,,,,,,,,,,,,,,,,,,,,,,,,,,,,,,,,,,,,,,,,,,,,,,,,,,,,
,,,,,,,,,,,,67d34a0adaf54e3354cf2b1c,001,3,2025-04-15_07h17.55.919,avatar_quest_3AFC_legacy,2022.1.3,Win32,59.88023952,67d34a0adaf54e3354cf2b1c,67fe37cb3bd870bba73819bd,67fe3df008e6cdf9fae61593,"[""left""]",[2.869199999988041],,calibration,No Brainslug No Barriers No Money,1,100,5.4009,1,0,6,TRUE,na,na,na,na,0,0,0,1,1,No Brainslug No Barriers No Money,0,images/assets/snowy_original.jpg,calibration,10,images/assets/success.jpg,images/assets/gameover.jpg,never,,,,,,,,,,,,,,,,,,,,,,,,,,,,,,
,,,,,,,,,,,,67d34a0adaf54e3354cf2b1c,001,3,2025-04-15_07h17.55.919,avatar_quest_3AFC_legacy,2022.1.3,Win32,59.88023952,67d34a0adaf54e3354cf2b1c,67fe37cb3bd870bba73819bd,67fe3df008e6cdf9fae61593,"[""right"",""left"",""left"",""right"",""right"",""right""]","[0.15759999999403362,2.4265000000000327,3.995199999988074,5.2287999999970225,5.98039999999105,6.380599999994047]",,calibration,No Brainslug No Barriers No Money,2,100,6.4475,5,0,63,TRUE,na,na,na,na,0,1,1,0,1,No Brainslug No Barriers No Money,0,images/assets/snowy_original.jpg,calibration,10,images/assets/success.jpg,images/assets/gameover.jpg,never,,,,,,,,,,,,,,,,,,,,,,,,,,,,,,
,,,,,,,,,,,,67d34a0adaf54e3354cf2b1c,001,3,2025-04-15_07h17.55.919,avatar_quest_3AFC_legacy,2022.1.3,Win32,59.88023952,67d34a0adaf54e3354cf2b1c,67fe37cb3bd870bba73819bd,67fe3df008e6cdf9fae61593,"[""left"",""left"",""left""]","[2.391999999999996,3.7345000000000255,4.963599999994074]",,calibration,No Brainslug No Barriers No Money,3,100,5.3865,3,0,0,TRUE,na,na,na,na,0,2,2,2,1,No Brainslug No Barriers No Money,0,images/assets/snowy_original.jpg,calibration,10,images/assets/success.jpg,images/assets/gameover.jpg,never,,,,,,,,,,,,,,,,,,,,,,,,,,,,,,
0.35,-0.413888889,1,0,0,instruction_button,,,,,,images/instructions_part2_LSM_taskversion3.jpg,67d34a0adaf54e3354cf2b1c,001,3,2025-04-15_07h17.55.919,avatar_quest_3AFC_legacy,2022.1.3,Win32,59.88023952,67d34a0adaf54e3354cf2b1c,67fe37cb3bd870bba73819bd,67fe3df008e6cdf9fae61593,,,,,,,,,,,,,,,,,,,,,,,,,,,,,,0,0,0,0,1,,,,,,,,,,,,,,,,,,,,,,,,,
,,,,,,,,,,,,67d34a0adaf54e3354cf2b1c,001,3,2025-04-15_07h17.55.919,avatar_quest_3AFC_legacy,2022.1.3,Win32,59.88023952,67d34a0adaf54e3354cf2b1c,67fe37cb3bd870bba73819bd,67fe3df008e6cdf9fae61593,,,,,,,,,,,,,,,,,,,,,,With Brainslug No Barriers With Money,0,images/assets/snowy_money.jpg,learning,10,images/assets/success_money.jpg,images/assets/gameover.jpg,,,,,,,,With Brainslug Difficult 2 With Money,With Brainslug Difficult 1 No Money,right,4.1737,"[""With Brainslug Difficult 1 No Money"",""With Brainslug Difficult 2 No Money""]",0,0,0,4,1,,,,,,,,,,,,,,
,,,,,,,,,,,,67d34a0adaf54e3354cf2b1c,001,3,2025-04-15_07h17.55.919,avatar_quest_3AFC_legacy,2022.1.3,Win32,59.88023952,67d34a0adaf54e3354cf2b1c,67fe37cb3bd870bba73819bd,67fe3df008e6cdf9fae61593,,,,,,,,,,,,,,,,,,,,,,No Brainslug Difficult 1 No Money,6,images/assets/snowy_original.jpg,learning,20,images/assets/success.jpg,images/assets/gameover.jpg,,,,,,,,,,,,,0,1,1,6,1,,,,,,,,,,,,,,
,,,,,,,,,,,,67d34a0adaf54e3354cf2b1c,001,3,2025-04-15_07h17.55.919,avatar_quest_3AFC_legacy,2022.1.3,Win32,59.88023952,67d34a0adaf54e3354cf2b1c,67fe37cb3bd870bba73819bd,67fe3df008e6cdf9fae61593,,,,,,,,,,,,,,,,,,,,,,No Brainslug Difficult 2 No Money,12,images/assets/snowy_original.jpg,learning,20,images/assets/success.jpg,images/assets/gameover.jpg,,,,,,,,,,,,,0,2,2,8,1,,,,,,,,,,,,,,
,,,,,,,,,,,,67d34a0adaf54e3354cf2b1c,001,3,2025-04-15_07h17.55.919,avatar_quest_3AFC_legacy,2022.1.3,Win32,59.88023952,67d34a0adaf54e3354cf2b1c,67fe37cb3bd870bba73819bd,67fe3df008e6cdf9fae61593,,,,,,,,,,,,,,,,,,,,,,With Brainslug Difficult 1 With Money,6,images/assets/snowy_money.jpg,learning,20,images/assets/success_money.jpg,images/assets/gameover.jpg,,,,,,,,,,,,,0,3,3,0,1,,,,,,,,,,,,,,
,,,,,,,,,,,,67d34a0adaf54e3354cf2b1c,001,3,2025-04-15_07h17.55.919,avatar_quest_3AFC_legacy,2022.1.3,Win32,59.88023952,67d34a0adaf54e3354cf2b1c,67fe37cb3bd870bba73819bd,67fe3df008e6cdf9fae61593,,,,,,,,,,,,,,,,,,,,,,No Brainslug No Barriers With Money,0,images/assets/snowy_money.jpg,learning,10,images/assets/success_money.jpg,images/assets/gameover.jpg,,,,,,,,,,,,,0,4,4,9,1,,,,,,,,,,,,,,
,,,,,,,,,,,,67d34a0adaf54e3354cf2b1c,001,3,2025-04-15_07h17.55.919,avatar_quest_3AFC_legacy,2022.1.3,Win32,59.88023952,67d34a0adaf54e3354cf2b1c,67fe37cb3bd870bba73819bd,67fe3df008e6cdf9fae61593,,,,,,,,,,,,,,,,,,,,,,No Brainslug No Barriers No Money,0,images/assets/snowy_original.jpg,learning,10,images/assets/success.jpg,images/assets/gameover.jpg,,,,,,,,,,,,,0,5,5,10,1,,,,,,,,,,,,,,
,,,,,,,,,,,,67d34a0adaf54e3354cf2b1c,001,3,2025-04-15_07h17.55.919,avatar_quest_3AFC_legacy,2022.1.3,Win32,59.88023952,67d34a0adaf54e3354cf2b1c,67fe37cb3bd870bba73819bd,67fe3df008e6cdf9fae61593,,,,,,,,,,,,,,,,,,,,,,With Brainslug Difficult 1 No Money,6,images/assets/snowy_original.jpg,learning,20,images/assets/success.jpg,images/assets/gameover.jpg,,,,,,,,,,,,,0,6,6,1,1,,,,,,,,,,,,,,
,,,,,,,,,,,,67d34a0adaf54e3354cf2b1c,001,3,2025-04-15_07h17.55.919,avatar_quest_3AFC_legacy,2022.1.3,Win32,59.88023952,67d34a0adaf54e3354cf2b1c,67fe37cb3bd870bba73819bd,67fe3df008e6cdf9fae61593,,,,,,,,,,,,,,,,,,,,,,No Brainslug Difficult 2 With Money,12,images/assets/snowy_money.jpg,learning,20,images/assets/success_money.jpg,images/assets/gameover.jpg,,,,,,,,,,,,,0,7,7,7,1,,,,,,,,,,,,,,
,,,,,,,,,,,,67d34a0adaf54e3354cf2b1c,001,3,2025-04-15_07h17.55.919,avatar_quest_3AFC_legacy,2022.1.3,Win32,59.88023952,67d34a0adaf54e3354cf2b1c,67fe37cb3bd870bba73819bd,67fe3df008e6cdf9fae61593,,,,,,,,,,,,,,,,,,,,,,With Brainslug No Barriers No Money,0,images/assets/snowy_original.jpg,learning,10,images/assets/success.jpg,images/assets/gameover.jpg,,,,,,,,,,,,,0,8,8,5,1,,,,,,,,,,,,,,
,,,,,,,,,,,,67d34a0adaf54e3354cf2b1c,001,3,2025-04-15_07h17.55.919,avatar_quest_3AFC_legacy,2022.1.3,Win32,59.88023952,67d34a0adaf54e3354cf2b1c,67fe37cb3bd870bba73819bd,67fe3df008e6cdf9fae61593,"[""left"",""right"",""left"",""left"",""right""]","[4.400100000008933,5.0680000000000405,5.738700000003007,6.870200000002967,7.474299999997072]",,calibration,With Brainslug Difficult 2 With Money,4,8.61745,8.6399,3,6,0,FALSE,na,na,na,na,,,,,,,,,,,,,,,,,,,,,,,,,,,,,,,,,,0,0,0,0,1,,,,,
,,,,,,,,,,,,67d34a0adaf54e3354cf2b1c,001,3,2025-04-15_07h17.55.919,avatar_quest_3AFC_legacy,2022.1.3,Win32,59.88023952,67d34a0adaf54e3354cf2b1c,67fe37cb3bd870bba73819bd,67fe3df008e6cdf9fae61593,,,,,,,,,,,,,,,,,,,,,,With Brainslug Difficult 2 With Money,12,images/assets/snowy_money.jpg,learning,20,images/assets/success_money.jpg,images/assets/gameover.jpg,,,,,,,,,,,,,0,9,9,2,1,,,,,,,,,,,,,,
,,,,,,,,,,,,67d34a0adaf54e3354cf2b1c,001,3,2025-04-15_07h17.55.919,avatar_quest_3AFC_legacy,2022.1.3,Win32,59.88023952,67d34a0adaf54e3354cf2b1c,67fe37cb3bd870bba73819bd,67fe3df008e6cdf9fae61593,,,,,,,,,,,,,,,,,,,,,,With Brainslug Difficult 2 No Money,12,images/assets/snowy_original.jpg,learning,20,images/assets/success.jpg,images/assets/gameover.jpg,,,,,,,,,,,,,0,10,10,3,1,,,,,,,,,,,,,,
,,,,,,,,,,,,67d34a0adaf54e3354cf2b1c,001,3,2025-04-15_07h17.55.919,avatar_quest_3AFC_legacy,2022.1.3,Win32,59.88023952,67d34a0adaf54e3354cf2b1c,67fe37cb3bd870bba73819bd,67fe3df008e6cdf9fae61593,,,,,,,,,,,,,,,,,,,,,,,,,,,,,,,,,,,,,,,,,,,,,,,,,,,,,,,0,0,0,0,1
,,,,,,,,,,,,67d34a0adaf54e3354cf2b1c,001,3,2025-04-15_07h17.55.919,avatar_quest_3AFC_legacy,2022.1.3,Win32,59.88023952,67d34a0adaf54e3354cf2b1c,67fe37cb3bd870bba73819bd,67fe3df008e6cdf9fae61593,,,,,,,,,,,,,,,,,,,,,,No Brainslug Difficult 2 With Money,12,images/assets/snowy_money.jpg,learning,20,images/assets/success_money.jpg,images/assets/gameover.jpg,,,,,,,,With Brainslug Difficult 2 With Money,With Brainslug Difficult 1 No Money,right,4.8816,"[""With Brainslug Difficult 1 No Money"",""With Brainslug Difficult 2 No Money""]",0,0,0,7,1,,,,,,,,,,,,,,
,,,,,,,,,,,,67d34a0adaf54e3354cf2b1c,001,3,2025-04-15_07h17.55.919,avatar_quest_3AFC_legacy,2022.1.3,Win32,59.88023952,67d34a0adaf54e3354cf2b1c,67fe37cb3bd870bba73819bd,67fe3df008e6cdf9fae61593,,,,,,,,,,,,,,,,,,,,,,With Brainslug No Barriers No Money,0,images/assets/snowy_original.jpg,learning,10,images/assets/success.jpg,images/assets/gameover.jpg,,,,,,,,,,,,,0,1,1,5,1,,,,,,,,,,,,,,
,,,,,,,,,,,,67d34a0adaf54e3354cf2b1c,001,3,2025-04-15_07h17.55.919,avatar_quest_3AFC_legacy,2022.1.3,Win32,59.88023952,67d34a0adaf54e3354cf2b1c,67fe37cb3bd870bba73819bd,67fe3df008e6cdf9fae61593,,,,,,,,,,,,,,,,,,,,,,No Brainslug No Barriers No Money,0,images/assets/snowy_original.jpg,learning,10,images/assets/success.jpg,images/assets/gameover.jpg,,,,,,,,,,,,,0,2,2,10,1,,,,,,,,,,,,,,
,,,,,,,,,,,,67d34a0adaf54e3354cf2b1c,001,3,2025-04-15_07h17.55.919,avatar_quest_3AFC_legacy,2022.1.3,Win32,59.88023952,67d34a0adaf54e3354cf2b1c,67fe37cb3bd870bba73819bd,67fe3df008e6cdf9fae61593,,,,,,,,,,,,,,,,,,,,,,No Brainslug No Barriers With Money,0,images/assets/snowy_money.jpg,learning,10,images/assets/success_money.jpg,images/assets/gameover.jpg,,,,,,,,,,,,,0,3,3,9,1,,,,,,,,,,,,,,
,,,,,,,,,,,,67d34a0adaf54e3354cf2b1c,001,3,2025-04-15_07h17.55.919,avatar_quest_3AFC_legacy,2022.1.3,Win32,59.88023952,67d34a0adaf54e3354cf2b1c,67fe37cb3bd870bba73819bd,67fe3df008e6cdf9fae61593,,,,,,,,,,,,,,,,,,,,,,With Brainslug Difficult 2 No Money,12,images/assets/snowy_original.jpg,learning,20,images/assets/success.jpg,images/assets/gameover.jpg,,,,,,,,,,,,,0,4,4,3,1,,,,,,,,,,,,,,
,,,,,,,,,,,,67d34a0adaf54e3354cf2b1c,001,3,2025-04-15_07h17.55.919,avatar_quest_3AFC_legacy,2022.1.3,Win32,59.88023952,67d34a0adaf54e3354cf2b1c,67fe37cb3bd870bba73819bd,67fe3df008e6cdf9fae61593,,,,,,,,,,,,,,,,,,,,,,With Brainslug Difficult 1 With Money,6,images/assets/snowy_money.jpg,learning,20,images/assets/success_money.jpg,images/assets/gameover.jpg,,,,,,,,,,,,,0,5,5,0,1,,,,,,,,,,,,,,
,,,,,,,,,,,,67d34a0adaf54e3354cf2b1c,001,3,2025-04-15_07h17.55.919,avatar_quest_3AFC_legacy,2022.1.3,Win32,59.88023952,67d34a0adaf54e3354cf2b1c,67fe37cb3bd870bba73819bd,67fe3df008e6cdf9fae61593,,,,,,,,,,,,,,,,,,,,,,No Brainslug Difficult 1 No Money,6,images/assets/snowy_original.jpg,learning,20,images/assets/success.jpg,images/assets/gameover.jpg,,,,,,,,,,,,,0,6,6,6,1,,,,,,,,,,,,,,
,,,,,,,,,,,,67d34a0adaf54e3354cf2b1c,001,3,2025-04-15_07h17.55.919,avatar_quest_3AFC_legacy,2022.1.3,Win32,59.88023952,67d34a0adaf54e3354cf2b1c,67fe37cb3bd870bba73819bd,67fe3df008e6cdf9fae61593,,,,,,,,,,,,,,,,,,,,,,With Brainslug No Barriers With Money,0,images/assets/snowy_money.jpg,learning,10,images/assets/success_money.jpg,images/assets/gameover.jpg,,,,,,,,,,,,,0,7,7,4,1,,,,,,,,,,,,,,
,,,,,,,,,,,,67d34a0adaf54e3354cf2b1c,001,3,2025-04-15_07h17.55.919,avatar_quest_3AFC_legacy,2022.1.3,Win32,59.88023952,67d34a0adaf54e3354cf2b1c,67fe37cb3bd870bba73819bd,67fe3df008e6cdf9fae61593,"[""left"",""left"",""right"",""left"",""left"",""left"",""right"",""left"",""left"",""left"",""left"",""left"",""left"",""right""]","[0.6202000000029102,1.1525000000000318,2.8202000000029557,3.410799999997039,3.8314000000059423,4.100900000005936,4.318200000003003,4.824299999997038,5.256299999997054,5.579799999997022,5.879000000000019,6.2557999999969525,6.859299999997006,7.466000000000008]",,calibration,With Brainslug Difficult 2 With Money,5,8.61745,8.6399,4,1,0,FALSE,na,na,na,na,,,,,,,,,,,,,,,,,,,,,,,,,,,,,,,,,,0,0,0,0,1,,,,,
,,,,,,,,,,,,67d34a0adaf54e3354cf2b1c,001,3,2025-04-15_07h17.55.919,avatar_quest_3AFC_legacy,2022.1.3,Win32,59.88023952,67d34a0adaf54e3354cf2b1c,67fe37cb3bd870bba73819bd,67fe3df008e6cdf9fae61593,,,,,,,,,,,,,,,,,,,,,,With Brainslug Difficult 2 With Money,12,images/assets/snowy_money.jpg,learning,20,images/assets/success_money.jpg,images/assets/gameover.jpg,,,,,,,,,,,,,0,8,8,2,1,,,,,,,,,,,,,,
,,,,,,,,,,,,67d34a0adaf54e3354cf2b1c,001,3,2025-04-15_07h17.55.919,avatar_quest_3AFC_legacy,2022.1.3,Win32,59.88023952,67d34a0adaf54e3354cf2b1c,67fe37cb3bd870bba73819bd,67fe3df008e6cdf9fae61593,,,,,,,,,,,,,,,,,,,,,,No Brainslug Difficult 2 No Money,12,images/assets/snowy_original.jpg,learning,20,images/assets/success.jpg,images/assets/gameover.jpg,,,,,,,,,,,,,0,9,9,8,1,,,,,,,,,,,,,,
,,,,,,,,,,,,67d34a0adaf54e3354cf2b1c,001,3,2025-04-15_07h17.55.919,avatar_quest_3AFC_legacy,2022.1.3,Win32,59.88023952,67d34a0adaf54e3354cf2b1c,67fe37cb3bd870bba73819bd,67fe3df008e6cdf9fae61593,,,,,,,,,,,,,,,,,,,,,,With Brainslug Difficult 1 No Money,6,images/assets/snowy_original.jpg,learning,20,images/assets/success.jpg,images/assets/gameover.jpg,,,,,,,,,,,,,0,10,10,1,1,,,,,,,,,,,,,,
,,,,,,,,,,,,67d34a0adaf54e3354cf2b1c,001,3,2025-04-15_07h17.55.919,avatar_quest_3AFC_legacy,2022.1.3,Win32,59.88023952,67d34a0adaf54e3354cf2b1c,67fe37cb3bd870bba73819bd,67fe3df008e6cdf9fae61593,,,,,,,,,,,,,,,,,,,,,,,,,,,,,,,,,,,,,,,,,,,,,,,,,,,,,,,1,0,1,0,1
,,,,,,,,,,,,67d34a0adaf54e3354cf2b1c,001,3,2025-04-15_07h17.55.919,avatar_quest_3AFC_legacy,2022.1.3,Win32,59.88023952,67d34a0adaf54e3354cf2b1c,67fe37cb3bd870bba73819bd,67fe3df008e6cdf9fae61593,,,,,,,,,,,,,,,,,,,,,,With Brainslug Difficult 1 With Money,6,images/assets/snowy_money.jpg,learning,20,images/assets/success_money.jpg,images/assets/gameover.jpg,,,,,,,,With Brainslug Difficult 1 No Money,With Brainslug Difficult 1 No Money,left,4.1819,"[""With Brainslug Difficult 2 No Money"",""With Brainslug Difficult 2 With Money""]",0,0,0,0,1,,,,,,,,,,,,,,
,,,,,,,,,,,,67d34a0adaf54e3354cf2b1c,001,3,2025-04-15_07h17.55.919,avatar_quest_3AFC_legacy,2022.1.3,Win32,59.88023952,67d34a0adaf54e3354cf2b1c,67fe37cb3bd870bba73819bd,67fe3df008e6cdf9fae61593,,,,,,,,,,,,,,,,,,,,,,With Brainslug Difficult 2 No Money,12,images/assets/snowy_original.jpg,learning,20,images/assets/success.jpg,images/assets/gameover.jpg,,,,,,,,,,,,,0,1,1,3,1,,,,,,,,,,,,,,
,,,,,,,,,,,,67d34a0adaf54e3354cf2b1c,001,3,2025-04-15_07h17.55.919,avatar_quest_3AFC_legacy,2022.1.3,Win32,59.88023952,67d34a0adaf54e3354cf2b1c,67fe37cb3bd870bba73819bd,67fe3df008e6cdf9fae61593,,,,,,,,,,,,,,,,,,,,,,No Brainslug Difficult 2 No Money,12,images/assets/snowy_original.jpg,learning,20,images/assets/success.jpg,images/assets/gameover.jpg,,,,,,,,,,,,,0,2,2,8,1,,,,,,,,,,,,,,
,,,,,,,,,,,,67d34a0adaf54e3354cf2b1c,001,3,2025-04-15_07h17.55.919,avatar_quest_3AFC_legacy,2022.1.3,Win32,59.88023952,67d34a0adaf54e3354cf2b1c,67fe37cb3bd870bba73819bd,67fe3df008e6cdf9fae61593,"[""left"",""left"",""right"",""right"",""left"",""right"",""right"",""left""]","[0.710200000002942,1.2442000000029338,2.045900000005986,2.5421000000088725,3.5119999999999436,4.250100000008956,5.213499999999954,6.1821000000089725]",,calibration,With Brainslug Difficult 1 No Money,6,8.61745,6.972,4,5,0,TRUE,na,na,na,na,,,,,,,,,,,,,,,,,,,,,,,,,,,,,,,,,,0,0,0,0,1,,,,,
,,,,,,,,,,,,67d34a0adaf54e3354cf2b1c,001,3,2025-04-15_07h17.55.919,avatar_quest_3AFC_legacy,2022.1.3,Win32,59.88023952,67d34a0adaf54e3354cf2b1c,67fe37cb3bd870bba73819bd,67fe3df008e6cdf9fae61593,,,,,,,,,,,,,,,,,,,,,,With Brainslug Difficult 1 No Money,6,images/assets/snowy_original.jpg,learning,20,images/assets/success.jpg,images/assets/gameover.jpg,,,,,,,,,,,,,0,3,3,1,1,,,,,,,,,,,,,,
,,,,,,,,,,,,67d34a0adaf54e3354cf2b1c,001,3,2025-04-15_07h17.55.919,avatar_quest_3AFC_legacy,2022.1.3,Win32,59.88023952,67d34a0adaf54e3354cf2b1c,67fe37cb3bd870bba73819bd,67fe3df008e6cdf9fae61593,,,,,,,,,,,,,,,,,,,,,,With Brainslug No Barriers No Money,0,images/assets/snowy_original.jpg,learning,10,images/assets/success.jpg,images/assets/gameover.jpg,,,,,,,,,,,,,0,4,4,5,1,,,,,,,,,,,,,,
,,,,,,,,,,,,67d34a0adaf54e3354cf2b1c,001,3,2025-04-15_07h17.55.919,avatar_quest_3AFC_legacy,2022.1.3,Win32,59.88023952,67d34a0adaf54e3354cf2b1c,67fe37cb3bd870bba73819bd,67fe3df008e6cdf9fae61593,,,,,,,,,,,,,,,,,,,,,,With Brainslug No Barriers With Money,0,images/assets/snowy_money.jpg,learning,10,images/assets/success_money.jpg,images/assets/gameover.jpg,,,,,,,,,,,,,0,5,5,4,1,,,,,,,,,,,,,,
,,,,,,,,,,,,67d34a0adaf54e3354cf2b1c,001,3,2025-04-15_07h17.55.919,avatar_quest_3AFC_legacy,2022.1.3,Win32,59.88023952,67d34a0adaf54e3354cf2b1c,67fe37cb3bd870bba73819bd,67fe3df008e6cdf9fae61593,,,,,,,,,,,,,,,,,,,,,,No Brainslug No Barriers No Money,0,images/assets/snowy_original.jpg,learning,10,images/assets/success.jpg,images/assets/gameover.jpg,,,,,,,,,,,,,0,6,6,10,1,,,,,,,,,,,,,,
,,,,,,,,,,,,67d34a0adaf54e3354cf2b1c,001,3,2025-04-15_07h17.55.919,avatar_quest_3AFC_legacy,2022.1.3,Win32,59.88023952,67d34a0adaf54e3354cf2b1c,67fe37cb3bd870bba73819bd,67fe3df008e6cdf9fae61593,,,,,,,,,,,,,,,,,,,,,,No Brainslug Difficult 1 No Money,6,images/assets/snowy_original.jpg,learning,20,images/assets/success.jpg,images/assets/gameover.jpg,,,,,,,,,,,,,0,7,7,6,1,,,,,,,,,,,,,,
,,,,,,,,,,,,67d34a0adaf54e3354cf2b1c,001,3,2025-04-15_07h17.55.919,avatar_quest_3AFC_legacy,2022.1.3,Win32,59.88023952,67d34a0adaf54e3354cf2b1c,67fe37cb3bd870bba73819bd,67fe3df008e6cdf9fae61593,,,,,,,,,,,,,,,,,,,,,,No Brainslug Difficult 2 With Money,12,images/assets/snowy_money.jpg,learning,20,images/assets/success_money.jpg,images/assets/gameover.jpg,,,,,,,,,,,,,0,8,8,7,1,,,,,,,,,,,,,,
,,,,,,,,,,,,67d34a0adaf54e3354cf2b1c,001,3,2025-04-15_07h17.55.919,avatar_quest_3AFC_legacy,2022.1.3,Win32,59.88023952,67d34a0adaf54e3354cf2b1c,67fe37cb3bd870bba73819bd,67fe3df008e6cdf9fae61593,,,,,,,,,,,,,,,,,,,,,,With Brainslug Difficult 2 With Money,12,images/assets/snowy_money.jpg,learning,20,images/assets/success_money.jpg,images/assets/gameover.jpg,,,,,,,,,,,,,0,9,9,2,1,,,,,,,,,,,,,,
,,,,,,,,,,,,67d34a0adaf54e3354cf2b1c,001,3,2025-04-15_07h17.55.919,avatar_quest_3AFC_legacy,2022.1.3,Win32,59.88023952,67d34a0adaf54e3354cf2b1c,67fe37cb3bd870bba73819bd,67fe3df008e6cdf9fae61593,,,,,,,,,,,,,,,,,,,,,,No Brainslug No Barriers With Money,0,images/assets/snowy_money.jpg,learning,10,images/assets/success_money.jpg,images/assets/gameover.jpg,,,,,,,,,,,,,0,10,10,9,1,,,,,,,,,,,,,,
,,,,,,,,,,,,67d34a0adaf54e3354cf2b1c,001,3,2025-04-15_07h17.55.919,avatar_quest_3AFC_legacy,2022.1.3,Win32,59.88023952,67d34a0adaf54e3354cf2b1c,67fe37cb3bd870bba73819bd,67fe3df008e6cdf9fae61593,,,,,,,,,,,,,,,,,,,,,,,,,,,,,,,,,,,,,,,,,,,,,,,,,,,,,,,2,0,2,0,1
,,,,,,,,,,,,67d34a0adaf54e3354cf2b1c,001,3,2025-04-15_07h17.55.919,avatar_quest_3AFC_legacy,2022.1.3,Win32,59.88023952,67d34a0adaf54e3354cf2b1c,67fe37cb3bd870bba73819bd,67fe3df008e6cdf9fae61593,,,,,,,,,,,,,,,,,,,,,,No Brainslug No Barriers With Money,0,images/assets/snowy_money.jpg,learning,10,images/assets/success_money.jpg,images/assets/gameover.jpg,,,,,,,,With Brainslug Difficult 2 With Money,With Brainslug Difficult 1 No Money,right,3.6995,"[""With Brainslug Difficult 1 No Money"",""With Brainslug Difficult 2 No Money""]",0,0,0,9,1,,,,,,,,,,,,,,
,,,,,,,,,,,,67d34a0adaf54e3354cf2b1c,001,3,2025-04-15_07h17.55.919,avatar_quest_3AFC_legacy,2022.1.3,Win32,59.88023952,67d34a0adaf54e3354cf2b1c,67fe37cb3bd870bba73819bd,67fe3df008e6cdf9fae61593,,,,,,,,,,,,,,,,,,,,,,With Brainslug Difficult 2 No Money,12,images/assets/snowy_original.jpg,learning,20,images/assets/success.jpg,images/assets/gameover.jpg,,,,,,,,,,,,,0,1,1,3,1,,,,,,,,,,,,,,
,,,,,,,,,,,,67d34a0adaf54e3354cf2b1c,001,3,2025-04-15_07h17.55.919,avatar_quest_3AFC_legacy,2022.1.3,Win32,59.88023952,67d34a0adaf54e3354cf2b1c,67fe37cb3bd870bba73819bd,67fe3df008e6cdf9fae61593,,,,,,,,,,,,,,,,,,,,,,With Brainslug No Barriers No Money,0,images/assets/snowy_original.jpg,learning,10,images/assets/success.jpg,images/assets/gameover.jpg,,,,,,,,,,,,,0,2,2,5,1,,,,,,,,,,,,,,
,,,,,,,,,,,,67d34a0adaf54e3354cf2b1c,001,3,2025-04-15_07h17.55.919,avatar_quest_3AFC_legacy,2022.1.3,Win32,59.88023952,67d34a0adaf54e3354cf2b1c,67fe37cb3bd870bba73819bd,67fe3df008e6cdf9fae61593,,,,,,,,,,,,,,,,,,,,,,No Brainslug Difficult 2 With Money,12,images/assets/snowy_money.jpg,learning,20,images/assets/success_money.jpg,images/assets/gameover.jpg,,,,,,,,,,,,,0,3,3,7,1,,,,,,,,,,,,,,
,,,,,,,,,,,,67d34a0adaf54e3354cf2b1c,001,3,2025-04-15_07h17.55.919,avatar_quest_3AFC_legacy,2022.1.3,Win32,59.88023952,67d34a0adaf54e3354cf2b1c,67fe37cb3bd870bba73819bd,67fe3df008e6cdf9fae61593,,,,,,,,,,,,,,,,,,,,,,With Brainslug No Barriers With Money,0,images/assets/snowy_money.jpg,learning,10,images/assets/success_money.jpg,images/assets/gameover.jpg,,,,,,,,,,,,,0,4,4,4,1,,,,,,,,,,,,,,
,,,,,,,,,,,,67d34a0adaf54e3354cf2b1c,001,3,2025-04-15_07h17.55.919,avatar_quest_3AFC_legacy,2022.1.3,Win32,59.88023952,67d34a0adaf54e3354cf2b1c,67fe37cb3bd870bba73819bd,67fe3df008e6cdf9fae61593,,,,,,,,,,,,,,,,,,,,,,No Brainslug No Barriers No Money,0,images/assets/snowy_original.jpg,learning,10,images/assets/success.jpg,images/assets/gameover.jpg,,,,,,,,,,,,,0,5,5,10,1,,,,,,,,,,,,,,
,,,,,,,,,,,,67d34a0adaf54e3354cf2b1c,001,3,2025-04-15_07h17.55.919,avatar_quest_3AFC_legacy,2022.1.3,Win32,59.88023952,67d34a0adaf54e3354cf2b1c,67fe37cb3bd870bba73819bd,67fe3df008e6cdf9fae61593,"[""left"",""right"",""right"",""left"",""left"",""left"",""left"",""left"",""left"",""right"",""right"",""left""]","[0.5497000000029857,1.4005000000000791,2.0759000000059586,2.7542999999971016,3.3592000000030566,4.1252999999970825,4.446299999997109,5.047099999994089,6.206000000000017,6.78820000000303,7.333799999997041,7.786799999997015]",,calibration,With Brainslug Difficult 2 With Money,7,8.61745,8.6378,4,2,0,FALSE,na,na,na,na,,,,,,,,,,,,,,,,,,,,,,,,,,,,,,,,,,0,0,0,0,1,,,,,
,,,,,,,,,,,,67d34a0adaf54e3354cf2b1c,001,3,2025-04-15_07h17.55.919,avatar_quest_3AFC_legacy,2022.1.3,Win32,59.88023952,67d34a0adaf54e3354cf2b1c,67fe37cb3bd870bba73819bd,67fe3df008e6cdf9fae61593,,,,,,,,,,,,,,,,,,,,,,With Brainslug Difficult 2 With Money,12,images/assets/snowy_money.jpg,learning,20,images/assets/success_money.jpg,images/assets/gameover.jpg,,,,,,,,,,,,,0,6,6,2,1,,,,,,,,,,,,,,
,,,,,,,,,,,,67d34a0adaf54e3354cf2b1c,001,3,2025-04-15_07h17.55.919,avatar_quest_3AFC_legacy,2022.1.3,Win32,59.88023952,67d34a0adaf54e3354cf2b1c,67fe37cb3bd870bba73819bd,67fe3df008e6cdf9fae61593,,,,,,,,,,,,,,,,,,,,,,With Brainslug Difficult 1 No Money,6,images/assets/snowy_original.jpg,learning,20,images/assets/success.jpg,images/assets/gameover.jpg,,,,,,,,,,,,,0,7,7,1,1,,,,,,,,,,,,,,
,,,,,,,,,,,,67d34a0adaf54e3354cf2b1c,001,3,2025-04-15_07h17.55.919,avatar_quest_3AFC_legacy,2022.1.3,Win32,59.88023952,67d34a0adaf54e3354cf2b1c,67fe37cb3bd870bba73819bd,67fe3df008e6cdf9fae61593,,,,,,,,,,,,,,,,,,,,,,With Brainslug Difficult 1 With Money,6,images/assets/snowy_money.jpg,learning,20,images/assets/success_money.jpg,images/assets/gameover.jpg,,,,,,,,,,,,,0,8,8,0,1,,,,,,,,,,,,,,
,,,,,,,,,,,,67d34a0adaf54e3354cf2b1c,001,3,2025-04-15_07h17.55.919,avatar_quest_3AFC_legacy,2022.1.3,Win32,59.88023952,67d34a0adaf54e3354cf2b1c,67fe37cb3bd870bba73819bd,67fe3df008e6cdf9fae61593,,,,,,,,,,,,,,,,,,,,,,No Brainslug Difficult 2 No Money,12,images/assets/snowy_original.jpg,learning,20,images/assets/success.jpg,images/assets/gameover.jpg,,,,,,,,,,,,,0,9,9,8,1,,,,,,,,,,,,,,
,,,,,,,,,,,,67d34a0adaf54e3354cf2b1c,001,3,2025-04-15_07h17.55.919,avatar_quest_3AFC_legacy,2022.1.3,Win32,59.88023952,67d34a0adaf54e3354cf2b1c,67fe37cb3bd870bba73819bd,67fe3df008e6cdf9fae61593,,,,,,,,,,,,,,,,,,,,,,No Brainslug Difficult 1 No Money,6,images/assets/snowy_original.jpg,learning,20,images/assets/success.jpg,images/assets/gameover.jpg,,,,,,,,,,,,,0,10,10,6,1,,,,,,,,,,,,,,
,,,,,,,,,,,,67d34a0adaf54e3354cf2b1c,001,3,2025-04-15_07h17.55.919,avatar_quest_3AFC_legacy,2022.1.3,Win32,59.88023952,67d34a0adaf54e3354cf2b1c,67fe37cb3bd870bba73819bd,67fe3df008e6cdf9fae61593,,,,,,,,,,,,,,,,,,,,,,,,,,,,,,,,,,,,,,,,,,,,,,,,,,,,,,,3,0,3,0,1
,,,,,,,,,,,,67d34a0adaf54e3354cf2b1c,001,3,2025-04-15_07h17.55.919,avatar_quest_3AFC_legacy,2022.1.3,Win32,59.88023952,67d34a0adaf54e3354cf2b1c,67fe37cb3bd870bba73819bd,67fe3df008e6cdf9fae61593,,,,,,,,,,,,,,,,,,,,,,With Brainslug Difficult 1 With Money,6,images/assets/snowy_money.jpg,learning,20,images/assets/success_money.jpg,images/assets/gameover.jpg,,,,,,,,With Brainslug Difficult 2 With Money,With Brainslug Difficult 1 No Money,right,1.6567,"[""With Brainslug Difficult 1 No Money"",""With Brainslug Difficult 2 No Money""]",0,0,0,0,1,,,,,,,,,,,,,,
,,,,,,,,,,,,67d34a0adaf54e3354cf2b1c,001,3,2025-04-15_07h17.55.919,avatar_quest_3AFC_legacy,2022.1.3,Win32,59.88023952,67d34a0adaf54e3354cf2b1c,67fe37cb3bd870bba73819bd,67fe3df008e6cdf9fae61593,,,,,,,,,,,,,,,,,,,,,,No Brainslug No Barriers No Money,0,images/assets/snowy_original.jpg,learning,10,images/assets/success.jpg,images/assets/gameover.jpg,,,,,,,,,,,,,0,1,1,10,1,,,,,,,,,,,,,,
,,,,,,,,,,,,67d34a0adaf54e3354cf2b1c,001,3,2025-04-15_07h17.55.919,avatar_quest_3AFC_legacy,2022.1.3,Win32,59.88023952,67d34a0adaf54e3354cf2b1c,67fe37cb3bd870bba73819bd,67fe3df008e6cdf9fae61593,,,,,,,,,,,,,,,,,,,,,,With Brainslug Difficult 1 No Money,6,images/assets/snowy_original.jpg,learning,20,images/assets/success.jpg,images/assets/gameover.jpg,,,,,,,,,,,,,0,2,2,1,1,,,,,,,,,,,,,,
,,,,,,,,,,,,67d34a0adaf54e3354cf2b1c,001,3,2025-04-15_07h17.55.919,avatar_quest_3AFC_legacy,2022.1.3,Win32,59.88023952,67d34a0adaf54e3354cf2b1c,67fe37cb3bd870bba73819bd,67fe3df008e6cdf9fae61593,,,,,,,,,,,,,,,,,,,,,,With Brainslug Difficult 2 No Money,12,images/assets/snowy_original.jpg,learning,20,images/assets/success.jpg,images/assets/gameover.jpg,,,,,,,,,,,,,0,3,3,3,1,,,,,,,,,,,,,,
,,,,,,,,,,,,67d34a0adaf54e3354cf2b1c,001,3,2025-04-15_07h17.55.919,avatar_quest_3AFC_legacy,2022.1.3,Win32,59.88023952,67d34a0adaf54e3354cf2b1c,67fe37cb3bd870bba73819bd,67fe3df008e6cdf9fae61593,,,,,,,,,,,,,,,,,,,,,,With Brainslug No Barriers No Money,0,images/assets/snowy_original.jpg,learning,10,images/assets/success.jpg,images/assets/gameover.jpg,,,,,,,,,,,,,0,4,4,5,1,,,,,,,,,,,,,,
,,,,,,,,,,,,67d34a0adaf54e3354cf2b1c,001,3,2025-04-15_07h17.55.919,avatar_quest_3AFC_legacy,2022.1.3,Win32,59.88023952,67d34a0adaf54e3354cf2b1c,67fe37cb3bd870bba73819bd,67fe3df008e6cdf9fae61593,,,,,,,,,,,,,,,,,,,,,,No Brainslug No Barriers With Money,0,images/assets/snowy_money.jpg,learning,10,images/assets/success_money.jpg,images/assets/gameover.jpg,,,,,,,,,,,,,0,5,5,9,1,,,,,,,,,,,,,,
,,,,,,,,,,,,67d34a0adaf54e3354cf2b1c,001,3,2025-04-15_07h17.55.919,avatar_quest_3AFC_legacy,2022.1.3,Win32,59.88023952,67d34a0adaf54e3354cf2b1c,67fe37cb3bd870bba73819bd,67fe3df008e6cdf9fae61593,,,,,,,,,,,,,,,,,,,,,,No Brainslug Difficult 2 With Money,12,images/assets/snowy_money.jpg,learning,20,images/assets/success_money.jpg,images/assets/gameover.jpg,,,,,,,,,,,,,0,6,6,7,1,,,,,,,,,,,,,,
,,,,,,,,,,,,67d34a0adaf54e3354cf2b1c,001,3,2025-04-15_07h17.55.919,avatar_quest_3AFC_legacy,2022.1.3,Win32,59.88023952,67d34a0adaf54e3354cf2b1c,67fe37cb3bd870bba73819bd,67fe3df008e6cdf9fae61593,,,,,,,,,,,,,,,,,,,,,,With Brainslug No Barriers With Money,0,images/assets/snowy_money.jpg,learning,10,images/assets/success_money.jpg,images/assets/gameover.jpg,,,,,,,,,,,,,0,7,7,4,1,,,,,,,,,,,,,,
,,,,,,,,,,,,67d34a0adaf54e3354cf2b1c,001,3,2025-04-15_07h17.55.919,avatar_quest_3AFC_legacy,2022.1.3,Win32,59.88023952,67d34a0adaf54e3354cf2b1c,67fe37cb3bd870bba73819bd,67fe3df008e6cdf9fae61593,,,,,,,,,,,,,,,,,,,,,,No Brainslug Difficult 1 No Money,6,images/assets/snowy_original.jpg,learning,20,images/assets/success.jpg,images/assets/gameover.jpg,,,,,,,,,,,,,0,8,8,6,1,,,,,,,,,,,,,,
,,,,,,,,,,,,67d34a0adaf54e3354cf2b1c,001,3,2025-04-15_07h17.55.919,avatar_quest_3AFC_legacy,2022.1.3,Win32,59.88023952,67d34a0adaf54e3354cf2b1c,67fe37cb3bd870bba73819bd,67fe3df008e6cdf9fae61593,,,,,,,,,,,,,,,,,,,,,,No Brainslug Difficult 2 No Money,12,images/assets/snowy_original.jpg,learning,20,images/assets/success.jpg,images/assets/gameover.jpg,,,,,,,,,,,,,0,9,9,8,1,,,,,,,,,,,,,,
,,,,,,,,,,,,67d34a0adaf54e3354cf2b1c,001,3,2025-04-15_07h17.55.919,avatar_quest_3AFC_legacy,2022.1.3,Win32,59.88023952,67d34a0adaf54e3354cf2b1c,67fe37cb3bd870bba73819bd,67fe3df008e6cdf9fae61593,"[""left"",""right"",""left"",""left"",""right"",""right"",""right"",""left"",""left"",""left"",""right"",""right""]","[0.5497000000029857,1.4589999999999463,2.4693000000119127,3.1676000000088607,4.008999999999901,4.770800000011832,5.064999999999941,5.649300000011863,6.237200000002986,6.663200000002917,7.593700000002968,8.19310000000894]",,calibration,With Brainslug Difficult 2 With Money,8,8.61745,8.6285,8,4,0,FALSE,na,na,na,na,,,,,,,,,,,,,,,,,,,,,,,,,,,,,,,,,,0,0,0,0,1,,,,,
,,,,,,,,,,,,67d34a0adaf54e3354cf2b1c,001,3,2025-04-15_07h17.55.919,avatar_quest_3AFC_legacy,2022.1.3,Win32,59.88023952,67d34a0adaf54e3354cf2b1c,67fe37cb3bd870bba73819bd,67fe3df008e6cdf9fae61593,,,,,,,,,,,,,,,,,,,,,,With Brainslug Difficult 2 With Money,12,images/assets/snowy_money.jpg,learning,20,images/assets/success_money.jpg,images/assets/gameover.jpg,,,,,,,,,,,,,0,10,10,2,1,,,,,,,,,,,,,,
,,,,,,,,,,,,67d34a0adaf54e3354cf2b1c,001,3,2025-04-15_07h17.55.919,avatar_quest_3AFC_legacy,2022.1.3,Win32,59.88023952,67d34a0adaf54e3354cf2b1c,67fe37cb3bd870bba73819bd,67fe3df008e6cdf9fae61593,,,,,,,,,,,,,,,,,,,,,,,,,,,,,,,,,,,,,,,,,,,,,,,,,,,,,,,4,0,4,0,1
,,,,,,,,,,,,67d34a0adaf54e3354cf2b1c,001,3,2025-04-15_07h17.55.919,avatar_quest_3AFC_legacy,2022.1.3,Win32,59.88023952,67d34a0adaf54e3354cf2b1c,67fe37cb3bd870bba73819bd,67fe3df008e6cdf9fae61593,"[""left"",""left"",""left"",""right"",""left"",""right"",""right"",""left"",""left""]","[0.727700000002983,1.360600000008958,2.1576000000089834,2.991299999997068,3.9334000000060314,4.69410000000903,5.161900000005971,5.829299999997033,6.6992000000030885]",,calibration,With Brainslug Difficult 1 No Money,9,8.61745,7.5057,5,3,0,TRUE,na,na,na,na,,,,,,,,,,,,,,,,,,,,With Brainslug Difficult 1 No Money,With Brainslug Difficult 1 No Money,left,1.5077,"[""With Brainslug Difficult 2 No Money"",""With Brainslug Difficult 2 With Money""]",,,,,,,,,,0,0,0,0,1,,,,,
,,,,,,,,,,,,67d34a0adaf54e3354cf2b1c,001,3,2025-04-15_07h17.55.919,avatar_quest_3AFC_legacy,2022.1.3,Win32,59.88023952,67d34a0adaf54e3354cf2b1c,67fe37cb3bd870bba73819bd,67fe3df008e6cdf9fae61593,,,,,,,,,,,,,,,,,,,,,,With Brainslug Difficult 1 No Money,6,images/assets/snowy_original.jpg,learning,20,images/assets/success.jpg,images/assets/gameover.jpg,,,,,,,,,,,,,0,0,0,1,1,,,,,,,,,,,,,,
,,,,,,,,,,,,67d34a0adaf54e3354cf2b1c,001,3,2025-04-15_07h17.55.919,avatar_quest_3AFC_legacy,2022.1.3,Win32,59.88023952,67d34a0adaf54e3354cf2b1c,67fe37cb3bd870bba73819bd,67fe3df008e6cdf9fae61593,,,,,,,,,,,,,,,,,,,,,,With Brainslug Difficult 2 With Money,12,images/assets/snowy_money.jpg,learning,20,images/assets/success_money.jpg,images/assets/gameover.jpg,,,,,,,,,,,,,0,1,1,2,1,,,,,,,,,,,,,,
,,,,,,,,,,,,67d34a0adaf54e3354cf2b1c,001,3,2025-04-15_07h17.55.919,avatar_quest_3AFC_legacy,2022.1.3,Win32,59.88023952,67d34a0adaf54e3354cf2b1c,67fe37cb3bd870bba73819bd,67fe3df008e6cdf9fae61593,,,,,,,,,,,,,,,,,,,,,,With Brainslug No Barriers With Money,0,images/assets/snowy_money.jpg,learning,10,images/assets/success_money.jpg,images/assets/gameover.jpg,,,,,,,,,,,,,0,2,2,4,1,,,,,,,,,,,,,,
,,,,,,,,,,,,67d34a0adaf54e3354cf2b1c,001,3,2025-04-15_07h17.55.919,avatar_quest_3AFC_legacy,2022.1.3,Win32,59.88023952,67d34a0adaf54e3354cf2b1c,67fe37cb3bd870bba73819bd,67fe3df008e6cdf9fae61593,,,,,,,,,,,,,,,,,,,,,,No Brainslug No Barriers With Money,0,images/assets/snowy_money.jpg,learning,10,images/assets/success_money.jpg,images/assets/gameover.jpg,,,,,,,,,,,,,0,3,3,9,1,,,,,,,,,,,,,,
,,,,,,,,,,,,67d34a0adaf54e3354cf2b1c,001,3,2025-04-15_07h17.55.919,avatar_quest_3AFC_legacy,2022.1.3,Win32,59.88023952,67d34a0adaf54e3354cf2b1c,67fe37cb3bd870bba73819bd,67fe3df008e6cdf9fae61593,,,,,,,,,,,,,,,,,,,,,,With Brainslug Difficult 1 With Money,6,images/assets/snowy_money.jpg,learning,20,images/assets/success_money.jpg,images/assets/gameover.jpg,,,,,,,,,,,,,0,4,4,0,1,,,,,,,,,,,,,,
,,,,,,,,,,,,67d34a0adaf54e3354cf2b1c,001,3,2025-04-15_07h17.55.919,avatar_quest_3AFC_legacy,2022.1.3,Win32,59.88023952,67d34a0adaf54e3354cf2b1c,67fe37cb3bd870bba73819bd,67fe3df008e6cdf9fae61593,,,,,,,,,,,,,,,,,,,,,,No Brainslug Difficult 1 No Money,6,images/assets/snowy_original.jpg,learning,20,images/assets/success.jpg,images/assets/gameover.jpg,,,,,,,,,,,,,0,5,5,6,1,,,,,,,,,,,,,,
,,,,,,,,,,,,67d34a0adaf54e3354cf2b1c,001,3,2025-04-15_07h17.55.919,avatar_quest_3AFC_legacy,2022.1.3,Win32,59.88023952,67d34a0adaf54e3354cf2b1c,67fe37cb3bd870bba73819bd,67fe3df008e6cdf9fae61593,,,,,,,,,,,,,,,,,,,,,,With Brainslug No Barriers No Money,0,images/assets/snowy_original.jpg,learning,10,images/assets/success.jpg,images/assets/gameover.jpg,,,,,,,,,,,,,0,6,6,5,1,,,,,,,,,,,,,,
,,,,,,,,,,,,67d34a0adaf54e3354cf2b1c,001,3,2025-04-15_07h17.55.919,avatar_quest_3AFC_legacy,2022.1.3,Win32,59.88023952,67d34a0adaf54e3354cf2b1c,67fe37cb3bd870bba73819bd,67fe3df008e6cdf9fae61593,,,,,,,,,,,,,,,,,,,,,,No Brainslug Difficult 2 With Money,12,images/assets/snowy_money.jpg,learning,20,images/assets/success_money.jpg,images/assets/gameover.jpg,,,,,,,,,,,,,0,7,7,7,1,,,,,,,,,,,,,,
,,,,,,,,,,,,67d34a0adaf54e3354cf2b1c,001,3,2025-04-15_07h17.55.919,avatar_quest_3AFC_legacy,2022.1.3,Win32,59.88023952,67d34a0adaf54e3354cf2b1c,67fe37cb3bd870bba73819bd,67fe3df008e6cdf9fae61593,,,,,,,,,,,,,,,,,,,,,,No Brainslug No Barriers No Money,0,images/assets/snowy_original.jpg,learning,10,images/assets/success.jpg,images/assets/gameover.jpg,,,,,,,,,,,,,0,8,8,10,1,,,,,,,,,,,,,,
,,,,,,,,,,,,67d34a0adaf54e3354cf2b1c,001,3,2025-04-15_07h17.55.919,avatar_quest_3AFC_legacy,2022.1.3,Win32,59.88023952,67d34a0adaf54e3354cf2b1c,67fe37cb3bd870bba73819bd,67fe3df008e6cdf9fae61593,,,,,,,,,,,,,,,,,,,,,,No Brainslug Difficult 2 No Money,12,images/assets/snowy_original.jpg,learning,20,images/assets/success.jpg,images/assets/gameover.jpg,,,,,,,,,,,,,0,9,9,8,1,,,,,,,,,,,,,,
,,,,,,,,,,,,67d34a0adaf54e3354cf2b1c,001,3,2025-04-15_07h17.55.919,avatar_quest_3AFC_legacy,2022.1.3,Win32,59.88023952,67d34a0adaf54e3354cf2b1c,67fe37cb3bd870bba73819bd,67fe3df008e6cdf9fae61593,,,,,,,,,,,,,,,,,,,,,,With Brainslug Difficult 2 No Money,12,images/assets/snowy_original.jpg,learning,20,images/assets/success.jpg,images/assets/gameover.jpg,,,,,,,,,,,,,0,10,10,3,1,,,,,,,,,,,,,,
,,,,,,,,,,,,67d34a0adaf54e3354cf2b1c,001,3,2025-04-15_07h17.55.919,avatar_quest_3AFC_legacy,2022.1.3,Win32,59.88023952,67d34a0adaf54e3354cf2b1c,67fe37cb3bd870bba73819bd,67fe3df008e6cdf9fae61593,,,,,,,,,,,,,,,,,,,,,,,,,,,,,,,,,,,,,,,,,,,,,,,,,,,,,,,5,0,5,0,1
,,,,,,,,,,,,67d34a0adaf54e3354cf2b1c,001,3,2025-04-15_07h17.55.919,avatar_quest_3AFC_legacy,2022.1.3,Win32,59.88023952,67d34a0adaf54e3354cf2b1c,67fe37cb3bd870bba73819bd,67fe3df008e6cdf9fae61593,,,,,,,,,,,,,,,,,,,,,,No Brainslug Difficult 2 No Money,12,images/assets/snowy_original.jpg,learning,20,images/assets/success.jpg,images/assets/gameover.jpg,,,,,,,,With Brainslug Difficult 2 No Money,With Brainslug Difficult 1 No Money,down,2.9879,"[""With Brainslug Difficult 1 No Money"",""With Brainslug Difficult 2 With Money""]",0,0,0,8,1,,,,,,,,,,,,,,
,,,,,,,,,,,,67d34a0adaf54e3354cf2b1c,001,3,2025-04-15_07h17.55.919,avatar_quest_3AFC_legacy,2022.1.3,Win32,59.88023952,67d34a0adaf54e3354cf2b1c,67fe37cb3bd870bba73819bd,67fe3df008e6cdf9fae61593,"[""left"",""right"",""left"",""right"",""right"",""right"",""right"",""left"",""right"",""left"",""left"",""left"",""left""]","[0.6133999999910884,1.3830000000000382,2.5817999999969743,3.1208999999910247,3.7738999999910448,4.121499999999969,4.657299999997008,5.312099999994075,5.88339999999107,6.528599999994071,7.315799999997012,7.6784999999999854,8.200399999991077]",,calibration,With Brainslug Difficult 2 No Money,10,8.61745,8.6251,7,4,0,FALSE,na,na,na,na,,,,,,,,,,,,,,,,,,,,,,,,,,,,,,,,,,0,0,0,0,1,,,,,
,,,,,,,,,,,,67d34a0adaf54e3354cf2b1c,001,3,2025-04-15_07h17.55.919,avatar_quest_3AFC_legacy,2022.1.3,Win32,59.88023952,67d34a0adaf54e3354cf2b1c,67fe37cb3bd870bba73819bd,67fe3df008e6cdf9fae61593,,,,,,,,,,,,,,,,,,,,,,With Brainslug Difficult 2 No Money,12,images/assets/snowy_original.jpg,learning,20,images/assets/success.jpg,images/assets/gameover.jpg,,,,,,,,,,,,,0,1,1,3,1,,,,,,,,,,,,,,
,,,,,,,,,,,,67d34a0adaf54e3354cf2b1c,001,3,2025-04-15_07h17.55.919,avatar_quest_3AFC_legacy,2022.1.3,Win32,59.88023952,67d34a0adaf54e3354cf2b1c,67fe37cb3bd870bba73819bd,67fe3df008e6cdf9fae61593,,,,,,,,,,,,,,,,,,,,,,With Brainslug Difficult 2 With Money,12,images/assets/snowy_money.jpg,learning,20,images/assets/success_money.jpg,images/assets/gameover.jpg,,,,,,,,,,,,,0,2,2,2,1,,,,,,,,,,,,,,
,,,,,,,,,,,,67d34a0adaf54e3354cf2b1c,001,3,2025-04-15_07h17.55.919,avatar_quest_3AFC_legacy,2022.1.3,Win32,59.88023952,67d34a0adaf54e3354cf2b1c,67fe37cb3bd870bba73819bd,67fe3df008e6cdf9fae61593,,,,,,,,,,,,,,,,,,,,,,No Brainslug Difficult 1 No Money,6,images/assets/snowy_original.jpg,learning,20,images/assets/success.jpg,images/assets/gameover.jpg,,,,,,,,,,,,,0,3,3,6,1,,,,,,,,,,,,,,
,,,,,,,,,,,,67d34a0adaf54e3354cf2b1c,001,3,2025-04-15_07h17.55.919,avatar_quest_3AFC_legacy,2022.1.3,Win32,59.88023952,67d34a0adaf54e3354cf2b1c,67fe37cb3bd870bba73819bd,67fe3df008e6cdf9fae61593,,,,,,,,,,,,,,,,,,,,,,With Brainslug No Barriers No Money,0,images/assets/snowy_original.jpg,learning,10,images/assets/success.jpg,images/assets/gameover.jpg,,,,,,,,,,,,,0,4,4,5,1,,,,,,,,,,,,,,
,,,,,,,,,,,,67d34a0adaf54e3354cf2b1c,001,3,2025-04-15_07h17.55.919,avatar_quest_3AFC_legacy,2022.1.3,Win32,59.88023952,67d34a0adaf54e3354cf2b1c,67fe37cb3bd870bba73819bd,67fe3df008e6cdf9fae61593,,,,,,,,,,,,,,,,,,,,,,No Brainslug No Barriers No Money,0,images/assets/snowy_original.jpg,learning,10,images/assets/success.jpg,images/assets/gameover.jpg,,,,,,,,,,,,,0,5,5,10,1,,,,,,,,,,,,,,
,,,,,,,,,,,,67d34a0adaf54e3354cf2b1c,001,3,2025-04-15_07h17.55.919,avatar_quest_3AFC_legacy,2022.1.3,Win32,59.88023952,67d34a0adaf54e3354cf2b1c,67fe37cb3bd870bba73819bd,67fe3df008e6cdf9fae61593,,,,,,,,,,,,,,,,,,,,,,With Brainslug Difficult 1 No Money,6,images/assets/snowy_original.jpg,learning,20,images/assets/success.jpg,images/assets/gameover.jpg,,,,,,,,,,,,,0,6,6,1,1,,,,,,,,,,,,,,
,,,,,,,,,,,,67d34a0adaf54e3354cf2b1c,001,3,2025-04-15_07h17.55.919,avatar_quest_3AFC_legacy,2022.1.3,Win32,59.88023952,67d34a0adaf54e3354cf2b1c,67fe37cb3bd870bba73819bd,67fe3df008e6cdf9fae61593,,,,,,,,,,,,,,,,,,,,,,No Brainslug Difficult 2 With Money,12,images/assets/snowy_money.jpg,learning,20,images/assets/success_money.jpg,images/assets/gameover.jpg,,,,,,,,,,,,,0,7,7,7,1,,,,,,,,,,,,,,
,,,,,,,,,,,,67d34a0adaf54e3354cf2b1c,001,3,2025-04-15_07h17.55.919,avatar_quest_3AFC_legacy,2022.1.3,Win32,59.88023952,67d34a0adaf54e3354cf2b1c,67fe37cb3bd870bba73819bd,67fe3df008e6cdf9fae61593,,,,,,,,,,,,,,,,,,,,,,With Brainslug No Barriers With Money,0,images/assets/snowy_money.jpg,learning,10,images/assets/success_money.jpg,images/assets/gameover.jpg,,,,,,,,,,,,,0,8,8,4,1,,,,,,,,,,,,,,
,,,,,,,,,,,,67d34a0adaf54e3354cf2b1c,001,3,2025-04-15_07h17.55.919,avatar_quest_3AFC_legacy,2022.1.3,Win32,59.88023952,67d34a0adaf54e3354cf2b1c,67fe37cb3bd870bba73819bd,67fe3df008e6cdf9fae61593,,,,,,,,,,,,,,,,,,,,,,With Brainslug Difficult 1 With Money,6,images/assets/snowy_money.jpg,learning,20,images/assets/success_money.jpg,images/assets/gameover.jpg,,,,,,,,,,,,,0,9,9,0,1,,,,,,,,,,,,,,
,,,,,,,,,,,,67d34a0adaf54e3354cf2b1c,001,3,2025-04-15_07h17.55.919,avatar_quest_3AFC_legacy,2022.1.3,Win32,59.88023952,67d34a0adaf54e3354cf2b1c,67fe37cb3bd870bba73819bd,67fe3df008e6cdf9fae61593,,,,,,,,,,,,,,,,,,,,,,No Brainslug No Barriers With Money,0,images/assets/snowy_money.jpg,learning,10,images/assets/success_money.jpg,images/assets/gameover.jpg,,,,,,,,,,,,,0,10,10,9,1,,,,,,,,,,,,,,
,,,,,,,,,,,,67d34a0adaf54e3354cf2b1c,001,3,2025-04-15_07h17.55.919,avatar_quest_3AFC_legacy,2022.1.3,Win32,59.88023952,67d34a0adaf54e3354cf2b1c,67fe37cb3bd870bba73819bd,67fe3df008e6cdf9fae61593,,,,,,,,,,,,,,,,,,,,,,,,,,,,,,,,,,,,,,,,,,,,,,,,,,,,,,,6,0,6,0,1
,,,,,,,,,,,,67d34a0adaf54e3354cf2b1c,001,3,2025-04-15_07h17.55.919,avatar_quest_3AFC_legacy,2022.1.3,Win32,59.88023952,67d34a0adaf54e3354cf2b1c,67fe37cb3bd870bba73819bd,67fe3df008e6cdf9fae61593,,,,,,,,,,,,,,,,,,,,,,No Brainslug No Barriers With Money,0,images/assets/snowy_money.jpg,learning,10,images/assets/success_money.jpg,images/assets/gameover.jpg,,,,,,,,With Brainslug Difficult 2 With Money,With Brainslug Difficult 1 No Money,right,1.0552,"[""With Brainslug Difficult 1 No Money"",""With Brainslug Difficult 2 No Money""]",0,0,0,9,1,,,,,,,,,,,,,,
,,,,,,,,,,,,67d34a0adaf54e3354cf2b1c,001,3,2025-04-15_07h17.55.919,avatar_quest_3AFC_legacy,2022.1.3,Win32,59.88023952,67d34a0adaf54e3354cf2b1c,67fe37cb3bd870bba73819bd,67fe3df008e6cdf9fae61593,,,,,,,,,,,,,,,,,,,,,,No Brainslug No Barriers No Money,0,images/assets/snowy_original.jpg,learning,10,images/assets/success.jpg,images/assets/gameover.jpg,,,,,,,,,,,,,0,1,1,10,1,,,,,,,,,,,,,,
,,,,,,,,,,,,67d34a0adaf54e3354cf2b1c,001,3,2025-04-15_07h17.55.919,avatar_quest_3AFC_legacy,2022.1.3,Win32,59.88023952,67d34a0adaf54e3354cf2b1c,67fe37cb3bd870bba73819bd,67fe3df008e6cdf9fae61593,,,,,,,,,,,,,,,,,,,,,,With Brainslug Difficult 2 No Money,12,images/assets/snowy_original.jpg,learning,20,images/assets/success.jpg,images/assets/gameover.jpg,,,,,,,,,,,,,0,2,2,3,1,,,,,,,,,,,,,,
,,,,,,,,,,,,67d34a0adaf54e3354cf2b1c,001,3,2025-04-15_07h17.55.919,avatar_quest_3AFC_legacy,2022.1.3,Win32,59.88023952,67d34a0adaf54e3354cf2b1c,67fe37cb3bd870bba73819bd,67fe3df008e6cdf9fae61593,,,,,,,,,,,,,,,,,,,,,,With Brainslug Difficult 1 No Money,6,images/assets/snowy_original.jpg,learning,20,images/assets/success.jpg,images/assets/gameover.jpg,,,,,,,,,,,,,0,3,3,1,1,,,,,,,,,,,,,,
,,,,,,,,,,,,67d34a0adaf54e3354cf2b1c,001,3,2025-04-15_07h17.55.919,avatar_quest_3AFC_legacy,2022.1.3,Win32,59.88023952,67d34a0adaf54e3354cf2b1c,67fe37cb3bd870bba73819bd,67fe3df008e6cdf9fae61593,,,,,,,,,,,,,,,,,,,,,,With Brainslug No Barriers With Money,0,images/assets/snowy_money.jpg,learning,10,images/assets/success_money.jpg,images/assets/gameover.jpg,,,,,,,,,,,,,0,4,4,4,1,,,,,,,,,,,,,,
,,,,,,,,,,,,67d34a0adaf54e3354cf2b1c,001,3,2025-04-15_07h17.55.919,avatar_quest_3AFC_legacy,2022.1.3,Win32,59.88023952,67d34a0adaf54e3354cf2b1c,67fe37cb3bd870bba73819bd,67fe3df008e6cdf9fae61593,,,,,,,,,,,,,,,,,,,,,,No Brainslug Difficult 2 No Money,12,images/assets/snowy_original.jpg,learning,20,images/assets/success.jpg,images/assets/gameover.jpg,,,,,,,,,,,,,0,5,5,8,1,,,,,,,,,,,,,,
,,,,,,,,,,,,67d34a0adaf54e3354cf2b1c,001,3,2025-04-15_07h17.55.919,avatar_quest_3AFC_legacy,2022.1.3,Win32,59.88023952,67d34a0adaf54e3354cf2b1c,67fe37cb3bd870bba73819bd,67fe3df008e6cdf9fae61593,"[""left"",""left"",""left"",""left"",""right"",""right"",""right"",""left"",""right"",""left"",""right""]","[0.5966999999881182,1.1602999999970507,1.8845000000000027,2.129399999991051,2.780599999994024,3.2991999999881045,4.114699999988147,5.291799999997011,6.893199999988042,7.571899999991047,8.170299999997042]",,calibration,With Brainslug Difficult 2 With Money,11,8.61745,8.6301,4,6,0,FALSE,na,na,na,na,,,,,,,,,,,,,,,,,,,,,,,,,,,,,,,,,,0,0,0,0,1,,,,,
,,,,,,,,,,,,67d34a0adaf54e3354cf2b1c,001,3,2025-04-15_07h17.55.919,avatar_quest_3AFC_legacy,2022.1.3,Win32,59.88023952,67d34a0adaf54e3354cf2b1c,67fe37cb3bd870bba73819bd,67fe3df008e6cdf9fae61593,,,,,,,,,,,,,,,,,,,,,,With Brainslug Difficult 2 With Money,12,images/assets/snowy_money.jpg,learning,20,images/assets/success_money.jpg,images/assets/gameover.jpg,,,,,,,,,,,,,0,6,6,2,1,,,,,,,,,,,,,,
,,,,,,,,,,,,67d34a0adaf54e3354cf2b1c,001,3,2025-04-15_07h17.55.919,avatar_quest_3AFC_legacy,2022.1.3,Win32,59.88023952,67d34a0adaf54e3354cf2b1c,67fe37cb3bd870bba73819bd,67fe3df008e6cdf9fae61593,,,,,,,,,,,,,,,,,,,,,,With Brainslug Difficult 1 With Money,6,images/assets/snowy_money.jpg,learning,20,images/assets/success_money.jpg,images/assets/gameover.jpg,,,,,,,,,,,,,0,7,7,0,1,,,,,,,,,,,,,,
,,,,,,,,,,,,67d34a0adaf54e3354cf2b1c,001,3,2025-04-15_07h17.55.919,avatar_quest_3AFC_legacy,2022.1.3,Win32,59.88023952,67d34a0adaf54e3354cf2b1c,67fe37cb3bd870bba73819bd,67fe3df008e6cdf9fae61593,,,,,,,,,,,,,,,,,,,,,,No Brainslug Difficult 2 With Money,12,images/assets/snowy_money.jpg,learning,20,images/assets/success_money.jpg,images/assets/gameover.jpg,,,,,,,,,,,,,0,8,8,7,1,,,,,,,,,,,,,,
,,,,,,,,,,,,67d34a0adaf54e3354cf2b1c,001,3,2025-04-15_07h17.55.919,avatar_quest_3AFC_legacy,2022.1.3,Win32,59.88023952,67d34a0adaf54e3354cf2b1c,67fe37cb3bd870bba73819bd,67fe3df008e6cdf9fae61593,,,,,,,,,,,,,,,,,,,,,,No Brainslug Difficult 1 No Money,6,images/assets/snowy_original.jpg,learning,20,images/assets/success.jpg,images/assets/gameover.jpg,,,,,,,,,,,,,0,9,9,6,1,,,,,,,,,,,,,,
,,,,,,,,,,,,67d34a0adaf54e3354cf2b1c,001,3,2025-04-15_07h17.55.919,avatar_quest_3AFC_legacy,2022.1.3,Win32,59.88023952,67d34a0adaf54e3354cf2b1c,67fe37cb3bd870bba73819bd,67fe3df008e6cdf9fae61593,,,,,,,,,,,,,,,,,,,,,,With Brainslug No Barriers No Money,0,images/assets/snowy_original.jpg,learning,10,images/assets/success.jpg,images/assets/gameover.jpg,,,,,,,,,,,,,0,10,10,5,1,,,,,,,,,,,,,,
,,,,,,,,,,,,67d34a0adaf54e3354cf2b1c,001,3,2025-04-15_07h17.55.919,avatar_quest_3AFC_legacy,2022.1.3,Win32,59.88023952,67d34a0adaf54e3354cf2b1c,67fe37cb3bd870bba73819bd,67fe3df008e6cdf9fae61593,,,,,,,,,,,,,,,,,,,,,,,,,,,,,,,,,,,,,,,,,,,,,,,,,,,,,,,7,0,7,0,1
,,,,,,,,,,,,67d34a0adaf54e3354cf2b1c,001,3,2025-04-15_07h17.55.919,avatar_quest_3AFC_legacy,2022.1.3,Win32,59.88023952,67d34a0adaf54e3354cf2b1c,67fe37cb3bd870bba73819bd,67fe3df008e6cdf9fae61593,,,,,,,,,,,,,,,,,,,,,,No Brainslug Difficult 2 With Money,12,images/assets/snowy_money.jpg,learning,20,images/assets/success_money.jpg,images/assets/gameover.jpg,,,,,,,,With Brainslug Difficult 2 No Money,With Brainslug Difficult 1 No Money,down,1.5208,"[""With Brainslug Difficult 1 No Money"",""With Brainslug Difficult 2 With Money""]",0,0,0,7,1,,,,,,,,,,,,,,
,,,,,,,,,,,,67d34a0adaf54e3354cf2b1c,001,3,2025-04-15_07h17.55.919,avatar_quest_3AFC_legacy,2022.1.3,Win32,59.88023952,67d34a0adaf54e3354cf2b1c,67fe37cb3bd870bba73819bd,67fe3df008e6cdf9fae61593,"[""left"",""right"",""right"",""right"",""right"",""right"",""right"",""left"",""left"",""right"",""right"",""right"",""right"",""right"",""right"",""right""]","[0.6562000000030821,1.4240999999940414,2.1615999999941096,2.561299999997118,2.7332999999970298,2.9972999999970398,3.2950000000000728,3.6973999999911484,4.196200000003046,5.095399999991059,5.46279999999706,6.264799999997081,7.165399999991109,7.9317000000030475,8.165700000003085,8.373299999997016]",,calibration,With Brainslug Difficult 2 No Money,12,8.61745,8.6401,6,4,0,FALSE,na,na,na,na,,,,,,,,,,,,,,,,,,,,,,,,,,,,,,,,,,0,0,0,0,1,,,,,
,,,,,,,,,,,,67d34a0adaf54e3354cf2b1c,001,3,2025-04-15_07h17.55.919,avatar_quest_3AFC_legacy,2022.1.3,Win32,59.88023952,67d34a0adaf54e3354cf2b1c,67fe37cb3bd870bba73819bd,67fe3df008e6cdf9fae61593,,,,,,,,,,,,,,,,,,,,,,With Brainslug Difficult 2 No Money,12,images/assets/snowy_original.jpg,learning,20,images/assets/success.jpg,images/assets/gameover.jpg,,,,,,,,,,,,,0,1,1,3,1,,,,,,,,,,,,,,
,,,,,,,,,,,,67d34a0adaf54e3354cf2b1c,001,3,2025-04-15_07h17.55.919,avatar_quest_3AFC_legacy,2022.1.3,Win32,59.88023952,67d34a0adaf54e3354cf2b1c,67fe37cb3bd870bba73819bd,67fe3df008e6cdf9fae61593,,,,,,,,,,,,,,,,,,,,,,With Brainslug No Barriers No Money,0,images/assets/snowy_original.jpg,learning,10,images/assets/success.jpg,images/assets/gameover.jpg,,,,,,,,,,,,,0,2,2,5,1,,,,,,,,,,,,,,
,,,,,,,,,,,,67d34a0adaf54e3354cf2b1c,001,3,2025-04-15_07h17.55.919,avatar_quest_3AFC_legacy,2022.1.3,Win32,59.88023952,67d34a0adaf54e3354cf2b1c,67fe37cb3bd870bba73819bd,67fe3df008e6cdf9fae61593,,,,,,,,,,,,,,,,,,,,,,No Brainslug No Barriers No Money,0,images/assets/snowy_original.jpg,learning,10,images/assets/success.jpg,images/assets/gameover.jpg,,,,,,,,,,,,,0,3,3,10,1,,,,,,,,,,,,,,
,,,,,,,,,,,,67d34a0adaf54e3354cf2b1c,001,3,2025-04-15_07h17.55.919,avatar_quest_3AFC_legacy,2022.1.3,Win32,59.88023952,67d34a0adaf54e3354cf2b1c,67fe37cb3bd870bba73819bd,67fe3df008e6cdf9fae61593,,,,,,,,,,,,,,,,,,,,,,No Brainslug Difficult 1 No Money,6,images/assets/snowy_original.jpg,learning,20,images/assets/success.jpg,images/assets/gameover.jpg,,,,,,,,,,,,,0,4,4,6,1,,,,,,,,,,,,,,
,,,,,,,,,,,,67d34a0adaf54e3354cf2b1c,001,3,2025-04-15_07h17.55.919,avatar_quest_3AFC_legacy,2022.1.3,Win32,59.88023952,67d34a0adaf54e3354cf2b1c,67fe37cb3bd870bba73819bd,67fe3df008e6cdf9fae61593,,,,,,,,,,,,,,,,,,,,,,No Brainslug Difficult 2 No Money,12,images/assets/snowy_original.jpg,learning,20,images/assets/success.jpg,images/assets/gameover.jpg,,,,,,,,,,,,,0,5,5,8,1,,,,,,,,,,,,,,
,,,,,,,,,,,,67d34a0adaf54e3354cf2b1c,001,3,2025-04-15_07h17.55.919,avatar_quest_3AFC_legacy,2022.1.3,Win32,59.88023952,67d34a0adaf54e3354cf2b1c,67fe37cb3bd870bba73819bd,67fe3df008e6cdf9fae61593,,,,,,,,,,,,,,,,,,,,,,With Brainslug Difficult 2 With Money,12,images/assets/snowy_money.jpg,learning,20,images/assets/success_money.jpg,images/assets/gameover.jpg,,,,,,,,,,,,,0,6,6,2,1,,,,,,,,,,,,,,
,,,,,,,,,,,,67d34a0adaf54e3354cf2b1c,001,3,2025-04-15_07h17.55.919,avatar_quest_3AFC_legacy,2022.1.3,Win32,59.88023952,67d34a0adaf54e3354cf2b1c,67fe37cb3bd870bba73819bd,67fe3df008e6cdf9fae61593,,,,,,,,,,,,,,,,,,,,,,With Brainslug No Barriers With Money,0,images/assets/snowy_money.jpg,learning,10,images/assets/success_money.jpg,images/assets/gameover.jpg,,,,,,,,,,,,,0,7,7,4,1,,,,,,,,,,,,,,
,,,,,,,,,,,,67d34a0adaf54e3354cf2b1c,001,3,2025-04-15_07h17.55.919,avatar_quest_3AFC_legacy,2022.1.3,Win32,59.88023952,67d34a0adaf54e3354cf2b1c,67fe37cb3bd870bba73819bd,67fe3df008e6cdf9fae61593,,,,,,,,,,,,,,,,,,,,,,No Brainslug No Barriers With Money,0,images/assets/snowy_money.jpg,learning,10,images/assets/success_money.jpg,images/assets/gameover.jpg,,,,,,,,,,,,,0,8,8,9,1,,,,,,,,,,,,,,
,,,,,,,,,,,,67d34a0adaf54e3354cf2b1c,001,3,2025-04-15_07h17.55.919,avatar_quest_3AFC_legacy,2022.1.3,Win32,59.88023952,67d34a0adaf54e3354cf2b1c,67fe37cb3bd870bba73819bd,67fe3df008e6cdf9fae61593,,,,,,,,,,,,,,,,,,,,,,With Brainslug Difficult 1 With Money,6,images/assets/snowy_money.jpg,learning,20,images/assets/success_money.jpg,images/assets/gameover.jpg,,,,,,,,,,,,,0,9,9,0,1,,,,,,,,,,,,,,
,,,,,,,,,,,,67d34a0adaf54e3354cf2b1c,001,3,2025-04-15_07h17.55.919,avatar_quest_3AFC_legacy,2022.1.3,Win32,59.88023952,67d34a0adaf54e3354cf2b1c,67fe37cb3bd870bba73819bd,67fe3df008e6cdf9fae61593,,,,,,,,,,,,,,,,,,,,,,With Brainslug Difficult 1 No Money,6,images/assets/snowy_original.jpg,learning,20,images/assets/success.jpg,images/assets/gameover.jpg,,,,,,,,,,,,,0,10,10,1,1,,,,,,,,,,,,,,
,,,,,,,,,,,,67d34a0adaf54e3354cf2b1c,001,3,2025-04-15_07h17.55.919,avatar_quest_3AFC_legacy,2022.1.3,Win32,59.88023952,67d34a0adaf54e3354cf2b1c,67fe37cb3bd870bba73819bd,67fe3df008e6cdf9fae61593,,,,,,,,,,,,,,,,,,,,,,,,,,,,,,,,,,,,,,,,,,,,,,,,,,,,,,,8,0,8,0,1
