instruction_mouse.x,instruction_mouse.y,instruction_mouse.leftButton,instruction_mouse.midButton,instruction_mouse.rightButton,instruction_mouse.clicked_name,introduce_general.thisRepN,introduce_general.thisTrialN,introduce_general.thisN,introduce_general.thisIndex,introduce_general.ran,thisInstruction,participant,session,game version,date,expName,psychopyVersion,OS,frameRate,PROLIFIC PID,STUDY ID,SESSION ID,move_resp.keys,move_resp.rt,end_resp.keys,phase,condition,trial_num,time_limit,completion_time,left_right_steps,number_of_obsticle_blocks,number_of_tree_blocks,quest_complete,responsivity_summary,av_inter_brainslug_intervals,proportion_jitter,jitter_direction_proportion_right,calibration_phase.thisRepN,calibration_phase.thisTrialN,calibration_phase.thisN,calibration_phase.thisIndex,calibration_phase.ran,BlockLabel,nObsticles,backgroundImage,phaseLabel,n_side_steps,success_im,gameover_im,success_condition,introduce_learning_or_choice.thisRepN,introduce_learning_or_choice.thisTrialN,introduce_learning_or_choice.thisN,introduce_learning_or_choice.thisIndex,introduce_learning_or_choice.ran,choice_resp.keys,chosen_quest,unchosen_quest,choice_resp_3afc.keys,choice_resp_3afc.rt,unchosen_quests,forced_choice_trial.thisRepN,forced_choice_trial.thisTrialN,forced_choice_trial.thisN,forced_choice_trial.thisIndex,forced_choice_trial.ran,enjoyment_slider.response,enjoyment_slider.rt,effort_slider.response,effort_slider.rt,show_loop2.thisRepN,show_loop2.thisTrialN,show_loop2.thisN,show_loop2.thisIndex,show_loop2.ran,trials_per_block.thisRepN,trials_per_block.thisTrialN,trials_per_block.thisN,trials_per_block.thisIndex,trials_per_block.ran,decision_phase_AFC.thisRepN,decision_phase_AFC.thisTrialN,decision_phase_AFC.thisN,decision_phase_AFC.thisIndex,decision_phase_AFC.ran,blockN,BlockLabel1,questIm1,BlockLabel2,questIm2,BlockLabel3,questIm3,quest_condition,showForcedChoice.thisRepN,showForcedChoice.thisTrialN,showForcedChoice.thisN,showForcedChoice.thisIndex,showForcedChoice.ran
0.397222222,-0.391666667,1,0,0,instruction_button,0,0,0,0,1,images/instructions_part1_LSM_taskversion1/Slide1.JPG,67d952104d8da4447ab6be2c,001,3,2025-04-15_04h15.54.219,avatar_quest_3AFC_legacy,2022.1.3,Win32,60.24096386,67d952104d8da4447ab6be2c,67fe37cb3bd870bba73819bd,67fe3acc48c4efe47e7410a3,,,,,,,,,,,,,,,,,,,,,,,,,,,,,,,,,,,,,,,,,,,,,,,,,,,,,,,,,,,,,,,,,,,,,,,,,,,,,
0.397222222,-0.391666667,1,0,0,instruction_button,0,1,1,1,1,images/instructions_part1_LSM_taskversion1/Slide2.JPG,67d952104d8da4447ab6be2c,001,3,2025-04-15_04h15.54.219,avatar_quest_3AFC_legacy,2022.1.3,Win32,60.24096386,67d952104d8da4447ab6be2c,67fe37cb3bd870bba73819bd,67fe3acc48c4efe47e7410a3,,,,,,,,,,,,,,,,,,,,,,,,,,,,,,,,,,,,,,,,,,,,,,,,,,,,,,,,,,,,,,,,,,,,,,,,,,,,,
0.397222222,-0.391666667,1,0,0,instruction_button,0,2,2,2,1,images/instructions_part1_LSM_taskversion1/Slide3.JPG,67d952104d8da4447ab6be2c,001,3,2025-04-15_04h15.54.219,avatar_quest_3AFC_legacy,2022.1.3,Win32,60.24096386,67d952104d8da4447ab6be2c,67fe37cb3bd870bba73819bd,67fe3acc48c4efe47e7410a3,,,,,,,,,,,,,,,,,,,,,,,,,,,,,,,,,,,,,,,,,,,,,,,,,,,,,,,,,,,,,,,,,,,,,,,,,,,,,
0.397222222,-0.391666667,1,0,0,instruction_button,0,3,3,3,1,images/instructions_part1_LSM_taskversion1/Slide3.5.JPG,67d952104d8da4447ab6be2c,001,3,2025-04-15_04h15.54.219,avatar_quest_3AFC_legacy,2022.1.3,Win32,60.24096386,67d952104d8da4447ab6be2c,67fe37cb3bd870bba73819bd,67fe3acc48c4efe47e7410a3,,,,,,,,,,,,,,,,,,,,,,,,,,,,,,,,,,,,,,,,,,,,,,,,,,,,,,,,,,,,,,,,,,,,,,,,,,,,,
0.397222222,-0.391666667,1,0,0,instruction_button,0,4,4,4,1,images/instructions_part1_LSM_taskversion1/Slide4.JPG,67d952104d8da4447ab6be2c,001,3,2025-04-15_04h15.54.219,avatar_quest_3AFC_legacy,2022.1.3,Win32,60.24096386,67d952104d8da4447ab6be2c,67fe37cb3bd870bba73819bd,67fe3acc48c4efe47e7410a3,,,,,,,,,,,,,,,,,,,,,,,,,,,,,,,,,,,,,,,,,,,,,,,,,,,,,,,,,,,,,,,,,,,,,,,,,,,,,
0.397222222,-0.391666667,1,0,0,instruction_button,0,5,5,5,1,images/instructions_part1_LSM_taskversion1/Slide6.5.JPG,67d952104d8da4447ab6be2c,001,3,2025-04-15_04h15.54.219,avatar_quest_3AFC_legacy,2022.1.3,Win32,60.24096386,67d952104d8da4447ab6be2c,67fe37cb3bd870bba73819bd,67fe3acc48c4efe47e7410a3,,,,,,,,,,,,,,,,,,,,,,,,,,,,,,,,,,,,,,,,,,,,,,,,,,,,,,,,,,,,,,,,,,,,,,,,,,,,,
,,,,,,,,,,,,67d952104d8da4447ab6be2c,001,3,2025-04-15_04h15.54.219,avatar_quest_3AFC_legacy,2022.1.3,Win32,60.24096386,67d952104d8da4447ab6be2c,67fe37cb3bd870bba73819bd,67fe3acc48c4efe47e7410a3,"[""right"",""left"",""left"",""left"",""left"",""left"",""left"",""right"",""right"",""right"",""right"",""right""]","[2.4241000000238273,3.2501999999881264,3.983000000000061,4.20150000000001,4.39910000002385,4.585699999988151,4.782100000023888,5.232699999988085,5.48130000001197,5.697999999999979,6.06430000001194,6.380499999999984]",,calibration,No Brainslug No Barriers No Money,1,100,6.609,9,0,69,TRUE,na,na,na,na,0,0,0,2,1,No Brainslug No Barriers No Money,0,images/assets/snowy_original.jpg,calibration,10,images/assets/success.jpg,images/assets/gameover.jpg,never,,,,,,,,,,,,,,,,,,,,,,,,,,,,,,,,,,,,,,,,,,,,,,,,
,,,,,,,,,,,,67d952104d8da4447ab6be2c,001,3,2025-04-15_04h15.54.219,avatar_quest_3AFC_legacy,2022.1.3,Win32,60.24096386,67d952104d8da4447ab6be2c,67fe37cb3bd870bba73819bd,67fe3acc48c4efe47e7410a3,"[""right"",""left"",""left"",""left"",""left"",""left""]","[0.08780000001195276,3.1018000000119628,3.406399999976202,3.6013000000119746,3.8220000000000027,4.0348000000119555]",,calibration,No Brainslug No Barriers No Money,2,100,5.7693,5,0,31,TRUE,na,na,na,na,0,1,1,1,1,No Brainslug No Barriers No Money,0,images/assets/snowy_original.jpg,calibration,10,images/assets/success.jpg,images/assets/gameover.jpg,never,,,,,,,,,,,,,,,,,,,,,,,,,,,,,,,,,,,,,,,,,,,,,,,,
,,,,,,,,,,,,67d952104d8da4447ab6be2c,001,3,2025-04-15_04h15.54.219,avatar_quest_3AFC_legacy,2022.1.3,Win32,60.24096386,67d952104d8da4447ab6be2c,67fe37cb3bd870bba73819bd,67fe3acc48c4efe47e7410a3,"[""left"",""left"",""left"",""left"",""left"",""left"",""left""]","[1.87319999998806,2.4766000000238364,2.72199999999998,2.9228000000118755,3.1543999999761354,3.3719999999999573,3.6229999999999336]",,calibration,No Brainslug No Barriers No Money,3,100,5.5243,3,0,0,TRUE,na,na,na,na,0,2,2,0,1,No Brainslug No Barriers No Money,0,images/assets/snowy_original.jpg,calibration,10,images/assets/success.jpg,images/assets/gameover.jpg,never,,,,,,,,,,,,,,,,,,,,,,,,,,,,,,,,,,,,,,,,,,,,,,,,
0.397222222,-0.391666667,1,0,0,instruction_button,,,,,,images/instructions_part2_LSM_taskversion3.jpg,67d952104d8da4447ab6be2c,001,3,2025-04-15_04h15.54.219,avatar_quest_3AFC_legacy,2022.1.3,Win32,60.24096386,67d952104d8da4447ab6be2c,67fe37cb3bd870bba73819bd,67fe3acc48c4efe47e7410a3,,,,,,,,,,,,,,,,,,,,,,,,,,,,,,0,0,0,0,1,,,,,,,,,,,,,,,,,,,,,,,,,,,,,,,,,,,,,,,,,,,
,,,,,,,,,,,,67d952104d8da4447ab6be2c,001,3,2025-04-15_04h15.54.219,avatar_quest_3AFC_legacy,2022.1.3,Win32,60.24096386,67d952104d8da4447ab6be2c,67fe37cb3bd870bba73819bd,67fe3acc48c4efe47e7410a3,,,,,,,,,,,,,,,,,,,,,,With Brainslug Difficult 1 With Money,6,images/assets/snowy_money.jpg,learning,20,images/assets/success_money.jpg,images/assets/gameover.jpg,,,,,,,,With Brainslug Difficult 2 With Money,With Brainslug Difficult 1 No Money,right,5.2864,"[""With Brainslug Difficult 1 No Money"",""With Brainslug Difficult 2 No Money""]",0,0,0,0,1,,,,,,,,,,,,,,,,,,,,,,,,,,,,,,,,
,,,,,,,,,,,,67d952104d8da4447ab6be2c,001,3,2025-04-15_04h15.54.219,avatar_quest_3AFC_legacy,2022.1.3,Win32,60.24096386,67d952104d8da4447ab6be2c,67fe37cb3bd870bba73819bd,67fe3acc48c4efe47e7410a3,,,,,,,,,,,,,,,,,,,,,,With Brainslug Difficult 1 No Money,6,images/assets/snowy_original.jpg,learning,20,images/assets/success.jpg,images/assets/gameover.jpg,,,,,,,,,,,,,0,1,1,1,1,,,,,,,,,,,,,,,,,,,,,,,,,,,,,,,,
,,,,,,,,,,,,67d952104d8da4447ab6be2c,001,3,2025-04-15_04h15.54.219,avatar_quest_3AFC_legacy,2022.1.3,Win32,60.24096386,67d952104d8da4447ab6be2c,67fe37cb3bd870bba73819bd,67fe3acc48c4efe47e7410a3,"[""left"",""left"",""right"",""right"",""right"",""left"",""left"",""up"",""left""]","[1.0028000000119164,1.5901999999880445,3.405499999999961,3.846099999964167,4.265899999976114,4.6924999999999955,5.868300000011914,7.463099999964129,8.502199999988079]",,calibration,With Brainslug Difficult 2 With Money,4,8.9513,8.9594,5,3,0,FALSE,na,na,na,na,,,,,,,,,,,,,,,,,,,,,,,,,,,,,,,,,,0,0,0,0,1,,,,,,,,,,,,,,,,,,,,,,,
,,,,,,,,,,,,67d952104d8da4447ab6be2c,001,3,2025-04-15_04h15.54.219,avatar_quest_3AFC_legacy,2022.1.3,Win32,60.24096386,67d952104d8da4447ab6be2c,67fe37cb3bd870bba73819bd,67fe3acc48c4efe47e7410a3,,,,,,,,,,,,,,,,,,,,,,With Brainslug Difficult 2 With Money,12,images/assets/snowy_money.jpg,learning,20,images/assets/success_money.jpg,images/assets/gameover.jpg,,,,,,,,,,,,,0,2,2,2,1,,,,,,,,,,,,,,,,,,,,,,,,,,,,,,,,
,,,,,,,,,,,,67d952104d8da4447ab6be2c,001,3,2025-04-15_04h15.54.219,avatar_quest_3AFC_legacy,2022.1.3,Win32,60.24096386,67d952104d8da4447ab6be2c,67fe37cb3bd870bba73819bd,67fe3acc48c4efe47e7410a3,,,,,,,,,,,,,,,,,,,,,,No Brainslug No Barriers No Money,0,images/assets/snowy_original.jpg,learning,10,images/assets/success.jpg,images/assets/gameover.jpg,,,,,,,,,,,,,0,3,3,10,1,,,,,,,,,,,,,,,,,,,,,,,,,,,,,,,,
,,,,,,,,,,,,67d952104d8da4447ab6be2c,001,3,2025-04-15_04h15.54.219,avatar_quest_3AFC_legacy,2022.1.3,Win32,60.24096386,67d952104d8da4447ab6be2c,67fe37cb3bd870bba73819bd,67fe3acc48c4efe47e7410a3,,,,,,,,,,,,,,,,,,,,,,No Brainslug Difficult 2 No Money,12,images/assets/snowy_original.jpg,learning,20,images/assets/success.jpg,images/assets/gameover.jpg,,,,,,,,,,,,,0,4,4,8,1,,,,,,,,,,,,,,,,,,,,,,,,,,,,,,,,
,,,,,,,,,,,,67d952104d8da4447ab6be2c,001,3,2025-04-15_04h15.54.219,avatar_quest_3AFC_legacy,2022.1.3,Win32,60.24096386,67d952104d8da4447ab6be2c,67fe37cb3bd870bba73819bd,67fe3acc48c4efe47e7410a3,,,,,,,,,,,,,,,,,,,,,,With Brainslug No Barriers No Money,0,images/assets/snowy_original.jpg,learning,10,images/assets/success.jpg,images/assets/gameover.jpg,,,,,,,,,,,,,0,5,5,5,1,,,,,,,,,,,,,,,,,,,,,,,,,,,,,,,,
,,,,,,,,,,,,67d952104d8da4447ab6be2c,001,3,2025-04-15_04h15.54.219,avatar_quest_3AFC_legacy,2022.1.3,Win32,60.24096386,67d952104d8da4447ab6be2c,67fe37cb3bd870bba73819bd,67fe3acc48c4efe47e7410a3,,,,,,,,,,,,,,,,,,,,,,No Brainslug No Barriers With Money,0,images/assets/snowy_money.jpg,learning,10,images/assets/success_money.jpg,images/assets/gameover.jpg,,,,,,,,,,,,,0,6,6,9,1,,,,,,,,,,,,,,,,,,,,,,,,,,,,,,,,
,,,,,,,,,,,,67d952104d8da4447ab6be2c,001,3,2025-04-15_04h15.54.219,avatar_quest_3AFC_legacy,2022.1.3,Win32,60.24096386,67d952104d8da4447ab6be2c,67fe37cb3bd870bba73819bd,67fe3acc48c4efe47e7410a3,,,,,,,,,,,,,,,,,,,,,,No Brainslug Difficult 2 With Money,12,images/assets/snowy_money.jpg,learning,20,images/assets/success_money.jpg,images/assets/gameover.jpg,,,,,,,,,,,,,0,7,7,7,1,,,,,,,,,,,,,,,,,,,,,,,,,,,,,,,,
,,,,,,,,,,,,67d952104d8da4447ab6be2c,001,3,2025-04-15_04h15.54.219,avatar_quest_3AFC_legacy,2022.1.3,Win32,60.24096386,67d952104d8da4447ab6be2c,67fe37cb3bd870bba73819bd,67fe3acc48c4efe47e7410a3,,,,,,,,,,,,,,,,,,,,,,No Brainslug Difficult 1 No Money,6,images/assets/snowy_original.jpg,learning,20,images/assets/success.jpg,images/assets/gameover.jpg,,,,,,,,,,,,,0,8,8,6,1,,,,,,,,,,,,,,,,,,,,,,,,,,,,,,,,
,,,,,,,,,,,,67d952104d8da4447ab6be2c,001,3,2025-04-15_04h15.54.219,avatar_quest_3AFC_legacy,2022.1.3,Win32,60.24096386,67d952104d8da4447ab6be2c,67fe37cb3bd870bba73819bd,67fe3acc48c4efe47e7410a3,,,,,,,,,,,,,,,,,,,,,,With Brainslug Difficult 2 No Money,12,images/assets/snowy_original.jpg,learning,20,images/assets/success.jpg,images/assets/gameover.jpg,,,,,,,,,,,,,0,9,9,3,1,,,,,,,,,,,,,,,,,,,,,,,,,,,,,,,,
,,,,,,,,,,,,67d952104d8da4447ab6be2c,001,3,2025-04-15_04h15.54.219,avatar_quest_3AFC_legacy,2022.1.3,Win32,60.24096386,67d952104d8da4447ab6be2c,67fe37cb3bd870bba73819bd,67fe3acc48c4efe47e7410a3,,,,,,,,,,,,,,,,,,,,,,With Brainslug No Barriers With Money,0,images/assets/snowy_money.jpg,learning,10,images/assets/success_money.jpg,images/assets/gameover.jpg,,,,,,,,,,,,,0,10,10,4,1,,,,,,,,,,,,,,,,,,,,,,,,,,,,,,,,
,,,,,,,,,,,,67d952104d8da4447ab6be2c,001,3,2025-04-15_04h15.54.219,avatar_quest_3AFC_legacy,2022.1.3,Win32,60.24096386,67d952104d8da4447ab6be2c,67fe37cb3bd870bba73819bd,67fe3acc48c4efe47e7410a3,,,,,,,,,,,,,,,,,,,,,,,,,,,,,,,,,,,,,,,,,,,,,,,,,,,,,,,0,0,0,0,1,,,,,,,,,,,,,,,,,,
,,,,,,,,,,,,67d952104d8da4447ab6be2c,001,3,2025-04-15_04h15.54.219,avatar_quest_3AFC_legacy,2022.1.3,Win32,60.24096386,67d952104d8da4447ab6be2c,67fe37cb3bd870bba73819bd,67fe3acc48c4efe47e7410a3,,,,,,,,,,,,,,,,,,,,,,With Brainslug No Barriers No Money,0,images/assets/snowy_original.jpg,learning,10,images/assets/success.jpg,images/assets/gameover.jpg,,,,,,,,With Brainslug Difficult 2 With Money,With Brainslug Difficult 1 No Money,right,1.7282,"[""With Brainslug Difficult 1 No Money"",""With Brainslug Difficult 2 No Money""]",0,0,0,5,1,,,,,,,,,,,,,,,,,,,,,,,,,,,,,,,,
,,,,,,,,,,,,67d952104d8da4447ab6be2c,001,3,2025-04-15_04h15.54.219,avatar_quest_3AFC_legacy,2022.1.3,Win32,60.24096386,67d952104d8da4447ab6be2c,67fe37cb3bd870bba73819bd,67fe3acc48c4efe47e7410a3,,,,,,,,,,,,,,,,,,,,,,With Brainslug Difficult 2 No Money,12,images/assets/snowy_original.jpg,learning,20,images/assets/success.jpg,images/assets/gameover.jpg,,,,,,,,,,,,,0,1,1,3,1,,,,,,,,,,,,,,,,,,,,,,,,,,,,,,,,
,,,,,,,,,,,,67d952104d8da4447ab6be2c,001,3,2025-04-15_04h15.54.219,avatar_quest_3AFC_legacy,2022.1.3,Win32,60.24096386,67d952104d8da4447ab6be2c,67fe37cb3bd870bba73819bd,67fe3acc48c4efe47e7410a3,,,,,,,,,,,,,,,,,,,,,,No Brainslug No Barriers No Money,0,images/assets/snowy_original.jpg,learning,10,images/assets/success.jpg,images/assets/gameover.jpg,,,,,,,,,,,,,0,2,2,10,1,,,,,,,,,,,,,,,,,,,,,,,,,,,,,,,,
,,,,,,,,,,,,67d952104d8da4447ab6be2c,001,3,2025-04-15_04h15.54.219,avatar_quest_3AFC_legacy,2022.1.3,Win32,60.24096386,67d952104d8da4447ab6be2c,67fe37cb3bd870bba73819bd,67fe3acc48c4efe47e7410a3,,,,,,,,,,,,,,,,,,,,,,With Brainslug No Barriers With Money,0,images/assets/snowy_money.jpg,learning,10,images/assets/success_money.jpg,images/assets/gameover.jpg,,,,,,,,,,,,,0,3,3,4,1,,,,,,,,,,,,,,,,,,,,,,,,,,,,,,,,
,,,,,,,,,,,,67d952104d8da4447ab6be2c,001,3,2025-04-15_04h15.54.219,avatar_quest_3AFC_legacy,2022.1.3,Win32,60.24096386,67d952104d8da4447ab6be2c,67fe37cb3bd870bba73819bd,67fe3acc48c4efe47e7410a3,,,,,,,,,,,,,,,,,,,,,,With Brainslug Difficult 1 No Money,6,images/assets/snowy_original.jpg,learning,20,images/assets/success.jpg,images/assets/gameover.jpg,,,,,,,,,,,,,0,4,4,1,1,,,,,,,,,,,,,,,,,,,,,,,,,,,,,,,,
,,,,,,,,,,,,67d952104d8da4447ab6be2c,001,3,2025-04-15_04h15.54.219,avatar_quest_3AFC_legacy,2022.1.3,Win32,60.24096386,67d952104d8da4447ab6be2c,67fe37cb3bd870bba73819bd,67fe3acc48c4efe47e7410a3,,,,,,,,,,,,,,,,,,,,,,No Brainslug Difficult 1 No Money,6,images/assets/snowy_original.jpg,learning,20,images/assets/success.jpg,images/assets/gameover.jpg,,,,,,,,,,,,,0,5,5,6,1,,,,,,,,,,,,,,,,,,,,,,,,,,,,,,,,
,,,,,,,,,,,,67d952104d8da4447ab6be2c,001,3,2025-04-15_04h15.54.219,avatar_quest_3AFC_legacy,2022.1.3,Win32,60.24096386,67d952104d8da4447ab6be2c,67fe37cb3bd870bba73819bd,67fe3acc48c4efe47e7410a3,,,,,,,,,,,,,,,,,,,,,,With Brainslug Difficult 1 With Money,6,images/assets/snowy_money.jpg,learning,20,images/assets/success_money.jpg,images/assets/gameover.jpg,,,,,,,,,,,,,0,6,6,0,1,,,,,,,,,,,,,,,,,,,,,,,,,,,,,,,,
,,,,,,,,,,,,67d952104d8da4447ab6be2c,001,3,2025-04-15_04h15.54.219,avatar_quest_3AFC_legacy,2022.1.3,Win32,60.24096386,67d952104d8da4447ab6be2c,67fe37cb3bd870bba73819bd,67fe3acc48c4efe47e7410a3,,,,,,,,,,,,,,,,,,,,,,No Brainslug Difficult 2 With Money,12,images/assets/snowy_money.jpg,learning,20,images/assets/success_money.jpg,images/assets/gameover.jpg,,,,,,,,,,,,,0,7,7,7,1,,,,,,,,,,,,,,,,,,,,,,,,,,,,,,,,
,,,,,,,,,,,,67d952104d8da4447ab6be2c,001,3,2025-04-15_04h15.54.219,avatar_quest_3AFC_legacy,2022.1.3,Win32,60.24096386,67d952104d8da4447ab6be2c,67fe37cb3bd870bba73819bd,67fe3acc48c4efe47e7410a3,,,,,,,,,,,,,,,,,,,,,,No Brainslug No Barriers With Money,0,images/assets/snowy_money.jpg,learning,10,images/assets/success_money.jpg,images/assets/gameover.jpg,,,,,,,,,,,,,0,8,8,9,1,,,,,,,,,,,,,,,,,,,,,,,,,,,,,,,,
,,,,,,,,,,,,67d952104d8da4447ab6be2c,001,3,2025-04-15_04h15.54.219,avatar_quest_3AFC_legacy,2022.1.3,Win32,60.24096386,67d952104d8da4447ab6be2c,67fe37cb3bd870bba73819bd,67fe3acc48c4efe47e7410a3,,,,,,,,,,,,,,,,,,,,,,No Brainslug Difficult 2 No Money,12,images/assets/snowy_original.jpg,learning,20,images/assets/success.jpg,images/assets/gameover.jpg,,,,,,,,,,,,,0,9,9,8,1,,,,,,,,,,,,,,,,,,,,,,,,,,,,,,,,
,,,,,,,,,,,,67d952104d8da4447ab6be2c,001,3,2025-04-15_04h15.54.219,avatar_quest_3AFC_legacy,2022.1.3,Win32,60.24096386,67d952104d8da4447ab6be2c,67fe37cb3bd870bba73819bd,67fe3acc48c4efe47e7410a3,"[""left"",""left"",""left"",""left"",""right"",""right"",""left"",""left"",""right"",""right"",""right"",""left"",""left"",""left"",""left"",""left"",""right"",""right"",""right"",""right""]","[0.5111999999880936,0.8936999999881436,1.1720000000000255,1.6948000000119237,2.1016999999881136,2.5453000000119346,3.1821999999881427,3.5168999999762036,4.171800000011899,4.530500000000075,5.0625,5.650199999988104,5.9726999999880945,6.208800000011934,6.445500000000038,6.932599999964282,7.308699999988107,7.572000000000003,7.798999999999978,8.120800000011968]",,calibration,With Brainslug Difficult 2 With Money,5,8.9513,8.8834,9,6,0,TRUE,na,na,na,na,,,,,,,,,,,,,,,,,,,,,,,,,,,,,,,,,,0,0,0,0,1,,,,,,,,,,,,,,,,,,,,,,,
,,,,,,,,,,,,67d952104d8da4447ab6be2c,001,3,2025-04-15_04h15.54.219,avatar_quest_3AFC_legacy,2022.1.3,Win32,60.24096386,67d952104d8da4447ab6be2c,67fe37cb3bd870bba73819bd,67fe3acc48c4efe47e7410a3,,,,,,,,,,,,,,,,,,,,,,With Brainslug Difficult 2 With Money,12,images/assets/snowy_money.jpg,learning,20,images/assets/success_money.jpg,images/assets/gameover.jpg,,,,,,,,,,,,,0,10,10,2,1,,,,,,,,,,,,,,,,,,,,,,,,,,,,,,,,
,,,,,,,,,,,,67d952104d8da4447ab6be2c,001,3,2025-04-15_04h15.54.219,avatar_quest_3AFC_legacy,2022.1.3,Win32,60.24096386,67d952104d8da4447ab6be2c,67fe37cb3bd870bba73819bd,67fe3acc48c4efe47e7410a3,,,,,,,,,,,,,,,,,,,,,,,,,,,,,,,,,,,,,,,,,,,,,,,,,,,,,,,1,0,1,0,1,,,,,,,,,,,,,,,,,,
,,,,,,,,,,,,67d952104d8da4447ab6be2c,001,3,2025-04-15_04h15.54.219,avatar_quest_3AFC_legacy,2022.1.3,Win32,60.24096386,67d952104d8da4447ab6be2c,67fe37cb3bd870bba73819bd,67fe3acc48c4efe47e7410a3,,,,,,,,,,,,,,,,,,,,,,With Brainslug Difficult 2 With Money,12,images/assets/snowy_money.jpg,learning,20,images/assets/success_money.jpg,images/assets/gameover.jpg,,,,,,,,With Brainslug Difficult 1 No Money,With Brainslug Difficult 1 No Money,left,4.6872,"[""With Brainslug Difficult 2 No Money"",""With Brainslug Difficult 2 With Money""]",0,0,0,2,1,,,,,,,,,,,,,,,,,,,,,,,,,,,,,,,,
,,,,,,,,,,,,67d952104d8da4447ab6be2c,001,3,2025-04-15_04h15.54.219,avatar_quest_3AFC_legacy,2022.1.3,Win32,60.24096386,67d952104d8da4447ab6be2c,67fe37cb3bd870bba73819bd,67fe3acc48c4efe47e7410a3,,,,,,,,,,,,,,,,,,,,,,No Brainslug Difficult 1 No Money,6,images/assets/snowy_original.jpg,learning,20,images/assets/success.jpg,images/assets/gameover.jpg,,,,,,,,,,,,,0,1,1,6,1,,,,,,,,,,,,,,,,,,,,,,,,,,,,,,,,
,,,,,,,,,,,,67d952104d8da4447ab6be2c,001,3,2025-04-15_04h15.54.219,avatar_quest_3AFC_legacy,2022.1.3,Win32,60.24096386,67d952104d8da4447ab6be2c,67fe37cb3bd870bba73819bd,67fe3acc48c4efe47e7410a3,,,,,,,,,,,,,,,,,,,,,,With Brainslug No Barriers No Money,0,images/assets/snowy_original.jpg,learning,10,images/assets/success.jpg,images/assets/gameover.jpg,,,,,,,,,,,,,0,2,2,5,1,,,,,,,,,,,,,,,,,,,,,,,,,,,,,,,,
,,,,,,,,,,,,67d952104d8da4447ab6be2c,001,3,2025-04-15_04h15.54.219,avatar_quest_3AFC_legacy,2022.1.3,Win32,60.24096386,67d952104d8da4447ab6be2c,67fe37cb3bd870bba73819bd,67fe3acc48c4efe47e7410a3,,,,,,,,,,,,,,,,,,,,,,No Brainslug Difficult 2 With Money,12,images/assets/snowy_money.jpg,learning,20,images/assets/success_money.jpg,images/assets/gameover.jpg,,,,,,,,,,,,,0,3,3,7,1,,,,,,,,,,,,,,,,,,,,,,,,,,,,,,,,
,,,,,,,,,,,,67d952104d8da4447ab6be2c,001,3,2025-04-15_04h15.54.219,avatar_quest_3AFC_legacy,2022.1.3,Win32,60.24096386,67d952104d8da4447ab6be2c,67fe37cb3bd870bba73819bd,67fe3acc48c4efe47e7410a3,,,,,,,,,,,,,,,,,,,,,,With Brainslug Difficult 1 With Money,6,images/assets/snowy_money.jpg,learning,20,images/assets/success_money.jpg,images/assets/gameover.jpg,,,,,,,,,,,,,0,4,4,0,1,,,,,,,,,,,,,,,,,,,,,,,,,,,,,,,,
,,,,,,,,,,,,67d952104d8da4447ab6be2c,001,3,2025-04-15_04h15.54.219,avatar_quest_3AFC_legacy,2022.1.3,Win32,60.24096386,67d952104d8da4447ab6be2c,67fe37cb3bd870bba73819bd,67fe3acc48c4efe47e7410a3,,,,,,,,,,,,,,,,,,,,,,No Brainslug No Barriers No Money,0,images/assets/snowy_original.jpg,learning,10,images/assets/success.jpg,images/assets/gameover.jpg,,,,,,,,,,,,,0,5,5,10,1,,,,,,,,,,,,,,,,,,,,,,,,,,,,,,,,
,,,,,,,,,,,,67d952104d8da4447ab6be2c,001,3,2025-04-15_04h15.54.219,avatar_quest_3AFC_legacy,2022.1.3,Win32,60.24096386,67d952104d8da4447ab6be2c,67fe37cb3bd870bba73819bd,67fe3acc48c4efe47e7410a3,"[""right"",""left"",""right"",""right"",""right"",""right"",""right"",""right"",""left"",""left"",""left"",""left"",""right"",""right"",""right""]","[0.7827999999523172,1.627699999988181,2.3353999999761754,3.8532999999523554,4.538399999976264,5.053199999988124,5.385199999988117,5.855099999964295,6.129799999952411,6.64289999997618,7.272299999952338,7.774099999964278,7.984199999988164,8.313000000000102,8.620299999952408]",,calibration,With Brainslug Difficult 1 No Money,6,8.9513,8.9677,5,2,0,FALSE,na,na,na,na,,,,,,,,,,,,,,,,,,,,,,,,,,,,,,,,,,0,0,0,0,1,,,,,,,,,,,,,,,,,,,,,,,
,,,,,,,,,,,,67d952104d8da4447ab6be2c,001,3,2025-04-15_04h15.54.219,avatar_quest_3AFC_legacy,2022.1.3,Win32,60.24096386,67d952104d8da4447ab6be2c,67fe37cb3bd870bba73819bd,67fe3acc48c4efe47e7410a3,,,,,,,,,,,,,,,,,,,,,,With Brainslug Difficult 1 No Money,6,images/assets/snowy_original.jpg,learning,20,images/assets/success.jpg,images/assets/gameover.jpg,,,,,,,,,,,,,0,6,6,1,1,,,,,,,,,,,,,,,,,,,,,,,,,,,,,,,,
,,,,,,,,,,,,67d952104d8da4447ab6be2c,001,3,2025-04-15_04h15.54.219,avatar_quest_3AFC_legacy,2022.1.3,Win32,60.24096386,67d952104d8da4447ab6be2c,67fe37cb3bd870bba73819bd,67fe3acc48c4efe47e7410a3,,,,,,,,,,,,,,,,,,,,,,With Brainslug No Barriers With Money,0,images/assets/snowy_money.jpg,learning,10,images/assets/success_money.jpg,images/assets/gameover.jpg,,,,,,,,,,,,,0,7,7,4,1,,,,,,,,,,,,,,,,,,,,,,,,,,,,,,,,
,,,,,,,,,,,,67d952104d8da4447ab6be2c,001,3,2025-04-15_04h15.54.219,avatar_quest_3AFC_legacy,2022.1.3,Win32,60.24096386,67d952104d8da4447ab6be2c,67fe37cb3bd870bba73819bd,67fe3acc48c4efe47e7410a3,,,,,,,,,,,,,,,,,,,,,,No Brainslug Difficult 2 No Money,12,images/assets/snowy_original.jpg,learning,20,images/assets/success.jpg,images/assets/gameover.jpg,,,,,,,,,,,,,0,8,8,8,1,,,,,,,,,,,,,,,,,,,,,,,,,,,,,,,,
,,,,,,,,,,,,67d952104d8da4447ab6be2c,001,3,2025-04-15_04h15.54.219,avatar_quest_3AFC_legacy,2022.1.3,Win32,60.24096386,67d952104d8da4447ab6be2c,67fe37cb3bd870bba73819bd,67fe3acc48c4efe47e7410a3,,,,,,,,,,,,,,,,,,,,,,With Brainslug Difficult 2 No Money,12,images/assets/snowy_original.jpg,learning,20,images/assets/success.jpg,images/assets/gameover.jpg,,,,,,,,,,,,,0,9,9,3,1,,,,,,,,,,,,,,,,,,,,,,,,,,,,,,,,
,,,,,,,,,,,,67d952104d8da4447ab6be2c,001,3,2025-04-15_04h15.54.219,avatar_quest_3AFC_legacy,2022.1.3,Win32,60.24096386,67d952104d8da4447ab6be2c,67fe37cb3bd870bba73819bd,67fe3acc48c4efe47e7410a3,,,,,,,,,,,,,,,,,,,,,,No Brainslug No Barriers With Money,0,images/assets/snowy_money.jpg,learning,10,images/assets/success_money.jpg,images/assets/gameover.jpg,,,,,,,,,,,,,0,10,10,9,1,,,,,,,,,,,,,,,,,,,,,,,,,,,,,,,,
,,,,,,,,,,,,67d952104d8da4447ab6be2c,001,3,2025-04-15_04h15.54.219,avatar_quest_3AFC_legacy,2022.1.3,Win32,60.24096386,67d952104d8da4447ab6be2c,67fe37cb3bd870bba73819bd,67fe3acc48c4efe47e7410a3,,,,,,,,,,,,,,,,,,,,,,,,,,,,,,,,,,,,,,,,,,,,,,,,,,,,,,,2,0,2,0,1,,,,,,,,,,,,,,,,,,
,,,,,,,,,,,,67d952104d8da4447ab6be2c,001,3,2025-04-15_04h15.54.219,avatar_quest_3AFC_legacy,2022.1.3,Win32,60.24096386,67d952104d8da4447ab6be2c,67fe37cb3bd870bba73819bd,67fe3acc48c4efe47e7410a3,"[""down"",""right"",""left"",""left"",""left"",""left"",""left"",""right"",""right"",""right"",""right"",""left"",""left"",""up"",""right"",""down"",""down""]","[0.5386999999881255,1.130300000011971,2.1298000000119828,2.4423999999761463,2.6976999999881173,2.936600000023873,3.4351000000239083,3.9311999999880527,4.745800000011968,5.336100000023862,6.173199999988128,6.351600000023836,6.665100000023813,7.271100000023921,7.882100000023911,8.210800000012,8.732399999976224]",,calibration,With Brainslug Difficult 2 No Money,7,8.9513,8.9669,3,2,0,FALSE,na,na,na,na,,,,,,,,,,,,,,,,,,,,With Brainslug Difficult 2 No Money,With Brainslug Difficult 1 No Money,down,5.3856,"[""With Brainslug Difficult 1 No Money"",""With Brainslug Difficult 2 With Money""]",,,,,,,,,,0,0,0,0,1,,,,,,,,,,,,,,,,,,,,,,,
,,,,,,,,,,,,67d952104d8da4447ab6be2c,001,3,2025-04-15_04h15.54.219,avatar_quest_3AFC_legacy,2022.1.3,Win32,60.24096386,67d952104d8da4447ab6be2c,67fe37cb3bd870bba73819bd,67fe3acc48c4efe47e7410a3,,,,,,,,,,,,,,,,,,,,,,With Brainslug Difficult 2 No Money,12,images/assets/snowy_original.jpg,learning,20,images/assets/success.jpg,images/assets/gameover.jpg,,,,,,,,,,,,,0,0,0,3,1,,,,,,,,,,,,,,,,,,,,,,,,,,,,,,,,
,,,,,,,,,,,,67d952104d8da4447ab6be2c,001,3,2025-04-15_04h15.54.219,avatar_quest_3AFC_legacy,2022.1.3,Win32,60.24096386,67d952104d8da4447ab6be2c,67fe37cb3bd870bba73819bd,67fe3acc48c4efe47e7410a3,,,,,,,,,,,,,,,,,,,,,,No Brainslug Difficult 1 No Money,6,images/assets/snowy_original.jpg,learning,20,images/assets/success.jpg,images/assets/gameover.jpg,,,,,,,,,,,,,0,1,1,6,1,,,,,,,,,,,,,,,,,,,,,,,,,,,,,,,,
,,,,,,,,,,,,67d952104d8da4447ab6be2c,001,3,2025-04-15_04h15.54.219,avatar_quest_3AFC_legacy,2022.1.3,Win32,60.24096386,67d952104d8da4447ab6be2c,67fe37cb3bd870bba73819bd,67fe3acc48c4efe47e7410a3,,,,,,,,,,,,,,,,,,,,,,With Brainslug No Barriers With Money,0,images/assets/snowy_money.jpg,learning,10,images/assets/success_money.jpg,images/assets/gameover.jpg,,,,,,,,,,,,,0,2,2,4,1,,,,,,,,,,,,,,,,,,,,,,,,,,,,,,,,
,,,,,,,,,,,,67d952104d8da4447ab6be2c,001,3,2025-04-15_04h15.54.219,avatar_quest_3AFC_legacy,2022.1.3,Win32,60.24096386,67d952104d8da4447ab6be2c,67fe37cb3bd870bba73819bd,67fe3acc48c4efe47e7410a3,,,,,,,,,,,,,,,,,,,,,,With Brainslug Difficult 1 With Money,6,images/assets/snowy_money.jpg,learning,20,images/assets/success_money.jpg,images/assets/gameover.jpg,,,,,,,,,,,,,0,3,3,0,1,,,,,,,,,,,,,,,,,,,,,,,,,,,,,,,,
,,,,,,,,,,,,67d952104d8da4447ab6be2c,001,3,2025-04-15_04h15.54.219,avatar_quest_3AFC_legacy,2022.1.3,Win32,60.24096386,67d952104d8da4447ab6be2c,67fe37cb3bd870bba73819bd,67fe3acc48c4efe47e7410a3,,,,,,,,,,,,,,,,,,,,,,With Brainslug Difficult 2 With Money,12,images/assets/snowy_money.jpg,learning,20,images/assets/success_money.jpg,images/assets/gameover.jpg,,,,,,,,,,,,,0,4,4,2,1,,,,,,,,,,,,,,,,,,,,,,,,,,,,,,,,
,,,,,,,,,,,,67d952104d8da4447ab6be2c,001,3,2025-04-15_04h15.54.219,avatar_quest_3AFC_legacy,2022.1.3,Win32,60.24096386,67d952104d8da4447ab6be2c,67fe37cb3bd870bba73819bd,67fe3acc48c4efe47e7410a3,,,,,,,,,,,,,,,,,,,,,,No Brainslug No Barriers No Money,0,images/assets/snowy_original.jpg,learning,10,images/assets/success.jpg,images/assets/gameover.jpg,,,,,,,,,,,,,0,5,5,10,1,,,,,,,,,,,,,,,,,,,,,,,,,,,,,,,,
,,,,,,,,,,,,67d952104d8da4447ab6be2c,001,3,2025-04-15_04h15.54.219,avatar_quest_3AFC_legacy,2022.1.3,Win32,60.24096386,67d952104d8da4447ab6be2c,67fe37cb3bd870bba73819bd,67fe3acc48c4efe47e7410a3,,,,,,,,,,,,,,,,,,,,,,With Brainslug Difficult 1 No Money,6,images/assets/snowy_original.jpg,learning,20,images/assets/success.jpg,images/assets/gameover.jpg,,,,,,,,,,,,,0,6,6,1,1,,,,,,,,,,,,,,,,,,,,,,,,,,,,,,,,
,,,,,,,,,,,,67d952104d8da4447ab6be2c,001,3,2025-04-15_04h15.54.219,avatar_quest_3AFC_legacy,2022.1.3,Win32,60.24096386,67d952104d8da4447ab6be2c,67fe37cb3bd870bba73819bd,67fe3acc48c4efe47e7410a3,,,,,,,,,,,,,,,,,,,,,,With Brainslug No Barriers No Money,0,images/assets/snowy_original.jpg,learning,10,images/assets/success.jpg,images/assets/gameover.jpg,,,,,,,,,,,,,0,7,7,5,1,,,,,,,,,,,,,,,,,,,,,,,,,,,,,,,,
,,,,,,,,,,,,67d952104d8da4447ab6be2c,001,3,2025-04-15_04h15.54.219,avatar_quest_3AFC_legacy,2022.1.3,Win32,60.24096386,67d952104d8da4447ab6be2c,67fe37cb3bd870bba73819bd,67fe3acc48c4efe47e7410a3,,,,,,,,,,,,,,,,,,,,,,No Brainslug Difficult 2 No Money,12,images/assets/snowy_original.jpg,learning,20,images/assets/success.jpg,images/assets/gameover.jpg,,,,,,,,,,,,,0,8,8,8,1,,,,,,,,,,,,,,,,,,,,,,,,,,,,,,,,
,,,,,,,,,,,,67d952104d8da4447ab6be2c,001,3,2025-04-15_04h15.54.219,avatar_quest_3AFC_legacy,2022.1.3,Win32,60.24096386,67d952104d8da4447ab6be2c,67fe37cb3bd870bba73819bd,67fe3acc48c4efe47e7410a3,,,,,,,,,,,,,,,,,,,,,,No Brainslug Difficult 2 With Money,12,images/assets/snowy_money.jpg,learning,20,images/assets/success_money.jpg,images/assets/gameover.jpg,,,,,,,,,,,,,0,9,9,7,1,,,,,,,,,,,,,,,,,,,,,,,,,,,,,,,,
,,,,,,,,,,,,67d952104d8da4447ab6be2c,001,3,2025-04-15_04h15.54.219,avatar_quest_3AFC_legacy,2022.1.3,Win32,60.24096386,67d952104d8da4447ab6be2c,67fe37cb3bd870bba73819bd,67fe3acc48c4efe47e7410a3,,,,,,,,,,,,,,,,,,,,,,No Brainslug No Barriers With Money,0,images/assets/snowy_money.jpg,learning,10,images/assets/success_money.jpg,images/assets/gameover.jpg,,,,,,,,,,,,,0,10,10,9,1,,,,,,,,,,,,,,,,,,,,,,,,,,,,,,,,
,,,,,,,,,,,,67d952104d8da4447ab6be2c,001,3,2025-04-15_04h15.54.219,avatar_quest_3AFC_legacy,2022.1.3,Win32,60.24096386,67d952104d8da4447ab6be2c,67fe37cb3bd870bba73819bd,67fe3acc48c4efe47e7410a3,,,,,,,,,,,,,,,,,,,,,,,,,,,,,,,,,,,,,,,,,,,,,,,,,,,,,,,3,0,3,0,1,,,,,,,,,,,,,,,,,,
,,,,,,,,,,,,67d952104d8da4447ab6be2c,001,3,2025-04-15_04h15.54.219,avatar_quest_3AFC_legacy,2022.1.3,Win32,60.24096386,67d952104d8da4447ab6be2c,67fe37cb3bd870bba73819bd,67fe3acc48c4efe47e7410a3,,,,,,,,,,,,,,,,,,,,,,With Brainslug Difficult 1 No Money,6,images/assets/snowy_original.jpg,learning,20,images/assets/success.jpg,images/assets/gameover.jpg,,,,,,,,With Brainslug Difficult 2 No Money,With Brainslug Difficult 1 No Money,down,1.2173,"[""With Brainslug Difficult 1 No Money"",""With Brainslug Difficult 2 With Money""]",0,0,0,1,1,,,,,,,,,,,,,,,,,,,,,,,,,,,,,,,,
,,,,,,,,,,,,67d952104d8da4447ab6be2c,001,3,2025-04-15_04h15.54.219,avatar_quest_3AFC_legacy,2022.1.3,Win32,60.24096386,67d952104d8da4447ab6be2c,67fe37cb3bd870bba73819bd,67fe3acc48c4efe47e7410a3,"[""right"",""left"",""right"",""right"",""left"",""left"",""right"",""right"",""left""]","[0.6530999999641836,1.961500000000001,2.469299999952227,3.488999999999919,4.110899999976141,5.37529999995229,6.2815999999642145,7.9389999999999645,8.533799999952294]",,calibration,With Brainslug Difficult 2 No Money,8,8.9513,8.9652,6,6,0,FALSE,na,na,na,na,,,,,,,,,,,,,,,,,,,,,,,,,,,,,,,,,,0,0,0,0,1,,,,,,,,,,,,,,,,,,,,,,,
,,,,,,,,,,,,67d952104d8da4447ab6be2c,001,3,2025-04-15_04h15.54.219,avatar_quest_3AFC_legacy,2022.1.3,Win32,60.24096386,67d952104d8da4447ab6be2c,67fe37cb3bd870bba73819bd,67fe3acc48c4efe47e7410a3,,,,,,,,,,,,,,,,,,,,,,With Brainslug Difficult 2 No Money,12,images/assets/snowy_original.jpg,learning,20,images/assets/success.jpg,images/assets/gameover.jpg,,,,,,,,,,,,,0,1,1,3,1,,,,,,,,,,,,,,,,,,,,,,,,,,,,,,,,
,,,,,,,,,,,,67d952104d8da4447ab6be2c,001,3,2025-04-15_04h15.54.219,avatar_quest_3AFC_legacy,2022.1.3,Win32,60.24096386,67d952104d8da4447ab6be2c,67fe37cb3bd870bba73819bd,67fe3acc48c4efe47e7410a3,,,,,,,,,,,,,,,,,,,,,,No Brainslug Difficult 1 No Money,6,images/assets/snowy_original.jpg,learning,20,images/assets/success.jpg,images/assets/gameover.jpg,,,,,,,,,,,,,0,2,2,6,1,,,,,,,,,,,,,,,,,,,,,,,,,,,,,,,,
,,,,,,,,,,,,67d952104d8da4447ab6be2c,001,3,2025-04-15_04h15.54.219,avatar_quest_3AFC_legacy,2022.1.3,Win32,60.24096386,67d952104d8da4447ab6be2c,67fe37cb3bd870bba73819bd,67fe3acc48c4efe47e7410a3,,,,,,,,,,,,,,,,,,,,,,With Brainslug No Barriers No Money,0,images/assets/snowy_original.jpg,learning,10,images/assets/success.jpg,images/assets/gameover.jpg,,,,,,,,,,,,,0,3,3,5,1,,,,,,,,,,,,,,,,,,,,,,,,,,,,,,,,
,,,,,,,,,,,,67d952104d8da4447ab6be2c,001,3,2025-04-15_04h15.54.219,avatar_quest_3AFC_legacy,2022.1.3,Win32,60.24096386,67d952104d8da4447ab6be2c,67fe37cb3bd870bba73819bd,67fe3acc48c4efe47e7410a3,,,,,,,,,,,,,,,,,,,,,,With Brainslug Difficult 2 With Money,12,images/assets/snowy_money.jpg,learning,20,images/assets/success_money.jpg,images/assets/gameover.jpg,,,,,,,,,,,,,0,4,4,2,1,,,,,,,,,,,,,,,,,,,,,,,,,,,,,,,,
,,,,,,,,,,,,67d952104d8da4447ab6be2c,001,3,2025-04-15_04h15.54.219,avatar_quest_3AFC_legacy,2022.1.3,Win32,60.24096386,67d952104d8da4447ab6be2c,67fe37cb3bd870bba73819bd,67fe3acc48c4efe47e7410a3,,,,,,,,,,,,,,,,,,,,,,No Brainslug Difficult 2 No Money,12,images/assets/snowy_original.jpg,learning,20,images/assets/success.jpg,images/assets/gameover.jpg,,,,,,,,,,,,,0,5,5,8,1,,,,,,,,,,,,,,,,,,,,,,,,,,,,,,,,
,,,,,,,,,,,,67d952104d8da4447ab6be2c,001,3,2025-04-15_04h15.54.219,avatar_quest_3AFC_legacy,2022.1.3,Win32,60.24096386,67d952104d8da4447ab6be2c,67fe37cb3bd870bba73819bd,67fe3acc48c4efe47e7410a3,,,,,,,,,,,,,,,,,,,,,,No Brainslug Difficult 2 With Money,12,images/assets/snowy_money.jpg,learning,20,images/assets/success_money.jpg,images/assets/gameover.jpg,,,,,,,,,,,,,0,6,6,7,1,,,,,,,,,,,,,,,,,,,,,,,,,,,,,,,,
,,,,,,,,,,,,67d952104d8da4447ab6be2c,001,3,2025-04-15_04h15.54.219,avatar_quest_3AFC_legacy,2022.1.3,Win32,60.24096386,67d952104d8da4447ab6be2c,67fe37cb3bd870bba73819bd,67fe3acc48c4efe47e7410a3,,,,,,,,,,,,,,,,,,,,,,No Brainslug No Barriers No Money,0,images/assets/snowy_original.jpg,learning,10,images/assets/success.jpg,images/assets/gameover.jpg,,,,,,,,,,,,,0,7,7,10,1,,,,,,,,,,,,,,,,,,,,,,,,,,,,,,,,
,,,,,,,,,,,,67d952104d8da4447ab6be2c,001,3,2025-04-15_04h15.54.219,avatar_quest_3AFC_legacy,2022.1.3,Win32,60.24096386,67d952104d8da4447ab6be2c,67fe37cb3bd870bba73819bd,67fe3acc48c4efe47e7410a3,,,,,,,,,,,,,,,,,,,,,,With Brainslug Difficult 1 With Money,6,images/assets/snowy_money.jpg,learning,20,images/assets/success_money.jpg,images/assets/gameover.jpg,,,,,,,,,,,,,0,8,8,0,1,,,,,,,,,,,,,,,,,,,,,,,,,,,,,,,,
,,,,,,,,,,,,67d952104d8da4447ab6be2c,001,3,2025-04-15_04h15.54.219,avatar_quest_3AFC_legacy,2022.1.3,Win32,60.24096386,67d952104d8da4447ab6be2c,67fe37cb3bd870bba73819bd,67fe3acc48c4efe47e7410a3,,,,,,,,,,,,,,,,,,,,,,With Brainslug No Barriers With Money,0,images/assets/snowy_money.jpg,learning,10,images/assets/success_money.jpg,images/assets/gameover.jpg,,,,,,,,,,,,,0,9,9,4,1,,,,,,,,,,,,,,,,,,,,,,,,,,,,,,,,
,,,,,,,,,,,,67d952104d8da4447ab6be2c,001,3,2025-04-15_04h15.54.219,avatar_quest_3AFC_legacy,2022.1.3,Win32,60.24096386,67d952104d8da4447ab6be2c,67fe37cb3bd870bba73819bd,67fe3acc48c4efe47e7410a3,,,,,,,,,,,,,,,,,,,,,,No Brainslug No Barriers With Money,0,images/assets/snowy_money.jpg,learning,10,images/assets/success_money.jpg,images/assets/gameover.jpg,,,,,,,,,,,,,0,10,10,9,1,,,,,,,,,,,,,,,,,,,,,,,,,,,,,,,,
,,,,,,,,,,,,67d952104d8da4447ab6be2c,001,3,2025-04-15_04h15.54.219,avatar_quest_3AFC_legacy,2022.1.3,Win32,60.24096386,67d952104d8da4447ab6be2c,67fe37cb3bd870bba73819bd,67fe3acc48c4efe47e7410a3,,,,,,,,,,,,,,,,,,,,,,,,,,,,,,,,,,,,,,,,,,,,,,,,,,,,,,,4,0,4,0,1,,,,,,,,,,,,,,,,,,
,,,,,,,,,,,,67d952104d8da4447ab6be2c,001,3,2025-04-15_04h15.54.219,avatar_quest_3AFC_legacy,2022.1.3,Win32,60.24096386,67d952104d8da4447ab6be2c,67fe37cb3bd870bba73819bd,67fe3acc48c4efe47e7410a3,,,,,,,,,,,,,,,,,,,,,,With Brainslug No Barriers No Money,0,images/assets/snowy_original.jpg,learning,10,images/assets/success.jpg,images/assets/gameover.jpg,,,,,,,,With Brainslug Difficult 2 No Money,With Brainslug Difficult 1 No Money,down,4.2329,"[""With Brainslug Difficult 1 No Money"",""With Brainslug Difficult 2 With Money""]",0,0,0,5,1,,,,,,,,,,,,,,,,,,,,,,,,,,,,,,,,
,,,,,,,,,,,,67d952104d8da4447ab6be2c,001,3,2025-04-15_04h15.54.219,avatar_quest_3AFC_legacy,2022.1.3,Win32,60.24096386,67d952104d8da4447ab6be2c,67fe37cb3bd870bba73819bd,67fe3acc48c4efe47e7410a3,,,,,,,,,,,,,,,,,,,,,,With Brainslug Difficult 1 With Money,6,images/assets/snowy_money.jpg,learning,20,images/assets/success_money.jpg,images/assets/gameover.jpg,,,,,,,,,,,,,0,1,1,0,1,,,,,,,,,,,,,,,,,,,,,,,,,,,,,,,,
,,,,,,,,,,,,67d952104d8da4447ab6be2c,001,3,2025-04-15_04h15.54.219,avatar_quest_3AFC_legacy,2022.1.3,Win32,60.24096386,67d952104d8da4447ab6be2c,67fe37cb3bd870bba73819bd,67fe3acc48c4efe47e7410a3,,,,,,,,,,,,,,,,,,,,,,No Brainslug Difficult 2 No Money,12,images/assets/snowy_original.jpg,learning,20,images/assets/success.jpg,images/assets/gameover.jpg,,,,,,,,,,,,,0,2,2,8,1,,,,,,,,,,,,,,,,,,,,,,,,,,,,,,,,
,,,,,,,,,,,,67d952104d8da4447ab6be2c,001,3,2025-04-15_04h15.54.219,avatar_quest_3AFC_legacy,2022.1.3,Win32,60.24096386,67d952104d8da4447ab6be2c,67fe37cb3bd870bba73819bd,67fe3acc48c4efe47e7410a3,,,,,,,,,,,,,,,,,,,,,,No Brainslug No Barriers No Money,0,images/assets/snowy_original.jpg,learning,10,images/assets/success.jpg,images/assets/gameover.jpg,,,,,,,,,,,,,0,3,3,10,1,,,,,,,,,,,,,,,,,,,,,,,,,,,,,,,,
,,,,,,,,,,,,67d952104d8da4447ab6be2c,001,3,2025-04-15_04h15.54.219,avatar_quest_3AFC_legacy,2022.1.3,Win32,60.24096386,67d952104d8da4447ab6be2c,67fe37cb3bd870bba73819bd,67fe3acc48c4efe47e7410a3,,,,,,,,,,,,,,,,,,,,,,No Brainslug No Barriers With Money,0,images/assets/snowy_money.jpg,learning,10,images/assets/success_money.jpg,images/assets/gameover.jpg,,,,,,,,,,,,,0,4,4,9,1,,,,,,,,,,,,,,,,,,,,,,,,,,,,,,,,
,,,,,,,,,,,,67d952104d8da4447ab6be2c,001,3,2025-04-15_04h15.54.219,avatar_quest_3AFC_legacy,2022.1.3,Win32,60.24096386,67d952104d8da4447ab6be2c,67fe37cb3bd870bba73819bd,67fe3acc48c4efe47e7410a3,,,,,,,,,,,,,,,,,,,,,,With Brainslug Difficult 1 No Money,6,images/assets/snowy_original.jpg,learning,20,images/assets/success.jpg,images/assets/gameover.jpg,,,,,,,,,,,,,0,5,5,1,1,,,,,,,,,,,,,,,,,,,,,,,,,,,,,,,,
,,,,,,,,,,,,67d952104d8da4447ab6be2c,001,3,2025-04-15_04h15.54.219,avatar_quest_3AFC_legacy,2022.1.3,Win32,60.24096386,67d952104d8da4447ab6be2c,67fe37cb3bd870bba73819bd,67fe3acc48c4efe47e7410a3,,,,,,,,,,,,,,,,,,,,,,With Brainslug No Barriers With Money,0,images/assets/snowy_money.jpg,learning,10,images/assets/success_money.jpg,images/assets/gameover.jpg,,,,,,,,,,,,,0,6,6,4,1,,,,,,,,,,,,,,,,,,,,,,,,,,,,,,,,
,,,,,,,,,,,,67d952104d8da4447ab6be2c,001,3,2025-04-15_04h15.54.219,avatar_quest_3AFC_legacy,2022.1.3,Win32,60.24096386,67d952104d8da4447ab6be2c,67fe37cb3bd870bba73819bd,67fe3acc48c4efe47e7410a3,,,,,,,,,,,,,,,,,,,,,,No Brainslug Difficult 2 With Money,12,images/assets/snowy_money.jpg,learning,20,images/assets/success_money.jpg,images/assets/gameover.jpg,,,,,,,,,,,,,0,7,7,7,1,,,,,,,,,,,,,,,,,,,,,,,,,,,,,,,,
,,,,,,,,,,,,67d952104d8da4447ab6be2c,001,3,2025-04-15_04h15.54.219,avatar_quest_3AFC_legacy,2022.1.3,Win32,60.24096386,67d952104d8da4447ab6be2c,67fe37cb3bd870bba73819bd,67fe3acc48c4efe47e7410a3,,,,,,,,,,,,,,,,,,,,,,With Brainslug Difficult 2 With Money,12,images/assets/snowy_money.jpg,learning,20,images/assets/success_money.jpg,images/assets/gameover.jpg,,,,,,,,,,,,,0,8,8,2,1,,,,,,,,,,,,,,,,,,,,,,,,,,,,,,,,
,,,,,,,,,,,,67d952104d8da4447ab6be2c,001,3,2025-04-15_04h15.54.219,avatar_quest_3AFC_legacy,2022.1.3,Win32,60.24096386,67d952104d8da4447ab6be2c,67fe37cb3bd870bba73819bd,67fe3acc48c4efe47e7410a3,,,,,,,,,,,,,,,,,,,,,,No Brainslug Difficult 1 No Money,6,images/assets/snowy_original.jpg,learning,20,images/assets/success.jpg,images/assets/gameover.jpg,,,,,,,,,,,,,0,9,9,6,1,,,,,,,,,,,,,,,,,,,,,,,,,,,,,,,,
,,,,,,,,,,,,67d952104d8da4447ab6be2c,001,3,2025-04-15_04h15.54.219,avatar_quest_3AFC_legacy,2022.1.3,Win32,60.24096386,67d952104d8da4447ab6be2c,67fe37cb3bd870bba73819bd,67fe3acc48c4efe47e7410a3,"[""left"",""right"",""left"",""right"",""up"",""left"",""right"",""right"",""left"",""left""]","[0.48589999997614086,1.4168000000119036,2.4954999999999927,2.8113000000118973,3.8721999999880836,4.489199999988045,5.2791000000238455,5.9363999999761745,6.74639999997612,7.971300000011979]",,calibration,With Brainslug Difficult 2 No Money,9,8.9513,8.9631,4,2,0,FALSE,na,na,na,na,,,,,,,,,,,,,,,,,,,,,,,,,,,,,,,,,,0,0,0,0,1,,,,,,,,,,,,,,,,,,,,,,,
,,,,,,,,,,,,67d952104d8da4447ab6be2c,001,3,2025-04-15_04h15.54.219,avatar_quest_3AFC_legacy,2022.1.3,Win32,60.24096386,67d952104d8da4447ab6be2c,67fe37cb3bd870bba73819bd,67fe3acc48c4efe47e7410a3,,,,,,,,,,,,,,,,,,,,,,With Brainslug Difficult 2 No Money,12,images/assets/snowy_original.jpg,learning,20,images/assets/success.jpg,images/assets/gameover.jpg,,,,,,,,,,,,,0,10,10,3,1,,,,,,,,,,,,,,,,,,,,,,,,,,,,,,,,
,,,,,,,,,,,,67d952104d8da4447ab6be2c,001,3,2025-04-15_04h15.54.219,avatar_quest_3AFC_legacy,2022.1.3,Win32,60.24096386,67d952104d8da4447ab6be2c,67fe37cb3bd870bba73819bd,67fe3acc48c4efe47e7410a3,,,,,,,,,,,,,,,,,,,,,,,,,,,,,,,,,,,,,,,,,,,,,,,,,,,,,,,5,0,5,0,1,,,,,,,,,,,,,,,,,,
,,,,,,,,,,,,67d952104d8da4447ab6be2c,001,3,2025-04-15_04h15.54.219,avatar_quest_3AFC_legacy,2022.1.3,Win32,60.24096386,67d952104d8da4447ab6be2c,67fe37cb3bd870bba73819bd,67fe3acc48c4efe47e7410a3,,,,,,,,,,,,,,,,,,,,,,With Brainslug Difficult 1 No Money,6,images/assets/snowy_original.jpg,learning,20,images/assets/success.jpg,images/assets/gameover.jpg,,,,,,,,With Brainslug Difficult 2 With Money,With Brainslug Difficult 1 No Money,right,1.6918,"[""With Brainslug Difficult 1 No Money"",""With Brainslug Difficult 2 No Money""]",0,0,0,1,1,,,,,,,,,,,,,,,,,,,,,,,,,,,,,,,,
,,,,,,,,,,,,67d952104d8da4447ab6be2c,001,3,2025-04-15_04h15.54.219,avatar_quest_3AFC_legacy,2022.1.3,Win32,60.24096386,67d952104d8da4447ab6be2c,67fe37cb3bd870bba73819bd,67fe3acc48c4efe47e7410a3,,,,,,,,,,,,,,,,,,,,,,No Brainslug Difficult 2 No Money,12,images/assets/snowy_original.jpg,learning,20,images/assets/success.jpg,images/assets/gameover.jpg,,,,,,,,,,,,,0,1,1,8,1,,,,,,,,,,,,,,,,,,,,,,,,,,,,,,,,
,,,,,,,,,,,,67d952104d8da4447ab6be2c,001,3,2025-04-15_04h15.54.219,avatar_quest_3AFC_legacy,2022.1.3,Win32,60.24096386,67d952104d8da4447ab6be2c,67fe37cb3bd870bba73819bd,67fe3acc48c4efe47e7410a3,,,,,,,,,,,,,,,,,,,,,,No Brainslug No Barriers With Money,0,images/assets/snowy_money.jpg,learning,10,images/assets/success_money.jpg,images/assets/gameover.jpg,,,,,,,,,,,,,0,2,2,9,1,,,,,,,,,,,,,,,,,,,,,,,,,,,,,,,,
,,,,,,,,,,,,67d952104d8da4447ab6be2c,001,3,2025-04-15_04h15.54.219,avatar_quest_3AFC_legacy,2022.1.3,Win32,60.24096386,67d952104d8da4447ab6be2c,67fe37cb3bd870bba73819bd,67fe3acc48c4efe47e7410a3,,,,,,,,,,,,,,,,,,,,,,No Brainslug Difficult 2 With Money,12,images/assets/snowy_money.jpg,learning,20,images/assets/success_money.jpg,images/assets/gameover.jpg,,,,,,,,,,,,,0,3,3,7,1,,,,,,,,,,,,,,,,,,,,,,,,,,,,,,,,
,,,,,,,,,,,,67d952104d8da4447ab6be2c,001,3,2025-04-15_04h15.54.219,avatar_quest_3AFC_legacy,2022.1.3,Win32,60.24096386,67d952104d8da4447ab6be2c,67fe37cb3bd870bba73819bd,67fe3acc48c4efe47e7410a3,,,,,,,,,,,,,,,,,,,,,,With Brainslug Difficult 1 With Money,6,images/assets/snowy_money.jpg,learning,20,images/assets/success_money.jpg,images/assets/gameover.jpg,,,,,,,,,,,,,0,4,4,0,1,,,,,,,,,,,,,,,,,,,,,,,,,,,,,,,,
,,,,,,,,,,,,67d952104d8da4447ab6be2c,001,3,2025-04-15_04h15.54.219,avatar_quest_3AFC_legacy,2022.1.3,Win32,60.24096386,67d952104d8da4447ab6be2c,67fe37cb3bd870bba73819bd,67fe3acc48c4efe47e7410a3,,,,,,,,,,,,,,,,,,,,,,No Brainslug No Barriers No Money,0,images/assets/snowy_original.jpg,learning,10,images/assets/success.jpg,images/assets/gameover.jpg,,,,,,,,,,,,,0,5,5,10,1,,,,,,,,,,,,,,,,,,,,,,,,,,,,,,,,
,,,,,,,,,,,,67d952104d8da4447ab6be2c,001,3,2025-04-15_04h15.54.219,avatar_quest_3AFC_legacy,2022.1.3,Win32,60.24096386,67d952104d8da4447ab6be2c,67fe37cb3bd870bba73819bd,67fe3acc48c4efe47e7410a3,,,,,,,,,,,,,,,,,,,,,,With Brainslug No Barriers No Money,0,images/assets/snowy_original.jpg,learning,10,images/assets/success.jpg,images/assets/gameover.jpg,,,,,,,,,,,,,0,6,6,5,1,,,,,,,,,,,,,,,,,,,,,,,,,,,,,,,,
,,,,,,,,,,,,67d952104d8da4447ab6be2c,001,3,2025-04-15_04h15.54.219,avatar_quest_3AFC_legacy,2022.1.3,Win32,60.24096386,67d952104d8da4447ab6be2c,67fe37cb3bd870bba73819bd,67fe3acc48c4efe47e7410a3,,,,,,,,,,,,,,,,,,,,,,With Brainslug Difficult 2 No Money,12,images/assets/snowy_original.jpg,learning,20,images/assets/success.jpg,images/assets/gameover.jpg,,,,,,,,,,,,,0,7,7,3,1,,,,,,,,,,,,,,,,,,,,,,,,,,,,,,,,
,,,,,,,,,,,,67d952104d8da4447ab6be2c,001,3,2025-04-15_04h15.54.219,avatar_quest_3AFC_legacy,2022.1.3,Win32,60.24096386,67d952104d8da4447ab6be2c,67fe37cb3bd870bba73819bd,67fe3acc48c4efe47e7410a3,,,,,,,,,,,,,,,,,,,,,,No Brainslug Difficult 1 No Money,6,images/assets/snowy_original.jpg,learning,20,images/assets/success.jpg,images/assets/gameover.jpg,,,,,,,,,,,,,0,8,8,6,1,,,,,,,,,,,,,,,,,,,,,,,,,,,,,,,,
,,,,,,,,,,,,67d952104d8da4447ab6be2c,001,3,2025-04-15_04h15.54.219,avatar_quest_3AFC_legacy,2022.1.3,Win32,60.24096386,67d952104d8da4447ab6be2c,67fe37cb3bd870bba73819bd,67fe3acc48c4efe47e7410a3,,,,,,,,,,,,,,,,,,,,,,With Brainslug No Barriers With Money,0,images/assets/snowy_money.jpg,learning,10,images/assets/success_money.jpg,images/assets/gameover.jpg,,,,,,,,,,,,,0,9,9,4,1,,,,,,,,,,,,,,,,,,,,,,,,,,,,,,,,
,,,,,,,,,,,,67d952104d8da4447ab6be2c,001,3,2025-04-15_04h15.54.219,avatar_quest_3AFC_legacy,2022.1.3,Win32,60.24096386,67d952104d8da4447ab6be2c,67fe37cb3bd870bba73819bd,67fe3acc48c4efe47e7410a3,"[""right"",""right"",""right"",""right"",""right"",""right"",""right"",""right"",""right"",""left"",""left"",""right"",""left""]","[0.5051999999881218,0.8440000000000509,1.0713999999761654,1.4206999999881873,1.7103999999761754,2.50180000001194,2.8375999999642545,3.1090999999643145,4.314500000000066,7.022300000012024,7.46759999996425,8.226699999988114,8.819000000000074]",,calibration,With Brainslug Difficult 2 With Money,10,8.9513,8.9663,3,3,0,FALSE,na,na,na,na,,,,,,,,,,,,,,,,,,,,,,,,,,,,,,,,,,0,0,0,0,1,,,,,,,,,,,,,,,,,,,,,,,
,,,,,,,,,,,,67d952104d8da4447ab6be2c,001,3,2025-04-15_04h15.54.219,avatar_quest_3AFC_legacy,2022.1.3,Win32,60.24096386,67d952104d8da4447ab6be2c,67fe37cb3bd870bba73819bd,67fe3acc48c4efe47e7410a3,,,,,,,,,,,,,,,,,,,,,,With Brainslug Difficult 2 With Money,12,images/assets/snowy_money.jpg,learning,20,images/assets/success_money.jpg,images/assets/gameover.jpg,,,,,,,,,,,,,0,10,10,2,1,,,,,,,,,,,,,,,,,,,,,,,,,,,,,,,,
,,,,,,,,,,,,67d952104d8da4447ab6be2c,001,3,2025-04-15_04h15.54.219,avatar_quest_3AFC_legacy,2022.1.3,Win32,60.24096386,67d952104d8da4447ab6be2c,67fe37cb3bd870bba73819bd,67fe3acc48c4efe47e7410a3,,,,,,,,,,,,,,,,,,,,,,,,,,,,,,,,,,,,,,,,,,,,,,,,,,,,,,,6,0,6,0,1,,,,,,,,,,,,,,,,,,
,,,,,,,,,,,,67d952104d8da4447ab6be2c,001,3,2025-04-15_04h15.54.219,avatar_quest_3AFC_legacy,2022.1.3,Win32,60.24096386,67d952104d8da4447ab6be2c,67fe37cb3bd870bba73819bd,67fe3acc48c4efe47e7410a3,,,,,,,,,,,,,,,,,,,,,,No Brainslug No Barriers No Money,0,images/assets/snowy_original.jpg,learning,10,images/assets/success.jpg,images/assets/gameover.jpg,,,,,,,,With Brainslug Difficult 2 No Money,With Brainslug Difficult 1 No Money,down,1.2643,"[""With Brainslug Difficult 1 No Money"",""With Brainslug Difficult 2 With Money""]",0,0,0,10,1,,,,,,,,,,,,,,,,,,,,,,,,,,,,,,,,
,,,,,,,,,,,,67d952104d8da4447ab6be2c,001,3,2025-04-15_04h15.54.219,avatar_quest_3AFC_legacy,2022.1.3,Win32,60.24096386,67d952104d8da4447ab6be2c,67fe37cb3bd870bba73819bd,67fe3acc48c4efe47e7410a3,,,,,,,,,,,,,,,,,,,,,,No Brainslug Difficult 2 No Money,12,images/assets/snowy_original.jpg,learning,20,images/assets/success.jpg,images/assets/gameover.jpg,,,,,,,,,,,,,0,1,1,8,1,,,,,,,,,,,,,,,,,,,,,,,,,,,,,,,,
,,,,,,,,,,,,67d952104d8da4447ab6be2c,001,3,2025-04-15_04h15.54.219,avatar_quest_3AFC_legacy,2022.1.3,Win32,60.24096386,67d952104d8da4447ab6be2c,67fe37cb3bd870bba73819bd,67fe3acc48c4efe47e7410a3,,,,,,,,,,,,,,,,,,,,,,With Brainslug Difficult 1 With Money,6,images/assets/snowy_money.jpg,learning,20,images/assets/success_money.jpg,images/assets/gameover.jpg,,,,,,,,,,,,,0,2,2,0,1,,,,,,,,,,,,,,,,,,,,,,,,,,,,,,,,
,,,,,,,,,,,,67d952104d8da4447ab6be2c,001,3,2025-04-15_04h15.54.219,avatar_quest_3AFC_legacy,2022.1.3,Win32,60.24096386,67d952104d8da4447ab6be2c,67fe37cb3bd870bba73819bd,67fe3acc48c4efe47e7410a3,,,,,,,,,,,,,,,,,,,,,,No Brainslug Difficult 2 With Money,12,images/assets/snowy_money.jpg,learning,20,images/assets/success_money.jpg,images/assets/gameover.jpg,,,,,,,,,,,,,0,3,3,7,1,,,,,,,,,,,,,,,,,,,,,,,,,,,,,,,,
,,,,,,,,,,,,67d952104d8da4447ab6be2c,001,3,2025-04-15_04h15.54.219,avatar_quest_3AFC_legacy,2022.1.3,Win32,60.24096386,67d952104d8da4447ab6be2c,67fe37cb3bd870bba73819bd,67fe3acc48c4efe47e7410a3,,,,,,,,,,,,,,,,,,,,,,With Brainslug Difficult 1 No Money,6,images/assets/snowy_original.jpg,learning,20,images/assets/success.jpg,images/assets/gameover.jpg,,,,,,,,,,,,,0,4,4,1,1,,,,,,,,,,,,,,,,,,,,,,,,,,,,,,,,
,,,,,,,,,,,,67d952104d8da4447ab6be2c,001,3,2025-04-15_04h15.54.219,avatar_quest_3AFC_legacy,2022.1.3,Win32,60.24096386,67d952104d8da4447ab6be2c,67fe37cb3bd870bba73819bd,67fe3acc48c4efe47e7410a3,,,,,,,,,,,,,,,,,,,,,,With Brainslug Difficult 2 With Money,12,images/assets/snowy_money.jpg,learning,20,images/assets/success_money.jpg,images/assets/gameover.jpg,,,,,,,,,,,,,0,5,5,2,1,,,,,,,,,,,,,,,,,,,,,,,,,,,,,,,,
,,,,,,,,,,,,67d952104d8da4447ab6be2c,001,3,2025-04-15_04h15.54.219,avatar_quest_3AFC_legacy,2022.1.3,Win32,60.24096386,67d952104d8da4447ab6be2c,67fe37cb3bd870bba73819bd,67fe3acc48c4efe47e7410a3,,,,,,,,,,,,,,,,,,,,,,No Brainslug No Barriers With Money,0,images/assets/snowy_money.jpg,learning,10,images/assets/success_money.jpg,images/assets/gameover.jpg,,,,,,,,,,,,,0,6,6,9,1,,,,,,,,,,,,,,,,,,,,,,,,,,,,,,,,
,,,,,,,,,,,,67d952104d8da4447ab6be2c,001,3,2025-04-15_04h15.54.219,avatar_quest_3AFC_legacy,2022.1.3,Win32,60.24096386,67d952104d8da4447ab6be2c,67fe37cb3bd870bba73819bd,67fe3acc48c4efe47e7410a3,,,,,,,,,,,,,,,,,,,,,,No Brainslug Difficult 1 No Money,6,images/assets/snowy_original.jpg,learning,20,images/assets/success.jpg,images/assets/gameover.jpg,,,,,,,,,,,,,0,7,7,6,1,,,,,,,,,,,,,,,,,,,,,,,,,,,,,,,,
,,,,,,,,,,,,67d952104d8da4447ab6be2c,001,3,2025-04-15_04h15.54.219,avatar_quest_3AFC_legacy,2022.1.3,Win32,60.24096386,67d952104d8da4447ab6be2c,67fe37cb3bd870bba73819bd,67fe3acc48c4efe47e7410a3,,,,,,,,,,,,,,,,,,,,,,With Brainslug No Barriers No Money,0,images/assets/snowy_original.jpg,learning,10,images/assets/success.jpg,images/assets/gameover.jpg,,,,,,,,,,,,,0,8,8,5,1,,,,,,,,,,,,,,,,,,,,,,,,,,,,,,,,
,,,,,,,,,,,,67d952104d8da4447ab6be2c,001,3,2025-04-15_04h15.54.219,avatar_quest_3AFC_legacy,2022.1.3,Win32,60.24096386,67d952104d8da4447ab6be2c,67fe37cb3bd870bba73819bd,67fe3acc48c4efe47e7410a3,"[""left"",""right"",""right"",""left"",""left"",""right""]","[0.469799999952329,1.6340000000000146,2.5670000000000073,3.056799999952318,4.3821999999880745,5.579699999988179]",,calibration,With Brainslug Difficult 2 No Money,11,8.9513,8.9569,3,2,0,FALSE,na,na,na,na,,,,,,,,,,,,,,,,,,,,,,,,,,,,,,,,,,0,0,0,0,1,,,,,,,,,,,,,,,,,,,,,,,
,,,,,,,,,,,,67d952104d8da4447ab6be2c,001,3,2025-04-15_04h15.54.219,avatar_quest_3AFC_legacy,2022.1.3,Win32,60.24096386,67d952104d8da4447ab6be2c,67fe37cb3bd870bba73819bd,67fe3acc48c4efe47e7410a3,,,,,,,,,,,,,,,,,,,,,,With Brainslug Difficult 2 No Money,12,images/assets/snowy_original.jpg,learning,20,images/assets/success.jpg,images/assets/gameover.jpg,,,,,,,,,,,,,0,9,9,3,1,,,,,,,,,,,,,,,,,,,,,,,,,,,,,,,,
,,,,,,,,,,,,67d952104d8da4447ab6be2c,001,3,2025-04-15_04h15.54.219,avatar_quest_3AFC_legacy,2022.1.3,Win32,60.24096386,67d952104d8da4447ab6be2c,67fe37cb3bd870bba73819bd,67fe3acc48c4efe47e7410a3,,,,,,,,,,,,,,,,,,,,,,With Brainslug No Barriers With Money,0,images/assets/snowy_money.jpg,learning,10,images/assets/success_money.jpg,images/assets/gameover.jpg,,,,,,,,,,,,,0,10,10,4,1,,,,,,,,,,,,,,,,,,,,,,,,,,,,,,,,
,,,,,,,,,,,,67d952104d8da4447ab6be2c,001,3,2025-04-15_04h15.54.219,avatar_quest_3AFC_legacy,2022.1.3,Win32,60.24096386,67d952104d8da4447ab6be2c,67fe37cb3bd870bba73819bd,67fe3acc48c4efe47e7410a3,,,,,,,,,,,,,,,,,,,,,,,,,,,,,,,,,,,,,,,,,,,,,,,,,,,,,,,7,0,7,0,1,,,,,,,,,,,,,,,,,,
,,,,,,,,,,,,67d952104d8da4447ab6be2c,001,3,2025-04-15_04h15.54.219,avatar_quest_3AFC_legacy,2022.1.3,Win32,60.24096386,67d952104d8da4447ab6be2c,67fe37cb3bd870bba73819bd,67fe3acc48c4efe47e7410a3,"[""right"",""right"",""right"",""left"",""left"",""up"",""down""]","[0.4597999999523381,0.7975999999642909,1.022699999988049,1.8190000000000737,2.6710999999642127,4.81639999997617,5.382399999976201]",,calibration,With Brainslug Difficult 2 No Money,12,8.9513,8.9544,1,1,0,FALSE,na,na,na,na,,,,,,,,,,,,,,,,,,,,With Brainslug Difficult 2 No Money,With Brainslug Difficult 1 No Money,down,2.8087,"[""With Brainslug Difficult 1 No Money"",""With Brainslug Difficult 2 With Money""]",,,,,,,,,,0,0,0,0,1,,,,,,,,,,,,,,,,,,,,,,,
,,,,,,,,,,,,67d952104d8da4447ab6be2c,001,3,2025-04-15_04h15.54.219,avatar_quest_3AFC_legacy,2022.1.3,Win32,60.24096386,67d952104d8da4447ab6be2c,67fe37cb3bd870bba73819bd,67fe3acc48c4efe47e7410a3,,,,,,,,,,,,,,,,,,,,,,With Brainslug Difficult 2 No Money,12,images/assets/snowy_original.jpg,learning,20,images/assets/success.jpg,images/assets/gameover.jpg,,,,,,,,,,,,,0,0,0,3,1,,,,,,,,,,,,,,,,,,,,,,,,,,,,,,,,
,,,,,,,,,,,,67d952104d8da4447ab6be2c,001,3,2025-04-15_04h15.54.219,avatar_quest_3AFC_legacy,2022.1.3,Win32,60.24096386,67d952104d8da4447ab6be2c,67fe37cb3bd870bba73819bd,67fe3acc48c4efe47e7410a3,,,,,,,,,,,,,,,,,,,,,,With Brainslug No Barriers No Money,0,images/assets/snowy_original.jpg,learning,10,images/assets/success.jpg,images/assets/gameover.jpg,,,,,,,,,,,,,0,1,1,5,1,,,,,,,,,,,,,,,,,,,,,,,,,,,,,,,,
,,,,,,,,,,,,67d952104d8da4447ab6be2c,001,3,2025-04-15_04h15.54.219,avatar_quest_3AFC_legacy,2022.1.3,Win32,60.24096386,67d952104d8da4447ab6be2c,67fe37cb3bd870bba73819bd,67fe3acc48c4efe47e7410a3,,,,,,,,,,,,,,,,,,,,,,No Brainslug Difficult 1 No Money,6,images/assets/snowy_original.jpg,learning,20,images/assets/success.jpg,images/assets/gameover.jpg,,,,,,,,,,,,,0,2,2,6,1,,,,,,,,,,,,,,,,,,,,,,,,,,,,,,,,
,,,,,,,,,,,,67d952104d8da4447ab6be2c,001,3,2025-04-15_04h15.54.219,avatar_quest_3AFC_legacy,2022.1.3,Win32,60.24096386,67d952104d8da4447ab6be2c,67fe37cb3bd870bba73819bd,67fe3acc48c4efe47e7410a3,,,,,,,,,,,,,,,,,,,,,,With Brainslug Difficult 1 No Money,6,images/assets/snowy_original.jpg,learning,20,images/assets/success.jpg,images/assets/gameover.jpg,,,,,,,,,,,,,0,3,3,1,1,,,,,,,,,,,,,,,,,,,,,,,,,,,,,,,,
,,,,,,,,,,,,67d952104d8da4447ab6be2c,001,3,2025-04-15_04h15.54.219,avatar_quest_3AFC_legacy,2022.1.3,Win32,60.24096386,67d952104d8da4447ab6be2c,67fe37cb3bd870bba73819bd,67fe3acc48c4efe47e7410a3,,,,,,,,,,,,,,,,,,,,,,No Brainslug Difficult 2 No Money,12,images/assets/snowy_original.jpg,learning,20,images/assets/success.jpg,images/assets/gameover.jpg,,,,,,,,,,,,,0,4,4,8,1,,,,,,,,,,,,,,,,,,,,,,,,,,,,,,,,
,,,,,,,,,,,,67d952104d8da4447ab6be2c,001,3,2025-04-15_04h15.54.219,avatar_quest_3AFC_legacy,2022.1.3,Win32,60.24096386,67d952104d8da4447ab6be2c,67fe37cb3bd870bba73819bd,67fe3acc48c4efe47e7410a3,,,,,,,,,,,,,,,,,,,,,,No Brainslug No Barriers No Money,0,images/assets/snowy_original.jpg,learning,10,images/assets/success.jpg,images/assets/gameover.jpg,,,,,,,,,,,,,0,5,5,10,1,,,,,,,,,,,,,,,,,,,,,,,,,,,,,,,,
,,,,,,,,,,,,67d952104d8da4447ab6be2c,001,3,2025-04-15_04h15.54.219,avatar_quest_3AFC_legacy,2022.1.3,Win32,60.24096386,67d952104d8da4447ab6be2c,67fe37cb3bd870bba73819bd,67fe3acc48c4efe47e7410a3,,,,,,,,,,,,,,,,,,,,,,No Brainslug No Barriers With Money,0,images/assets/snowy_money.jpg,learning,10,images/assets/success_money.jpg,images/assets/gameover.jpg,,,,,,,,,,,,,0,6,6,9,1,,,,,,,,,,,,,,,,,,,,,,,,,,,,,,,,
,,,,,,,,,,,,67d952104d8da4447ab6be2c,001,3,2025-04-15_04h15.54.219,avatar_quest_3AFC_legacy,2022.1.3,Win32,60.24096386,67d952104d8da4447ab6be2c,67fe37cb3bd870bba73819bd,67fe3acc48c4efe47e7410a3,,,,,,,,,,,,,,,,,,,,,,With Brainslug Difficult 2 With Money,12,images/assets/snowy_money.jpg,learning,20,images/assets/success_money.jpg,images/assets/gameover.jpg,,,,,,,,,,,,,0,7,7,2,1,,,,,,,,,,,,,,,,,,,,,,,,,,,,,,,,
,,,,,,,,,,,,67d952104d8da4447ab6be2c,001,3,2025-04-15_04h15.54.219,avatar_quest_3AFC_legacy,2022.1.3,Win32,60.24096386,67d952104d8da4447ab6be2c,67fe37cb3bd870bba73819bd,67fe3acc48c4efe47e7410a3,,,,,,,,,,,,,,,,,,,,,,No Brainslug Difficult 2 With Money,12,images/assets/snowy_money.jpg,learning,20,images/assets/success_money.jpg,images/assets/gameover.jpg,,,,,,,,,,,,,0,8,8,7,1,,,,,,,,,,,,,,,,,,,,,,,,,,,,,,,,
,,,,,,,,,,,,67d952104d8da4447ab6be2c,001,3,2025-04-15_04h15.54.219,avatar_quest_3AFC_legacy,2022.1.3,Win32,60.24096386,67d952104d8da4447ab6be2c,67fe37cb3bd870bba73819bd,67fe3acc48c4efe47e7410a3,,,,,,,,,,,,,,,,,,,,,,With Brainslug No Barriers With Money,0,images/assets/snowy_money.jpg,learning,10,images/assets/success_money.jpg,images/assets/gameover.jpg,,,,,,,,,,,,,0,9,9,4,1,,,,,,,,,,,,,,,,,,,,,,,,,,,,,,,,
,,,,,,,,,,,,67d952104d8da4447ab6be2c,001,3,2025-04-15_04h15.54.219,avatar_quest_3AFC_legacy,2022.1.3,Win32,60.24096386,67d952104d8da4447ab6be2c,67fe37cb3bd870bba73819bd,67fe3acc48c4efe47e7410a3,,,,,,,,,,,,,,,,,,,,,,With Brainslug Difficult 1 With Money,6,images/assets/snowy_money.jpg,learning,20,images/assets/success_money.jpg,images/assets/gameover.jpg,,,,,,,,,,,,,0,10,10,0,1,,,,,,,,,,,,,,,,,,,,,,,,,,,,,,,,
,,,,,,,,,,,,67d952104d8da4447ab6be2c,001,3,2025-04-15_04h15.54.219,avatar_quest_3AFC_legacy,2022.1.3,Win32,60.24096386,67d952104d8da4447ab6be2c,67fe37cb3bd870bba73819bd,67fe3acc48c4efe47e7410a3,,,,,,,,,,,,,,,,,,,,,,,,,,,,,,,,,,,,,,,,,,,,,,,,,,,,,,,8,0,8,0,1,,,,,,,,,,,,,,,,,,
,,,,,,,,,,,,67d952104d8da4447ab6be2c,001,3,2025-04-15_04h15.54.219,avatar_quest_3AFC_legacy,2022.1.3,Win32,60.24096386,67d952104d8da4447ab6be2c,67fe37cb3bd870bba73819bd,67fe3acc48c4efe47e7410a3,,,,,,,,,,,,,,,,,,,,,,With Brainslug No Barriers No Money,0,images/assets/snowy_original.jpg,learning,10,images/assets/success.jpg,images/assets/gameover.jpg,,,,,,,,With Brainslug Difficult 1 No Money,With Brainslug Difficult 1 No Money,left,1.7713,"[""With Brainslug Difficult 2 No Money"",""With Brainslug Difficult 2 With Money""]",0,0,0,5,1,,,,,,,,,,,,,,,,,,,,,,,,,,,,,,,,
,,,,,,,,,,,,67d952104d8da4447ab6be2c,001,3,2025-04-15_04h15.54.219,avatar_quest_3AFC_legacy,2022.1.3,Win32,60.24096386,67d952104d8da4447ab6be2c,67fe37cb3bd870bba73819bd,67fe3acc48c4efe47e7410a3,,,,,,,,,,,,,,,,,,,,,,No Brainslug No Barriers No Money,0,images/assets/snowy_original.jpg,learning,10,images/assets/success.jpg,images/assets/gameover.jpg,,,,,,,,,,,,,0,1,1,10,1,,,,,,,,,,,,,,,,,,,,,,,,,,,,,,,,
,,,,,,,,,,,,67d952104d8da4447ab6be2c,001,3,2025-04-15_04h15.54.219,avatar_quest_3AFC_legacy,2022.1.3,Win32,60.24096386,67d952104d8da4447ab6be2c,67fe37cb3bd870bba73819bd,67fe3acc48c4efe47e7410a3,,,,,,,,,,,,,,,,,,,,,,With Brainslug Difficult 2 No Money,12,images/assets/snowy_original.jpg,learning,20,images/assets/success.jpg,images/assets/gameover.jpg,,,,,,,,,,,,,0,2,2,3,1,,,,,,,,,,,,,,,,,,,,,,,,,,,,,,,,
,,,,,,,,,,,,67d952104d8da4447ab6be2c,001,3,2025-04-15_04h15.54.219,avatar_quest_3AFC_legacy,2022.1.3,Win32,60.24096386,67d952104d8da4447ab6be2c,67fe37cb3bd870bba73819bd,67fe3acc48c4efe47e7410a3,,,,,,,,,,,,,,,,,,,,,,No Brainslug Difficult 2 With Money,12,images/assets/snowy_money.jpg,learning,20,images/assets/success_money.jpg,images/assets/gameover.jpg,,,,,,,,,,,,,0,3,3,7,1,,,,,,,,,,,,,,,,,,,,,,,,,,,,,,,,
,,,,,,,,,,,,67d952104d8da4447ab6be2c,001,3,2025-04-15_04h15.54.219,avatar_quest_3AFC_legacy,2022.1.3,Win32,60.24096386,67d952104d8da4447ab6be2c,67fe37cb3bd870bba73819bd,67fe3acc48c4efe47e7410a3,,,,,,,,,,,,,,,,,,,,,,No Brainslug Difficult 2 No Money,12,images/assets/snowy_original.jpg,learning,20,images/assets/success.jpg,images/assets/gameover.jpg,,,,,,,,,,,,,0,4,4,8,1,,,,,,,,,,,,,,,,,,,,,,,,,,,,,,,,
,,,,,,,,,,,,67d952104d8da4447ab6be2c,001,3,2025-04-15_04h15.54.219,avatar_quest_3AFC_legacy,2022.1.3,Win32,60.24096386,67d952104d8da4447ab6be2c,67fe37cb3bd870bba73819bd,67fe3acc48c4efe47e7410a3,,,,,,,,,,,,,,,,,,,,,,With Brainslug Difficult 1 With Money,6,images/assets/snowy_money.jpg,learning,20,images/assets/success_money.jpg,images/assets/gameover.jpg,,,,,,,,,,,,,0,5,5,0,1,,,,,,,,,,,,,,,,,,,,,,,,,,,,,,,,
,,,,,,,,,,,,67d952104d8da4447ab6be2c,001,3,2025-04-15_04h15.54.219,avatar_quest_3AFC_legacy,2022.1.3,Win32,60.24096386,67d952104d8da4447ab6be2c,67fe37cb3bd870bba73819bd,67fe3acc48c4efe47e7410a3,,,,,,,,,,,,,,,,,,,,,,With Brainslug Difficult 2 With Money,12,images/assets/snowy_money.jpg,learning,20,images/assets/success_money.jpg,images/assets/gameover.jpg,,,,,,,,,,,,,0,6,6,2,1,,,,,,,,,,,,,,,,,,,,,,,,,,,,,,,,
,,,,,,,,,,,,67d952104d8da4447ab6be2c,001,3,2025-04-15_04h15.54.219,avatar_quest_3AFC_legacy,2022.1.3,Win32,60.24096386,67d952104d8da4447ab6be2c,67fe37cb3bd870bba73819bd,67fe3acc48c4efe47e7410a3,,,,,,,,,,,,,,,,,,,,,,No Brainslug No Barriers With Money,0,images/assets/snowy_money.jpg,learning,10,images/assets/success_money.jpg,images/assets/gameover.jpg,,,,,,,,,,,,,0,7,7,9,1,,,,,,,,,,,,,,,,,,,,,,,,,,,,,,,,
,,,,,,,,,,,,67d952104d8da4447ab6be2c,001,3,2025-04-15_04h15.54.219,avatar_quest_3AFC_legacy,2022.1.3,Win32,60.24096386,67d952104d8da4447ab6be2c,67fe37cb3bd870bba73819bd,67fe3acc48c4efe47e7410a3,,,,,,,,,,,,,,,,,,,,,,With Brainslug No Barriers With Money,0,images/assets/snowy_money.jpg,learning,10,images/assets/success_money.jpg,images/assets/gameover.jpg,,,,,,,,,,,,,0,8,8,4,1,,,,,,,,,,,,,,,,,,,,,,,,,,,,,,,,
,,,,,,,,,,,,67d952104d8da4447ab6be2c,001,3,2025-04-15_04h15.54.219,avatar_quest_3AFC_legacy,2022.1.3,Win32,60.24096386,67d952104d8da4447ab6be2c,67fe37cb3bd870bba73819bd,67fe3acc48c4efe47e7410a3,,,,,,,,,,,,,,,,,,,,,,No Brainslug Difficult 1 No Money,6,images/assets/snowy_original.jpg,learning,20,images/assets/success.jpg,images/assets/gameover.jpg,,,,,,,,,,,,,0,9,9,6,1,,,,,,,,,,,,,,,,,,,,,,,,,,,,,,,,
,,,,,,,,,,,,67d952104d8da4447ab6be2c,001,3,2025-04-15_04h15.54.219,avatar_quest_3AFC_legacy,2022.1.3,Win32,60.24096386,67d952104d8da4447ab6be2c,67fe37cb3bd870bba73819bd,67fe3acc48c4efe47e7410a3,"[""left"",""left"",""right"",""right"",""left"",""left"",""right"",""right"",""right"",""right"",""right"",""right"",""right"",""left"",""left""]","[0.5711000000238755,1.0500000000000682,1.7219000000358164,2.0467000000477356,2.6695000000000846,3.002300000011928,4.167800000011994,4.507100000023911,4.767900000035752,5.023800000011988,5.428800000011961,6.350100000023872,6.825500000000034,7.9155000000000655,8.195700000047736]",,calibration,With Brainslug Difficult 1 No Money,13,8.9513,8.9552,3,3,0,FALSE,na,na,na,na,,,,,,,,,,,,,,,,,,,,,,,,,,,,,,,,,,0,0,0,0,1,,,,,,,,,,,,,,,,,,,,,,,
,,,,,,,,,,,,67d952104d8da4447ab6be2c,001,3,2025-04-15_04h15.54.219,avatar_quest_3AFC_legacy,2022.1.3,Win32,60.24096386,67d952104d8da4447ab6be2c,67fe37cb3bd870bba73819bd,67fe3acc48c4efe47e7410a3,,,,,,,,,,,,,,,,,,,,,,With Brainslug Difficult 1 No Money,6,images/assets/snowy_original.jpg,learning,20,images/assets/success.jpg,images/assets/gameover.jpg,,,,,,,,,,,,,0,10,10,1,1,,,,,,,,,,,,,,,,,,,,,,,,,,,,,,,,
,,,,,,,,,,,,67d952104d8da4447ab6be2c,001,3,2025-04-15_04h15.54.219,avatar_quest_3AFC_legacy,2022.1.3,Win32,60.24096386,67d952104d8da4447ab6be2c,67fe37cb3bd870bba73819bd,67fe3acc48c4efe47e7410a3,,,,,,,,,,,,,,,,,,,,,,,,,,,,,,,,,,,,,,,,,,,,,,,,,,,,,,,9,0,9,0,1,,,,,,,,,,,,,,,,,,
,,,,,,,,,,,,67d952104d8da4447ab6be2c,001,3,2025-04-15_04h15.54.219,avatar_quest_3AFC_legacy,2022.1.3,Win32,60.24096386,67d952104d8da4447ab6be2c,67fe37cb3bd870bba73819bd,67fe3acc48c4efe47e7410a3,,,,,,,,,,,,,,,,,,,,,,With Brainslug Difficult 1 With Money,6,images/assets/snowy_money.jpg,learning,20,images/assets/success_money.jpg,images/assets/gameover.jpg,,,,,,,,With Brainslug Difficult 1 No Money,With Brainslug Difficult 1 No Money,left,0.1103,"[""With Brainslug Difficult 2 No Money"",""With Brainslug Difficult 2 With Money""]",0,0,0,0,1,,,,,,,,,,,,,,,,,,,,,,,,,,,,,,,,
,,,,,,,,,,,,67d952104d8da4447ab6be2c,001,3,2025-04-15_04h15.54.219,avatar_quest_3AFC_legacy,2022.1.3,Win32,60.24096386,67d952104d8da4447ab6be2c,67fe37cb3bd870bba73819bd,67fe3acc48c4efe47e7410a3,"[""left"",""left"",""left"",""right"",""right"",""right"",""left"",""left"",""right"",""right"",""left"",""left""]","[0.5470000000000255,0.8975000000000364,1.8754000000358246,2.441000000000031,2.754000000000019,3.25180000001194,3.868100000023901,4.182000000000016,4.701000000000022,4.942300000011983,5.610100000023863,5.86280000001193]",,calibration,With Brainslug Difficult 1 No Money,14,8.9513,6.5927,7,3,0,TRUE,na,na,na,na,,,,,,,,,,,,,,,,,,,,,,,,,,,,,,,,,,0,0,0,0,1,,,,,,,,,,,,,,,,,,,,,,,
,,,,,,,,,,,,67d952104d8da4447ab6be2c,001,3,2025-04-15_04h15.54.219,avatar_quest_3AFC_legacy,2022.1.3,Win32,60.24096386,67d952104d8da4447ab6be2c,67fe37cb3bd870bba73819bd,67fe3acc48c4efe47e7410a3,,,,,,,,,,,,,,,,,,,,,,With Brainslug Difficult 1 No Money,6,images/assets/snowy_original.jpg,learning,20,images/assets/success.jpg,images/assets/gameover.jpg,,,,,,,,,,,,,0,1,1,1,1,,,,,,,,,,,,,,,,,,,,,,,,,,,,,,,,
,,,,,,,,,,,,67d952104d8da4447ab6be2c,001,3,2025-04-15_04h15.54.219,avatar_quest_3AFC_legacy,2022.1.3,Win32,60.24096386,67d952104d8da4447ab6be2c,67fe37cb3bd870bba73819bd,67fe3acc48c4efe47e7410a3,,,,,,,,,,,,,,,,,,,,,,With Brainslug Difficult 2 No Money,12,images/assets/snowy_original.jpg,learning,20,images/assets/success.jpg,images/assets/gameover.jpg,,,,,,,,,,,,,0,2,2,3,1,,,,,,,,,,,,,,,,,,,,,,,,,,,,,,,,
,,,,,,,,,,,,67d952104d8da4447ab6be2c,001,3,2025-04-15_04h15.54.219,avatar_quest_3AFC_legacy,2022.1.3,Win32,60.24096386,67d952104d8da4447ab6be2c,67fe37cb3bd870bba73819bd,67fe3acc48c4efe47e7410a3,,,,,,,,,,,,,,,,,,,,,,With Brainslug No Barriers No Money,0,images/assets/snowy_original.jpg,learning,10,images/assets/success.jpg,images/assets/gameover.jpg,,,,,,,,,,,,,0,3,3,5,1,,,,,,,,,,,,,,,,,,,,,,,,,,,,,,,,
,,,,,,,,,,,,67d952104d8da4447ab6be2c,001,3,2025-04-15_04h15.54.219,avatar_quest_3AFC_legacy,2022.1.3,Win32,60.24096386,67d952104d8da4447ab6be2c,67fe37cb3bd870bba73819bd,67fe3acc48c4efe47e7410a3,,,,,,,,,,,,,,,,,,,,,,No Brainslug Difficult 1 No Money,6,images/assets/snowy_original.jpg,learning,20,images/assets/success.jpg,images/assets/gameover.jpg,,,,,,,,,,,,,0,4,4,6,1,,,,,,,,,,,,,,,,,,,,,,,,,,,,,,,,
,,,,,,,,,,,,67d952104d8da4447ab6be2c,001,3,2025-04-15_04h15.54.219,avatar_quest_3AFC_legacy,2022.1.3,Win32,60.24096386,67d952104d8da4447ab6be2c,67fe37cb3bd870bba73819bd,67fe3acc48c4efe47e7410a3,,,,,,,,,,,,,,,,,,,,,,With Brainslug No Barriers With Money,0,images/assets/snowy_money.jpg,learning,10,images/assets/success_money.jpg,images/assets/gameover.jpg,,,,,,,,,,,,,0,5,5,4,1,,,,,,,,,,,,,,,,,,,,,,,,,,,,,,,,
,,,,,,,,,,,,67d952104d8da4447ab6be2c,001,3,2025-04-15_04h15.54.219,avatar_quest_3AFC_legacy,2022.1.3,Win32,60.24096386,67d952104d8da4447ab6be2c,67fe37cb3bd870bba73819bd,67fe3acc48c4efe47e7410a3,,,,,,,,,,,,,,,,,,,,,,No Brainslug No Barriers No Money,0,images/assets/snowy_original.jpg,learning,10,images/assets/success.jpg,images/assets/gameover.jpg,,,,,,,,,,,,,0,6,6,10,1,,,,,,,,,,,,,,,,,,,,,,,,,,,,,,,,
,,,,,,,,,,,,67d952104d8da4447ab6be2c,001,3,2025-04-15_04h15.54.219,avatar_quest_3AFC_legacy,2022.1.3,Win32,60.24096386,67d952104d8da4447ab6be2c,67fe37cb3bd870bba73819bd,67fe3acc48c4efe47e7410a3,,,,,,,,,,,,,,,,,,,,,,No Brainslug No Barriers With Money,0,images/assets/snowy_money.jpg,learning,10,images/assets/success_money.jpg,images/assets/gameover.jpg,,,,,,,,,,,,,0,7,7,9,1,,,,,,,,,,,,,,,,,,,,,,,,,,,,,,,,
,,,,,,,,,,,,67d952104d8da4447ab6be2c,001,3,2025-04-15_04h15.54.219,avatar_quest_3AFC_legacy,2022.1.3,Win32,60.24096386,67d952104d8da4447ab6be2c,67fe37cb3bd870bba73819bd,67fe3acc48c4efe47e7410a3,,,,,,,,,,,,,,,,,,,,,,No Brainslug Difficult 2 No Money,12,images/assets/snowy_original.jpg,learning,20,images/assets/success.jpg,images/assets/gameover.jpg,,,,,,,,,,,,,0,8,8,8,1,,,,,,,,,,,,,,,,,,,,,,,,,,,,,,,,
,,,,,,,,,,,,67d952104d8da4447ab6be2c,001,3,2025-04-15_04h15.54.219,avatar_quest_3AFC_legacy,2022.1.3,Win32,60.24096386,67d952104d8da4447ab6be2c,67fe37cb3bd870bba73819bd,67fe3acc48c4efe47e7410a3,,,,,,,,,,,,,,,,,,,,,,No Brainslug Difficult 2 With Money,12,images/assets/snowy_money.jpg,learning,20,images/assets/success_money.jpg,images/assets/gameover.jpg,,,,,,,,,,,,,0,9,9,7,1,,,,,,,,,,,,,,,,,,,,,,,,,,,,,,,,
,,,,,,,,,,,,67d952104d8da4447ab6be2c,001,3,2025-04-15_04h15.54.219,avatar_quest_3AFC_legacy,2022.1.3,Win32,60.24096386,67d952104d8da4447ab6be2c,67fe37cb3bd870bba73819bd,67fe3acc48c4efe47e7410a3,,,,,,,,,,,,,,,,,,,,,,With Brainslug Difficult 2 With Money,12,images/assets/snowy_money.jpg,learning,20,images/assets/success_money.jpg,images/assets/gameover.jpg,,,,,,,,,,,,,0,10,10,2,1,,,,,,,,,,,,,,,,,,,,,,,,,,,,,,,,
,,,,,,,,,,,,67d952104d8da4447ab6be2c,001,3,2025-04-15_04h15.54.219,avatar_quest_3AFC_legacy,2022.1.3,Win32,60.24096386,67d952104d8da4447ab6be2c,67fe37cb3bd870bba73819bd,67fe3acc48c4efe47e7410a3,,,,,,,,,,,,,,,,,,,,,,,,,,,,,,,,,,,,,,,,,,,,,,,,,,,,,,,10,0,10,0,1,,,,,,,,,,,,,,,,,,
,,,,,,,,,,,,67d952104d8da4447ab6be2c,001,3,2025-04-15_04h15.54.219,avatar_quest_3AFC_legacy,2022.1.3,Win32,60.24096386,67d952104d8da4447ab6be2c,67fe37cb3bd870bba73819bd,67fe3acc48c4efe47e7410a3,,,,,,,,,,,,,,,,,,,,,,With Brainslug Difficult 2 No Money,12,images/assets/snowy_original.jpg,learning,20,images/assets/success.jpg,images/assets/gameover.jpg,,,,,,,,With Brainslug Difficult 1 No Money,With Brainslug Difficult 1 No Money,left,1.1142,"[""With Brainslug Difficult 2 No Money"",""With Brainslug Difficult 2 With Money""]",0,0,0,3,1,,,,,,,,,,,,,,,,,,,,,,,,,,,,,,,,
,,,,,,,,,,,,67d952104d8da4447ab6be2c,001,3,2025-04-15_04h15.54.219,avatar_quest_3AFC_legacy,2022.1.3,Win32,60.24096386,67d952104d8da4447ab6be2c,67fe37cb3bd870bba73819bd,67fe3acc48c4efe47e7410a3,,,,,,,,,,,,,,,,,,,,,,No Brainslug No Barriers No Money,0,images/assets/snowy_original.jpg,learning,10,images/assets/success.jpg,images/assets/gameover.jpg,,,,,,,,,,,,,0,1,1,10,1,,,,,,,,,,,,,,,,,,,,,,,,,,,,,,,,
,,,,,,,,,,,,67d952104d8da4447ab6be2c,001,3,2025-04-15_04h15.54.219,avatar_quest_3AFC_legacy,2022.1.3,Win32,60.24096386,67d952104d8da4447ab6be2c,67fe37cb3bd870bba73819bd,67fe3acc48c4efe47e7410a3,"[""left"",""left"",""right"",""left"",""left"",""left"",""right"",""left"",""left""]","[0.41529999995225353,0.8086999999881073,1.639799999952288,2.4485999999642445,2.9365000000000236,3.491199999988112,4.226899999976126,5.053999999999974,5.769899999976133]",,calibration,With Brainslug Difficult 1 No Money,15,8.9513,6.5708,7,2,0,TRUE,na,na,na,na,,,,,,,,,,,,,,,,,,,,,,,,,,,,,,,,,,0,0,0,0,1,,,,,,,,,,,,,,,,,,,,,,,
,,,,,,,,,,,,67d952104d8da4447ab6be2c,001,3,2025-04-15_04h15.54.219,avatar_quest_3AFC_legacy,2022.1.3,Win32,60.24096386,67d952104d8da4447ab6be2c,67fe37cb3bd870bba73819bd,67fe3acc48c4efe47e7410a3,,,,,,,,,,,,,,,,,,,,,,With Brainslug Difficult 1 No Money,6,images/assets/snowy_original.jpg,learning,20,images/assets/success.jpg,images/assets/gameover.jpg,,,,,,,,,,,,,0,2,2,1,1,,,,,,,,,,,,,,,,,,,,,,,,,,,,,,,,
,,,,,,,,,,,,67d952104d8da4447ab6be2c,001,3,2025-04-15_04h15.54.219,avatar_quest_3AFC_legacy,2022.1.3,Win32,60.24096386,67d952104d8da4447ab6be2c,67fe37cb3bd870bba73819bd,67fe3acc48c4efe47e7410a3,,,,,,,,,,,,,,,,,,,,,,No Brainslug Difficult 2 With Money,12,images/assets/snowy_money.jpg,learning,20,images/assets/success_money.jpg,images/assets/gameover.jpg,,,,,,,,,,,,,0,3,3,7,1,,,,,,,,,,,,,,,,,,,,,,,,,,,,,,,,
,,,,,,,,,,,,67d952104d8da4447ab6be2c,001,3,2025-04-15_04h15.54.219,avatar_quest_3AFC_legacy,2022.1.3,Win32,60.24096386,67d952104d8da4447ab6be2c,67fe37cb3bd870bba73819bd,67fe3acc48c4efe47e7410a3,,,,,,,,,,,,,,,,,,,,,,No Brainslug Difficult 2 No Money,12,images/assets/snowy_original.jpg,learning,20,images/assets/success.jpg,images/assets/gameover.jpg,,,,,,,,,,,,,0,4,4,8,1,,,,,,,,,,,,,,,,,,,,,,,,,,,,,,,,
,,,,,,,,,,,,67d952104d8da4447ab6be2c,001,3,2025-04-15_04h15.54.219,avatar_quest_3AFC_legacy,2022.1.3,Win32,60.24096386,67d952104d8da4447ab6be2c,67fe37cb3bd870bba73819bd,67fe3acc48c4efe47e7410a3,,,,,,,,,,,,,,,,,,,,,,With Brainslug Difficult 2 With Money,12,images/assets/snowy_money.jpg,learning,20,images/assets/success_money.jpg,images/assets/gameover.jpg,,,,,,,,,,,,,0,5,5,2,1,,,,,,,,,,,,,,,,,,,,,,,,,,,,,,,,
,,,,,,,,,,,,67d952104d8da4447ab6be2c,001,3,2025-04-15_04h15.54.219,avatar_quest_3AFC_legacy,2022.1.3,Win32,60.24096386,67d952104d8da4447ab6be2c,67fe37cb3bd870bba73819bd,67fe3acc48c4efe47e7410a3,,,,,,,,,,,,,,,,,,,,,,No Brainslug Difficult 1 No Money,6,images/assets/snowy_original.jpg,learning,20,images/assets/success.jpg,images/assets/gameover.jpg,,,,,,,,,,,,,0,6,6,6,1,,,,,,,,,,,,,,,,,,,,,,,,,,,,,,,,
,,,,,,,,,,,,67d952104d8da4447ab6be2c,001,3,2025-04-15_04h15.54.219,avatar_quest_3AFC_legacy,2022.1.3,Win32,60.24096386,67d952104d8da4447ab6be2c,67fe37cb3bd870bba73819bd,67fe3acc48c4efe47e7410a3,,,,,,,,,,,,,,,,,,,,,,With Brainslug No Barriers No Money,0,images/assets/snowy_original.jpg,learning,10,images/assets/success.jpg,images/assets/gameover.jpg,,,,,,,,,,,,,0,7,7,5,1,,,,,,,,,,,,,,,,,,,,,,,,,,,,,,,,
,,,,,,,,,,,,67d952104d8da4447ab6be2c,001,3,2025-04-15_04h15.54.219,avatar_quest_3AFC_legacy,2022.1.3,Win32,60.24096386,67d952104d8da4447ab6be2c,67fe37cb3bd870bba73819bd,67fe3acc48c4efe47e7410a3,,,,,,,,,,,,,,,,,,,,,,With Brainslug Difficult 1 With Money,6,images/assets/snowy_money.jpg,learning,20,images/assets/success_money.jpg,images/assets/gameover.jpg,,,,,,,,,,,,,0,8,8,0,1,,,,,,,,,,,,,,,,,,,,,,,,,,,,,,,,
,,,,,,,,,,,,67d952104d8da4447ab6be2c,001,3,2025-04-15_04h15.54.219,avatar_quest_3AFC_legacy,2022.1.3,Win32,60.24096386,67d952104d8da4447ab6be2c,67fe37cb3bd870bba73819bd,67fe3acc48c4efe47e7410a3,,,,,,,,,,,,,,,,,,,,,,With Brainslug No Barriers With Money,0,images/assets/snowy_money.jpg,learning,10,images/assets/success_money.jpg,images/assets/gameover.jpg,,,,,,,,,,,,,0,9,9,4,1,,,,,,,,,,,,,,,,,,,,,,,,,,,,,,,,
,,,,,,,,,,,,67d952104d8da4447ab6be2c,001,3,2025-04-15_04h15.54.219,avatar_quest_3AFC_legacy,2022.1.3,Win32,60.24096386,67d952104d8da4447ab6be2c,67fe37cb3bd870bba73819bd,67fe3acc48c4efe47e7410a3,,,,,,,,,,,,,,,,,,,,,,No Brainslug No Barriers With Money,0,images/assets/snowy_money.jpg,learning,10,images/assets/success_money.jpg,images/assets/gameover.jpg,,,,,,,,,,,,,0,10,10,9,1,,,,,,,,,,,,,,,,,,,,,,,,,,,,,,,,
,,,,,,,,,,,,67d952104d8da4447ab6be2c,001,3,2025-04-15_04h15.54.219,avatar_quest_3AFC_legacy,2022.1.3,Win32,60.24096386,67d952104d8da4447ab6be2c,67fe37cb3bd870bba73819bd,67fe3acc48c4efe47e7410a3,,,,,,,,,,,,,,,,,,,,,,,,,,,,,,,,,,,,,,,,,,,,,,,,,,,,,,,11,0,11,0,1,,,,,,,,,,,,,,,,,,
,,,,,,,,,,,,67d952104d8da4447ab6be2c,001,3,2025-04-15_04h15.54.219,avatar_quest_3AFC_legacy,2022.1.3,Win32,60.24096386,67d952104d8da4447ab6be2c,67fe37cb3bd870bba73819bd,67fe3acc48c4efe47e7410a3,,,,,,,,,,,,,,,,,,,,,,,,,,,,,,,,,,,,,,,,,,,,,,,,,,,,,,,,,,,,0,0,0,0,1,1,With Brainslug Difficult 1 No Money,images/assets/With Brainslug Difficult 1 No Money.png,With Brainslug Difficult 2 No Money,images/assets/With Brainslug Difficult 2 No Money.png,With Brainslug Difficult 2 With Money,images/assets/With Brainslug Difficult 2 With Money.png,Achievement vs. money,,,,,
,,,,,,,,,,,,67d952104d8da4447ab6be2c,001,3,2025-04-15_04h15.54.219,avatar_quest_3AFC_legacy,2022.1.3,Win32,60.24096386,67d952104d8da4447ab6be2c,67fe37cb3bd870bba73819bd,67fe3acc48c4efe47e7410a3,,,,,,,,,,,,,,,,,,,,,,No Brainslug Difficult 2 No Money,12,images/assets/snowy_original.jpg,learning,20,images/assets/success.jpg,images/assets/gameover.jpg,,,,,,,,No Brainslug Difficult 1 No Money,No Brainslug No Barriers No Money,down,0.1699,"[""No Brainslug No Barriers No Money"",""No Brainslug No Barriers With Money""]",0,0,0,8,1,,,,,,,,,,,,,,,,,,,,,,,,,,,,,,,,
,,,,,,,,,,,,67d952104d8da4447ab6be2c,001,3,2025-04-15_04h15.54.219,avatar_quest_3AFC_legacy,2022.1.3,Win32,60.24096386,67d952104d8da4447ab6be2c,67fe37cb3bd870bba73819bd,67fe3acc48c4efe47e7410a3,,,,,,,,,,,,,,,,,,,,,,With Brainslug Difficult 1 With Money,6,images/assets/snowy_money.jpg,learning,20,images/assets/success_money.jpg,images/assets/gameover.jpg,,,,,,,,,,,,,0,1,1,0,1,,,,,,,,,,,,,,,,,,,,,,,,,,,,,,,,
,,,,,,,,,,,,67d952104d8da4447ab6be2c,001,3,2025-04-15_04h15.54.219,avatar_quest_3AFC_legacy,2022.1.3,Win32,60.24096386,67d952104d8da4447ab6be2c,67fe37cb3bd870bba73819bd,67fe3acc48c4efe47e7410a3,,,,,,,,,,,,,,,,,,,,,,With Brainslug No Barriers No Money,0,images/assets/snowy_original.jpg,learning,10,images/assets/success.jpg,images/assets/gameover.jpg,,,,,,,,,,,,,0,2,2,5,1,,,,,,,,,,,,,,,,,,,,,,,,,,,,,,,,
,,,,,,,,,,,,67d952104d8da4447ab6be2c,001,3,2025-04-15_04h15.54.219,avatar_quest_3AFC_legacy,2022.1.3,Win32,60.24096386,67d952104d8da4447ab6be2c,67fe37cb3bd870bba73819bd,67fe3acc48c4efe47e7410a3,,,,,,,,,,,,,,,,,,,,,,No Brainslug Difficult 2 With Money,12,images/assets/snowy_money.jpg,learning,20,images/assets/success_money.jpg,images/assets/gameover.jpg,,,,,,,,,,,,,0,3,3,7,1,,,,,,,,,,,,,,,,,,,,,,,,,,,,,,,,
,,,,,,,,,,,,67d952104d8da4447ab6be2c,001,3,2025-04-15_04h15.54.219,avatar_quest_3AFC_legacy,2022.1.3,Win32,60.24096386,67d952104d8da4447ab6be2c,67fe37cb3bd870bba73819bd,67fe3acc48c4efe47e7410a3,"[""left"",""left"",""right"",""right"",""left"",""left"",""right"",""right"",""left"",""left""]","[0.37490000003583646,0.9116000000238955,1.6279000000357655,1.8439000000357737,2.5611000000238846,3.107200000047783,3.5296000000239474,3.8053000000119255,4.47660000002395,5.034300000011967]",,calibration,No Brainslug Difficult 1 No Money,16,8.9513,5.482,10,0,0,TRUE,na,na,na,na,,,,,,,,,,,,,,,,,,,,,,,,,,,,,,,,,,0,0,0,0,1,,,,,,,,,,,,,,,,,,,,,,,
,,,,,,,,,,,,67d952104d8da4447ab6be2c,001,3,2025-04-15_04h15.54.219,avatar_quest_3AFC_legacy,2022.1.3,Win32,60.24096386,67d952104d8da4447ab6be2c,67fe37cb3bd870bba73819bd,67fe3acc48c4efe47e7410a3,,,,,,,,,,,,,,,,,,,,,,No Brainslug Difficult 1 No Money,6,images/assets/snowy_original.jpg,learning,20,images/assets/success.jpg,images/assets/gameover.jpg,,,,,,,,,,,,,0,4,4,6,1,,,,,,,,,,,,,,,,,,,,,,,,,,,,,,,,
,,,,,,,,,,,,67d952104d8da4447ab6be2c,001,3,2025-04-15_04h15.54.219,avatar_quest_3AFC_legacy,2022.1.3,Win32,60.24096386,67d952104d8da4447ab6be2c,67fe37cb3bd870bba73819bd,67fe3acc48c4efe47e7410a3,,,,,,,,,,,,,,,,,,,,,,With Brainslug Difficult 1 No Money,6,images/assets/snowy_original.jpg,learning,20,images/assets/success.jpg,images/assets/gameover.jpg,,,,,,,,,,,,,0,5,5,1,1,,,,,,,,,,,,,,,,,,,,,,,,,,,,,,,,
,,,,,,,,,,,,67d952104d8da4447ab6be2c,001,3,2025-04-15_04h15.54.219,avatar_quest_3AFC_legacy,2022.1.3,Win32,60.24096386,67d952104d8da4447ab6be2c,67fe37cb3bd870bba73819bd,67fe3acc48c4efe47e7410a3,,,,,,,,,,,,,,,,,,,,,,With Brainslug No Barriers With Money,0,images/assets/snowy_money.jpg,learning,10,images/assets/success_money.jpg,images/assets/gameover.jpg,,,,,,,,,,,,,0,6,6,4,1,,,,,,,,,,,,,,,,,,,,,,,,,,,,,,,,
,,,,,,,,,,,,67d952104d8da4447ab6be2c,001,3,2025-04-15_04h15.54.219,avatar_quest_3AFC_legacy,2022.1.3,Win32,60.24096386,67d952104d8da4447ab6be2c,67fe37cb3bd870bba73819bd,67fe3acc48c4efe47e7410a3,,,,,,,,,,,,,,,,,,,,,,No Brainslug No Barriers No Money,0,images/assets/snowy_original.jpg,learning,10,images/assets/success.jpg,images/assets/gameover.jpg,,,,,,,,,,,,,0,7,7,10,1,,,,,,,,,,,,,,,,,,,,,,,,,,,,,,,,
,,,,,,,,,,,,67d952104d8da4447ab6be2c,001,3,2025-04-15_04h15.54.219,avatar_quest_3AFC_legacy,2022.1.3,Win32,60.24096386,67d952104d8da4447ab6be2c,67fe37cb3bd870bba73819bd,67fe3acc48c4efe47e7410a3,,,,,,,,,,,,,,,,,,,,,,With Brainslug Difficult 2 No Money,12,images/assets/snowy_original.jpg,learning,20,images/assets/success.jpg,images/assets/gameover.jpg,,,,,,,,,,,,,0,8,8,3,1,,,,,,,,,,,,,,,,,,,,,,,,,,,,,,,,
,,,,,,,,,,,,67d952104d8da4447ab6be2c,001,3,2025-04-15_04h15.54.219,avatar_quest_3AFC_legacy,2022.1.3,Win32,60.24096386,67d952104d8da4447ab6be2c,67fe37cb3bd870bba73819bd,67fe3acc48c4efe47e7410a3,,,,,,,,,,,,,,,,,,,,,,With Brainslug Difficult 2 With Money,12,images/assets/snowy_money.jpg,learning,20,images/assets/success_money.jpg,images/assets/gameover.jpg,,,,,,,,,,,,,0,9,9,2,1,,,,,,,,,,,,,,,,,,,,,,,,,,,,,,,,
,,,,,,,,,,,,67d952104d8da4447ab6be2c,001,3,2025-04-15_04h15.54.219,avatar_quest_3AFC_legacy,2022.1.3,Win32,60.24096386,67d952104d8da4447ab6be2c,67fe37cb3bd870bba73819bd,67fe3acc48c4efe47e7410a3,,,,,,,,,,,,,,,,,,,,,,No Brainslug No Barriers With Money,0,images/assets/snowy_money.jpg,learning,10,images/assets/success_money.jpg,images/assets/gameover.jpg,,,,,,,,,,,,,0,10,10,9,1,,,,,,,,,,,,,,,,,,,,,,,,,,,,,,,,
,,,,,,,,,,,,67d952104d8da4447ab6be2c,001,3,2025-04-15_04h15.54.219,avatar_quest_3AFC_legacy,2022.1.3,Win32,60.24096386,67d952104d8da4447ab6be2c,67fe37cb3bd870bba73819bd,67fe3acc48c4efe47e7410a3,,,,,,,,,,,,,,,,,,,,,,,,,,,,,,,,,,,,,,,,,,,,,,,,,,,,,,,0,0,0,0,1,,,,,,,,,,,,,,,,,,
,,,,,,,,,,,,67d952104d8da4447ab6be2c,001,3,2025-04-15_04h15.54.219,avatar_quest_3AFC_legacy,2022.1.3,Win32,60.24096386,67d952104d8da4447ab6be2c,67fe37cb3bd870bba73819bd,67fe3acc48c4efe47e7410a3,,,,,,,,,,,,,,,,,,,,,,No Brainslug No Barriers No Money,0,images/assets/snowy_original.jpg,learning,10,images/assets/success.jpg,images/assets/gameover.jpg,,,,,,,,No Brainslug No Barriers With Money,No Brainslug No Barriers No Money,right,0.6534,"[""No Brainslug No Barriers No Money"",""No Brainslug Difficult 1 No Money""]",0,0,0,10,1,,,,,,,,,,,,,,,,,,,,,,,,,,,,,,,,
,,,,,,,,,,,,67d952104d8da4447ab6be2c,001,3,2025-04-15_04h15.54.219,avatar_quest_3AFC_legacy,2022.1.3,Win32,60.24096386,67d952104d8da4447ab6be2c,67fe37cb3bd870bba73819bd,67fe3acc48c4efe47e7410a3,,,,,,,,,,,,,,,,,,,,,,With Brainslug Difficult 1 With Money,6,images/assets/snowy_money.jpg,learning,20,images/assets/success_money.jpg,images/assets/gameover.jpg,,,,,,,,,,,,,0,1,1,0,1,,,,,,,,,,,,,,,,,,,,,,,,,,,,,,,,
,,,,,,,,,,,,67d952104d8da4447ab6be2c,001,3,2025-04-15_04h15.54.219,avatar_quest_3AFC_legacy,2022.1.3,Win32,60.24096386,67d952104d8da4447ab6be2c,67fe37cb3bd870bba73819bd,67fe3acc48c4efe47e7410a3,"[""left"",""right""]","[2.4664999999999964,4.103900000035765]",,calibration,No Brainslug No Barriers With Money,17,7.16104,5.4954,2,0,0,TRUE,na,na,na,na,,,,,,,,,,,,,,,,,,,,,,,,,,,,,,,,,,0,0,0,0,1,,,,,,,,,,,,,,,,,,,,,,,
,,,,,,,,,,,,67d952104d8da4447ab6be2c,001,3,2025-04-15_04h15.54.219,avatar_quest_3AFC_legacy,2022.1.3,Win32,60.24096386,67d952104d8da4447ab6be2c,67fe37cb3bd870bba73819bd,67fe3acc48c4efe47e7410a3,,,,,,,,,,,,,,,,,,,,,,No Brainslug No Barriers With Money,0,images/assets/snowy_money.jpg,learning,10,images/assets/success_money.jpg,images/assets/gameover.jpg,,,,,,,,,,,,,0,2,2,9,1,,,,,,,,,,,,,,,,,,,,,,,,,,,,,,,,
,,,,,,,,,,,,67d952104d8da4447ab6be2c,001,3,2025-04-15_04h15.54.219,avatar_quest_3AFC_legacy,2022.1.3,Win32,60.24096386,67d952104d8da4447ab6be2c,67fe37cb3bd870bba73819bd,67fe3acc48c4efe47e7410a3,,,,,,,,,,,,,,,,,,,,,,With Brainslug Difficult 1 No Money,6,images/assets/snowy_original.jpg,learning,20,images/assets/success.jpg,images/assets/gameover.jpg,,,,,,,,,,,,,0,3,3,1,1,,,,,,,,,,,,,,,,,,,,,,,,,,,,,,,,
,,,,,,,,,,,,67d952104d8da4447ab6be2c,001,3,2025-04-15_04h15.54.219,avatar_quest_3AFC_legacy,2022.1.3,Win32,60.24096386,67d952104d8da4447ab6be2c,67fe37cb3bd870bba73819bd,67fe3acc48c4efe47e7410a3,,,,,,,,,,,,,,,,,,,,,,With Brainslug No Barriers With Money,0,images/assets/snowy_money.jpg,learning,10,images/assets/success_money.jpg,images/assets/gameover.jpg,,,,,,,,,,,,,0,4,4,4,1,,,,,,,,,,,,,,,,,,,,,,,,,,,,,,,,
,,,,,,,,,,,,67d952104d8da4447ab6be2c,001,3,2025-04-15_04h15.54.219,avatar_quest_3AFC_legacy,2022.1.3,Win32,60.24096386,67d952104d8da4447ab6be2c,67fe37cb3bd870bba73819bd,67fe3acc48c4efe47e7410a3,,,,,,,,,,,,,,,,,,,,,,No Brainslug Difficult 2 With Money,12,images/assets/snowy_money.jpg,learning,20,images/assets/success_money.jpg,images/assets/gameover.jpg,,,,,,,,,,,,,0,5,5,7,1,,,,,,,,,,,,,,,,,,,,,,,,,,,,,,,,
,,,,,,,,,,,,67d952104d8da4447ab6be2c,001,3,2025-04-15_04h15.54.219,avatar_quest_3AFC_legacy,2022.1.3,Win32,60.24096386,67d952104d8da4447ab6be2c,67fe37cb3bd870bba73819bd,67fe3acc48c4efe47e7410a3,,,,,,,,,,,,,,,,,,,,,,No Brainslug Difficult 2 No Money,12,images/assets/snowy_original.jpg,learning,20,images/assets/success.jpg,images/assets/gameover.jpg,,,,,,,,,,,,,0,6,6,8,1,,,,,,,,,,,,,,,,,,,,,,,,,,,,,,,,
,,,,,,,,,,,,67d952104d8da4447ab6be2c,001,3,2025-04-15_04h15.54.219,avatar_quest_3AFC_legacy,2022.1.3,Win32,60.24096386,67d952104d8da4447ab6be2c,67fe37cb3bd870bba73819bd,67fe3acc48c4efe47e7410a3,,,,,,,,,,,,,,,,,,,,,,With Brainslug Difficult 2 With Money,12,images/assets/snowy_money.jpg,learning,20,images/assets/success_money.jpg,images/assets/gameover.jpg,,,,,,,,,,,,,0,7,7,2,1,,,,,,,,,,,,,,,,,,,,,,,,,,,,,,,,
,,,,,,,,,,,,67d952104d8da4447ab6be2c,001,3,2025-04-15_04h15.54.219,avatar_quest_3AFC_legacy,2022.1.3,Win32,60.24096386,67d952104d8da4447ab6be2c,67fe37cb3bd870bba73819bd,67fe3acc48c4efe47e7410a3,,,,,,,,,,,,,,,,,,,,,,With Brainslug Difficult 2 No Money,12,images/assets/snowy_original.jpg,learning,20,images/assets/success.jpg,images/assets/gameover.jpg,,,,,,,,,,,,,0,8,8,3,1,,,,,,,,,,,,,,,,,,,,,,,,,,,,,,,,
,,,,,,,,,,,,67d952104d8da4447ab6be2c,001,3,2025-04-15_04h15.54.219,avatar_quest_3AFC_legacy,2022.1.3,Win32,60.24096386,67d952104d8da4447ab6be2c,67fe37cb3bd870bba73819bd,67fe3acc48c4efe47e7410a3,,,,,,,,,,,,,,,,,,,,,,With Brainslug No Barriers No Money,0,images/assets/snowy_original.jpg,learning,10,images/assets/success.jpg,images/assets/gameover.jpg,,,,,,,,,,,,,0,9,9,5,1,,,,,,,,,,,,,,,,,,,,,,,,,,,,,,,,
,,,,,,,,,,,,67d952104d8da4447ab6be2c,001,3,2025-04-15_04h15.54.219,avatar_quest_3AFC_legacy,2022.1.3,Win32,60.24096386,67d952104d8da4447ab6be2c,67fe37cb3bd870bba73819bd,67fe3acc48c4efe47e7410a3,,,,,,,,,,,,,,,,,,,,,,No Brainslug Difficult 1 No Money,6,images/assets/snowy_original.jpg,learning,20,images/assets/success.jpg,images/assets/gameover.jpg,,,,,,,,,,,,,0,10,10,6,1,,,,,,,,,,,,,,,,,,,,,,,,,,,,,,,,
,,,,,,,,,,,,67d952104d8da4447ab6be2c,001,3,2025-04-15_04h15.54.219,avatar_quest_3AFC_legacy,2022.1.3,Win32,60.24096386,67d952104d8da4447ab6be2c,67fe37cb3bd870bba73819bd,67fe3acc48c4efe47e7410a3,,,,,,,,,,,,,,,,,,,,,,,,,,,,,,,,,,,,,,,,,,,,,,,,,,,,,,,1,0,1,0,1,,,,,,,,,,,,,,,,,,
,,,,,,,,,,,,67d952104d8da4447ab6be2c,001,3,2025-04-15_04h15.54.219,avatar_quest_3AFC_legacy,2022.1.3,Win32,60.24096386,67d952104d8da4447ab6be2c,67fe37cb3bd870bba73819bd,67fe3acc48c4efe47e7410a3,,,,,,,,,,,,,,,,,,,,,,No Brainslug Difficult 1 No Money,6,images/assets/snowy_original.jpg,learning,20,images/assets/success.jpg,images/assets/gameover.jpg,,,,,,,,No Brainslug No Barriers With Money,No Brainslug No Barriers No Money,right,2.7482,"[""No Brainslug No Barriers No Money"",""No Brainslug Difficult 1 No Money""]",0,0,0,6,1,,,,,,,,,,,,,,,,,,,,,,,,,,,,,,,,
,,,,,,,,,,,,67d952104d8da4447ab6be2c,001,3,2025-04-15_04h15.54.219,avatar_quest_3AFC_legacy,2022.1.3,Win32,60.24096386,67d952104d8da4447ab6be2c,67fe37cb3bd870bba73819bd,67fe3acc48c4efe47e7410a3,,,,,,,,,,,,,,,,,,,,,,With Brainslug Difficult 2 No Money,12,images/assets/snowy_original.jpg,learning,20,images/assets/success.jpg,images/assets/gameover.jpg,,,,,,,,,,,,,0,1,1,3,1,,,,,,,,,,,,,,,,,,,,,,,,,,,,,,,,
,,,,,,,,,,,,67d952104d8da4447ab6be2c,001,3,2025-04-15_04h15.54.219,avatar_quest_3AFC_legacy,2022.1.3,Win32,60.24096386,67d952104d8da4447ab6be2c,67fe37cb3bd870bba73819bd,67fe3acc48c4efe47e7410a3,,,,,,,,,,,,,,,,,,,,,,No Brainslug Difficult 2 With Money,12,images/assets/snowy_money.jpg,learning,20,images/assets/success_money.jpg,images/assets/gameover.jpg,,,,,,,,,,,,,0,2,2,7,1,,,,,,,,,,,,,,,,,,,,,,,,,,,,,,,,
,,,,,,,,,,,,67d952104d8da4447ab6be2c,001,3,2025-04-15_04h15.54.219,avatar_quest_3AFC_legacy,2022.1.3,Win32,60.24096386,67d952104d8da4447ab6be2c,67fe37cb3bd870bba73819bd,67fe3acc48c4efe47e7410a3,,,,,,,,,,,,,,,,,,,,,,No Brainslug No Barriers No Money,0,images/assets/snowy_original.jpg,learning,10,images/assets/success.jpg,images/assets/gameover.jpg,,,,,,,,,,,,,0,3,3,10,1,,,,,,,,,,,,,,,,,,,,,,,,,,,,,,,,
,,,,,,,,,,,,67d952104d8da4447ab6be2c,001,3,2025-04-15_04h15.54.219,avatar_quest_3AFC_legacy,2022.1.3,Win32,60.24096386,67d952104d8da4447ab6be2c,67fe37cb3bd870bba73819bd,67fe3acc48c4efe47e7410a3,,,,,,,,,,,,,,,,,,,,,,With Brainslug No Barriers No Money,0,images/assets/snowy_original.jpg,learning,10,images/assets/success.jpg,images/assets/gameover.jpg,,,,,,,,,,,,,0,4,4,5,1,,,,,,,,,,,,,,,,,,,,,,,,,,,,,,,,
,,,,,,,,,,,,67d952104d8da4447ab6be2c,001,3,2025-04-15_04h15.54.219,avatar_quest_3AFC_legacy,2022.1.3,Win32,60.24096386,67d952104d8da4447ab6be2c,67fe37cb3bd870bba73819bd,67fe3acc48c4efe47e7410a3,,,,,,,,,,,,,,,,,,,,,,With Brainslug Difficult 2 With Money,12,images/assets/snowy_money.jpg,learning,20,images/assets/success_money.jpg,images/assets/gameover.jpg,,,,,,,,,,,,,0,5,5,2,1,,,,,,,,,,,,,,,,,,,,,,,,,,,,,,,,
,,,,,,,,,,,,67d952104d8da4447ab6be2c,001,3,2025-04-15_04h15.54.219,avatar_quest_3AFC_legacy,2022.1.3,Win32,60.24096386,67d952104d8da4447ab6be2c,67fe37cb3bd870bba73819bd,67fe3acc48c4efe47e7410a3,"[""left"",""right""]","[1.1321000000237973,3.9746000000238837]",,calibration,No Brainslug No Barriers With Money,18,7.16104,5.4948,2,0,0,TRUE,na,na,na,na,,,,,,,,,,,,,,,,,,,,,,,,,,,,,,,,,,0,0,0,0,1,,,,,,,,,,,,,,,,,,,,,,,
,,,,,,,,,,,,67d952104d8da4447ab6be2c,001,3,2025-04-15_04h15.54.219,avatar_quest_3AFC_legacy,2022.1.3,Win32,60.24096386,67d952104d8da4447ab6be2c,67fe37cb3bd870bba73819bd,67fe3acc48c4efe47e7410a3,,,,,,,,,,,,,,,,,,,,,,No Brainslug No Barriers With Money,0,images/assets/snowy_money.jpg,learning,10,images/assets/success_money.jpg,images/assets/gameover.jpg,,,,,,,,,,,,,0,6,6,9,1,,,,,,,,,,,,,,,,,,,,,,,,,,,,,,,,
,,,,,,,,,,,,67d952104d8da4447ab6be2c,001,3,2025-04-15_04h15.54.219,avatar_quest_3AFC_legacy,2022.1.3,Win32,60.24096386,67d952104d8da4447ab6be2c,67fe37cb3bd870bba73819bd,67fe3acc48c4efe47e7410a3,,,,,,,,,,,,,,,,,,,,,,No Brainslug Difficult 2 No Money,12,images/assets/snowy_original.jpg,learning,20,images/assets/success.jpg,images/assets/gameover.jpg,,,,,,,,,,,,,0,7,7,8,1,,,,,,,,,,,,,,,,,,,,,,,,,,,,,,,,
,,,,,,,,,,,,67d952104d8da4447ab6be2c,001,3,2025-04-15_04h15.54.219,avatar_quest_3AFC_legacy,2022.1.3,Win32,60.24096386,67d952104d8da4447ab6be2c,67fe37cb3bd870bba73819bd,67fe3acc48c4efe47e7410a3,,,,,,,,,,,,,,,,,,,,,,With Brainslug Difficult 1 With Money,6,images/assets/snowy_money.jpg,learning,20,images/assets/success_money.jpg,images/assets/gameover.jpg,,,,,,,,,,,,,0,8,8,0,1,,,,,,,,,,,,,,,,,,,,,,,,,,,,,,,,
,,,,,,,,,,,,67d952104d8da4447ab6be2c,001,3,2025-04-15_04h15.54.219,avatar_quest_3AFC_legacy,2022.1.3,Win32,60.24096386,67d952104d8da4447ab6be2c,67fe37cb3bd870bba73819bd,67fe3acc48c4efe47e7410a3,,,,,,,,,,,,,,,,,,,,,,With Brainslug No Barriers With Money,0,images/assets/snowy_money.jpg,learning,10,images/assets/success_money.jpg,images/assets/gameover.jpg,,,,,,,,,,,,,0,9,9,4,1,,,,,,,,,,,,,,,,,,,,,,,,,,,,,,,,
,,,,,,,,,,,,67d952104d8da4447ab6be2c,001,3,2025-04-15_04h15.54.219,avatar_quest_3AFC_legacy,2022.1.3,Win32,60.24096386,67d952104d8da4447ab6be2c,67fe37cb3bd870bba73819bd,67fe3acc48c4efe47e7410a3,,,,,,,,,,,,,,,,,,,,,,With Brainslug Difficult 1 No Money,6,images/assets/snowy_original.jpg,learning,20,images/assets/success.jpg,images/assets/gameover.jpg,,,,,,,,,,,,,0,10,10,1,1,,,,,,,,,,,,,,,,,,,,,,,,,,,,,,,,
,,,,,,,,,,,,67d952104d8da4447ab6be2c,001,3,2025-04-15_04h15.54.219,avatar_quest_3AFC_legacy,2022.1.3,Win32,60.24096386,67d952104d8da4447ab6be2c,67fe37cb3bd870bba73819bd,67fe3acc48c4efe47e7410a3,,,,,,,,,,,,,,,,,,,,,,,,,,,,,,,,,,,,,,,,,,,,,,,,,,,,,,,2,0,2,0,1,,,,,,,,,,,,,,,,,,
,,,,,,,,,,,,67d952104d8da4447ab6be2c,001,3,2025-04-15_04h15.54.219,avatar_quest_3AFC_legacy,2022.1.3,Win32,60.24096386,67d952104d8da4447ab6be2c,67fe37cb3bd870bba73819bd,67fe3acc48c4efe47e7410a3,,,,,,,,,,,,,,,,,,,,,,With Brainslug Difficult 2 No Money,12,images/assets/snowy_original.jpg,learning,20,images/assets/success.jpg,images/assets/gameover.jpg,,,,,,,,No Brainslug No Barriers With Money,No Brainslug No Barriers No Money,right,6.274,"[""No Brainslug No Barriers No Money"",""No Brainslug Difficult 1 No Money""]",0,0,0,3,1,,,,,,,,,,,,,,,,,,,,,,,,,,,,,,,,
,,,,,,,,,,,,67d952104d8da4447ab6be2c,001,3,2025-04-15_04h15.54.219,avatar_quest_3AFC_legacy,2022.1.3,Win32,60.24096386,67d952104d8da4447ab6be2c,67fe37cb3bd870bba73819bd,67fe3acc48c4efe47e7410a3,,,,,,,,,,,,,,,,,,,,,,With Brainslug Difficult 1 With Money,6,images/assets/snowy_money.jpg,learning,20,images/assets/success_money.jpg,images/assets/gameover.jpg,,,,,,,,,,,,,0,1,1,0,1,,,,,,,,,,,,,,,,,,,,,,,,,,,,,,,,
,,,,,,,,,,,,67d952104d8da4447ab6be2c,001,3,2025-04-15_04h15.54.219,avatar_quest_3AFC_legacy,2022.1.3,Win32,60.24096386,67d952104d8da4447ab6be2c,67fe37cb3bd870bba73819bd,67fe3acc48c4efe47e7410a3,,,,,,,,,,,,,,,,,,,,,,With Brainslug Difficult 2 With Money,12,images/assets/snowy_money.jpg,learning,20,images/assets/success_money.jpg,images/assets/gameover.jpg,,,,,,,,,,,,,0,2,2,2,1,,,,,,,,,,,,,,,,,,,,,,,,,,,,,,,,
,,,,,,,,,,,,67d952104d8da4447ab6be2c,001,3,2025-04-15_04h15.54.219,avatar_quest_3AFC_legacy,2022.1.3,Win32,60.24096386,67d952104d8da4447ab6be2c,67fe37cb3bd870bba73819bd,67fe3acc48c4efe47e7410a3,,,,,,,,,,,,,,,,,,,,,,With Brainslug No Barriers With Money,0,images/assets/snowy_money.jpg,learning,10,images/assets/success_money.jpg,images/assets/gameover.jpg,,,,,,,,,,,,,0,3,3,4,1,,,,,,,,,,,,,,,,,,,,,,,,,,,,,,,,
,,,,,,,,,,,,67d952104d8da4447ab6be2c,001,3,2025-04-15_04h15.54.219,avatar_quest_3AFC_legacy,2022.1.3,Win32,60.24096386,67d952104d8da4447ab6be2c,67fe37cb3bd870bba73819bd,67fe3acc48c4efe47e7410a3,"[""left"",""right""]","[1.83969999998817,3.9547999999523427]",,calibration,No Brainslug No Barriers With Money,19,7.16104,5.5122,2,0,0,TRUE,na,na,na,na,,,,,,,,,,,,,,,,,,,,,,,,,,,,,,,,,,0,0,0,0,1,,,,,,,,,,,,,,,,,,,,,,,
,,,,,,,,,,,,67d952104d8da4447ab6be2c,001,3,2025-04-15_04h15.54.219,avatar_quest_3AFC_legacy,2022.1.3,Win32,60.24096386,67d952104d8da4447ab6be2c,67fe37cb3bd870bba73819bd,67fe3acc48c4efe47e7410a3,,,,,,,,,,,,,,,,,,,,,,No Brainslug No Barriers With Money,0,images/assets/snowy_money.jpg,learning,10,images/assets/success_money.jpg,images/assets/gameover.jpg,,,,,,,,,,,,,0,4,4,9,1,,,,,,,,,,,,,,,,,,,,,,,,,,,,,,,,
,,,,,,,,,,,,67d952104d8da4447ab6be2c,001,3,2025-04-15_04h15.54.219,avatar_quest_3AFC_legacy,2022.1.3,Win32,60.24096386,67d952104d8da4447ab6be2c,67fe37cb3bd870bba73819bd,67fe3acc48c4efe47e7410a3,,,,,,,,,,,,,,,,,,,,,,With Brainslug No Barriers No Money,0,images/assets/snowy_original.jpg,learning,10,images/assets/success.jpg,images/assets/gameover.jpg,,,,,,,,,,,,,0,5,5,5,1,,,,,,,,,,,,,,,,,,,,,,,,,,,,,,,,
,,,,,,,,,,,,67d952104d8da4447ab6be2c,001,3,2025-04-15_04h15.54.219,avatar_quest_3AFC_legacy,2022.1.3,Win32,60.24096386,67d952104d8da4447ab6be2c,67fe37cb3bd870bba73819bd,67fe3acc48c4efe47e7410a3,,,,,,,,,,,,,,,,,,,,,,No Brainslug Difficult 2 With Money,12,images/assets/snowy_money.jpg,learning,20,images/assets/success_money.jpg,images/assets/gameover.jpg,,,,,,,,,,,,,0,6,6,7,1,,,,,,,,,,,,,,,,,,,,,,,,,,,,,,,,
,,,,,,,,,,,,67d952104d8da4447ab6be2c,001,3,2025-04-15_04h15.54.219,avatar_quest_3AFC_legacy,2022.1.3,Win32,60.24096386,67d952104d8da4447ab6be2c,67fe37cb3bd870bba73819bd,67fe3acc48c4efe47e7410a3,,,,,,,,,,,,,,,,,,,,,,No Brainslug Difficult 2 No Money,12,images/assets/snowy_original.jpg,learning,20,images/assets/success.jpg,images/assets/gameover.jpg,,,,,,,,,,,,,0,7,7,8,1,,,,,,,,,,,,,,,,,,,,,,,,,,,,,,,,
,,,,,,,,,,,,67d952104d8da4447ab6be2c,001,3,2025-04-15_04h15.54.219,avatar_quest_3AFC_legacy,2022.1.3,Win32,60.24096386,67d952104d8da4447ab6be2c,67fe37cb3bd870bba73819bd,67fe3acc48c4efe47e7410a3,,,,,,,,,,,,,,,,,,,,,,With Brainslug Difficult 1 No Money,6,images/assets/snowy_original.jpg,learning,20,images/assets/success.jpg,images/assets/gameover.jpg,,,,,,,,,,,,,0,8,8,1,1,,,,,,,,,,,,,,,,,,,,,,,,,,,,,,,,
,,,,,,,,,,,,67d952104d8da4447ab6be2c,001,3,2025-04-15_04h15.54.219,avatar_quest_3AFC_legacy,2022.1.3,Win32,60.24096386,67d952104d8da4447ab6be2c,67fe37cb3bd870bba73819bd,67fe3acc48c4efe47e7410a3,,,,,,,,,,,,,,,,,,,,,,No Brainslug Difficult 1 No Money,6,images/assets/snowy_original.jpg,learning,20,images/assets/success.jpg,images/assets/gameover.jpg,,,,,,,,,,,,,0,9,9,6,1,,,,,,,,,,,,,,,,,,,,,,,,,,,,,,,,
,,,,,,,,,,,,67d952104d8da4447ab6be2c,001,3,2025-04-15_04h15.54.219,avatar_quest_3AFC_legacy,2022.1.3,Win32,60.24096386,67d952104d8da4447ab6be2c,67fe37cb3bd870bba73819bd,67fe3acc48c4efe47e7410a3,,,,,,,,,,,,,,,,,,,,,,No Brainslug No Barriers No Money,0,images/assets/snowy_original.jpg,learning,10,images/assets/success.jpg,images/assets/gameover.jpg,,,,,,,,,,,,,0,10,10,10,1,,,,,,,,,,,,,,,,,,,,,,,,,,,,,,,,
,,,,,,,,,,,,67d952104d8da4447ab6be2c,001,3,2025-04-15_04h15.54.219,avatar_quest_3AFC_legacy,2022.1.3,Win32,60.24096386,67d952104d8da4447ab6be2c,67fe37cb3bd870bba73819bd,67fe3acc48c4efe47e7410a3,,,,,,,,,,,,,,,,,,,,,,,,,,,,,,,,,,,,,,,,,,,,,,,,,,,,,,,3,0,3,0,1,,,,,,,,,,,,,,,,,,
,,,,,,,,,,,,67d952104d8da4447ab6be2c,001,3,2025-04-15_04h15.54.219,avatar_quest_3AFC_legacy,2022.1.3,Win32,60.24096386,67d952104d8da4447ab6be2c,67fe37cb3bd870bba73819bd,67fe3acc48c4efe47e7410a3,,,,,,,,,,,,,,,,,,,,,,No Brainslug Difficult 2 With Money,12,images/assets/snowy_money.jpg,learning,20,images/assets/success_money.jpg,images/assets/gameover.jpg,,,,,,,,No Brainslug No Barriers With Money,No Brainslug No Barriers No Money,right,1.2517,"[""No Brainslug No Barriers No Money"",""No Brainslug Difficult 1 No Money""]",0,0,0,7,1,,,,,,,,,,,,,,,,,,,,,,,,,,,,,,,,
,,,,,,,,,,,,67d952104d8da4447ab6be2c,001,3,2025-04-15_04h15.54.219,avatar_quest_3AFC_legacy,2022.1.3,Win32,60.24096386,67d952104d8da4447ab6be2c,67fe37cb3bd870bba73819bd,67fe3acc48c4efe47e7410a3,,,,,,,,,,,,,,,,,,,,,,With Brainslug Difficult 2 No Money,12,images/assets/snowy_original.jpg,learning,20,images/assets/success.jpg,images/assets/gameover.jpg,,,,,,,,,,,,,0,1,1,3,1,,,,,,,,,,,,,,,,,,,,,,,,,,,,,,,,
,,,,,,,,,,,,67d952104d8da4447ab6be2c,001,3,2025-04-15_04h15.54.219,avatar_quest_3AFC_legacy,2022.1.3,Win32,60.24096386,67d952104d8da4447ab6be2c,67fe37cb3bd870bba73819bd,67fe3acc48c4efe47e7410a3,,,,,,,,,,,,,,,,,,,,,,No Brainslug Difficult 1 No Money,6,images/assets/snowy_original.jpg,learning,20,images/assets/success.jpg,images/assets/gameover.jpg,,,,,,,,,,,,,0,2,2,6,1,,,,,,,,,,,,,,,,,,,,,,,,,,,,,,,,
,,,,,,,,,,,,67d952104d8da4447ab6be2c,001,3,2025-04-15_04h15.54.219,avatar_quest_3AFC_legacy,2022.1.3,Win32,60.24096386,67d952104d8da4447ab6be2c,67fe37cb3bd870bba73819bd,67fe3acc48c4efe47e7410a3,,,,,,,,,,,,,,,,,,,,,,With Brainslug Difficult 1 With Money,6,images/assets/snowy_money.jpg,learning,20,images/assets/success_money.jpg,images/assets/gameover.jpg,,,,,,,,,,,,,0,3,3,0,1,,,,,,,,,,,,,,,,,,,,,,,,,,,,,,,,
,,,,,,,,,,,,67d952104d8da4447ab6be2c,001,3,2025-04-15_04h15.54.219,avatar_quest_3AFC_legacy,2022.1.3,Win32,60.24096386,67d952104d8da4447ab6be2c,67fe37cb3bd870bba73819bd,67fe3acc48c4efe47e7410a3,,,,,,,,,,,,,,,,,,,,,,With Brainslug Difficult 2 With Money,12,images/assets/snowy_money.jpg,learning,20,images/assets/success_money.jpg,images/assets/gameover.jpg,,,,,,,,,,,,,0,4,4,2,1,,,,,,,,,,,,,,,,,,,,,,,,,,,,,,,,
,,,,,,,,,,,,67d952104d8da4447ab6be2c,001,3,2025-04-15_04h15.54.219,avatar_quest_3AFC_legacy,2022.1.3,Win32,60.24096386,67d952104d8da4447ab6be2c,67fe37cb3bd870bba73819bd,67fe3acc48c4efe47e7410a3,"[""left"",""right"",""left"",""right""]","[2.143800000011993,3.6598999999762327,5.026000000000067,5.8398000000119055]",,calibration,No Brainslug No Barriers With Money,20,7.16104,7.0938,4,0,1,TRUE,na,na,na,na,,,,,,,,,,,,,,,,,,,,,,,,,,,,,,,,,,0,0,0,0,1,,,,,,,,,,,,,,,,,,,,,,,
,,,,,,,,,,,,67d952104d8da4447ab6be2c,001,3,2025-04-15_04h15.54.219,avatar_quest_3AFC_legacy,2022.1.3,Win32,60.24096386,67d952104d8da4447ab6be2c,67fe37cb3bd870bba73819bd,67fe3acc48c4efe47e7410a3,,,,,,,,,,,,,,,,,,,,,,No Brainslug No Barriers With Money,0,images/assets/snowy_money.jpg,learning,10,images/assets/success_money.jpg,images/assets/gameover.jpg,,,,,,,,,,,,,0,5,5,9,1,,,,,,,,,,,,,,,,,,,,,,,,,,,,,,,,
,,,,,,,,,,,,67d952104d8da4447ab6be2c,001,3,2025-04-15_04h15.54.219,avatar_quest_3AFC_legacy,2022.1.3,Win32,60.24096386,67d952104d8da4447ab6be2c,67fe37cb3bd870bba73819bd,67fe3acc48c4efe47e7410a3,,,,,,,,,,,,,,,,,,,,,,With Brainslug No Barriers No Money,0,images/assets/snowy_original.jpg,learning,10,images/assets/success.jpg,images/assets/gameover.jpg,,,,,,,,,,,,,0,6,6,5,1,,,,,,,,,,,,,,,,,,,,,,,,,,,,,,,,
,,,,,,,,,,,,67d952104d8da4447ab6be2c,001,3,2025-04-15_04h15.54.219,avatar_quest_3AFC_legacy,2022.1.3,Win32,60.24096386,67d952104d8da4447ab6be2c,67fe37cb3bd870bba73819bd,67fe3acc48c4efe47e7410a3,,,,,,,,,,,,,,,,,,,,,,With Brainslug No Barriers With Money,0,images/assets/snowy_money.jpg,learning,10,images/assets/success_money.jpg,images/assets/gameover.jpg,,,,,,,,,,,,,0,7,7,4,1,,,,,,,,,,,,,,,,,,,,,,,,,,,,,,,,
