instruction_mouse.x,instruction_mouse.y,instruction_mouse.leftButton,instruction_mouse.midButton,instruction_mouse.rightButton,instruction_mouse.clicked_name,introduce_general.thisRepN,introduce_general.thisTrialN,introduce_general.thisN,introduce_general.thisIndex,introduce_general.ran,thisInstruction,participant,session,game version,date,expName,psychopyVersion,OS,frameRate,PROLIFIC PID,STUDY ID,SESSION ID,move_resp.keys,move_resp.rt,end_resp.keys,phase,condition,trial_num,time_limit,completion_time,left_right_steps,number_of_obsticle_blocks,number_of_tree_blocks,quest_complete,responsivity_summary,av_inter_brainslug_intervals,proportion_jitter,jitter_direction_proportion_right,calibration_phase.thisRepN,calibration_phase.thisTrialN,calibration_phase.thisN,calibration_phase.thisIndex,calibration_phase.ran,BlockLabel,nObsticles,backgroundImage,phaseLabel,n_side_steps,success_im,gameover_im,success_condition,introduce_learning_or_choice.thisRepN,introduce_learning_or_choice.thisTrialN,introduce_learning_or_choice.thisN,introduce_learning_or_choice.thisIndex,introduce_learning_or_choice.ran,choice_resp.keys,chosen_quest,unchosen_quest,choice_resp_3afc.keys,choice_resp_3afc.rt,unchosen_quests,forced_choice_trial.thisRepN,forced_choice_trial.thisTrialN,forced_choice_trial.thisN,forced_choice_trial.thisIndex,forced_choice_trial.ran,enjoyment_slider.response,enjoyment_slider.rt,effort_slider.response,effort_slider.rt,show_loop2.thisRepN,show_loop2.thisTrialN,show_loop2.thisN,show_loop2.thisIndex,show_loop2.ran,trials_per_block.thisRepN,trials_per_block.thisTrialN,trials_per_block.thisN,trials_per_block.thisIndex,trials_per_block.ran,decision_phase_AFC.thisRepN,decision_phase_AFC.thisTrialN,decision_phase_AFC.thisN,decision_phase_AFC.thisIndex,decision_phase_AFC.ran,blockN,BlockLabel1,questIm1,BlockLabel2,questIm2,BlockLabel3,questIm3,quest_condition,showForcedChoice.thisRepN,showForcedChoice.thisTrialN,showForcedChoice.thisN,showForcedChoice.thisIndex,showForcedChoice.ran
0.438802083,-0.39453125,1,0,0,instruction_button,0,0,0,0,1,images/instructions_part1_LSM_taskversion1/Slide1.JPG,67de1ad35cbb8f7342e3a7a2,001,3,2025-03-27_18h15.39.672,avatar_quest_3AFC_legacy,2022.1.3,Win32,59.88023952,67de1ad35cbb8f7342e3a7a2,67e5c8c9bc10e40b86efc6fc,67e5cb5687a76eff05ef2c20,,,,,,,,,,,,,,,,,,,,,,,,,,,,,,,,,,,,,,,,,,,,,,,,,,,,,,,,,,,,,,,,,,,,,,,,,,,,,
0.430989583,-0.407552083,1,0,0,instruction_button,0,1,1,1,1,images/instructions_part1_LSM_taskversion1/Slide2.JPG,67de1ad35cbb8f7342e3a7a2,001,3,2025-03-27_18h15.39.672,avatar_quest_3AFC_legacy,2022.1.3,Win32,59.88023952,67de1ad35cbb8f7342e3a7a2,67e5c8c9bc10e40b86efc6fc,67e5cb5687a76eff05ef2c20,,,,,,,,,,,,,,,,,,,,,,,,,,,,,,,,,,,,,,,,,,,,,,,,,,,,,,,,,,,,,,,,,,,,,,,,,,,,,
0.385416667,-0.399739583,1,0,0,instruction_button,0,2,2,2,1,images/instructions_part1_LSM_taskversion1/Slide3.JPG,67de1ad35cbb8f7342e3a7a2,001,3,2025-03-27_18h15.39.672,avatar_quest_3AFC_legacy,2022.1.3,Win32,59.88023952,67de1ad35cbb8f7342e3a7a2,67e5c8c9bc10e40b86efc6fc,67e5cb5687a76eff05ef2c20,,,,,,,,,,,,,,,,,,,,,,,,,,,,,,,,,,,,,,,,,,,,,,,,,,,,,,,,,,,,,,,,,,,,,,,,,,,,,
0.432291667,-0.411458333,1,0,0,instruction_button,0,3,3,3,1,images/instructions_part1_LSM_taskversion1/Slide3.5.JPG,67de1ad35cbb8f7342e3a7a2,001,3,2025-03-27_18h15.39.672,avatar_quest_3AFC_legacy,2022.1.3,Win32,59.88023952,67de1ad35cbb8f7342e3a7a2,67e5c8c9bc10e40b86efc6fc,67e5cb5687a76eff05ef2c20,,,,,,,,,,,,,,,,,,,,,,,,,,,,,,,,,,,,,,,,,,,,,,,,,,,,,,,,,,,,,,,,,,,,,,,,,,,,,
0.391927083,-0.391927083,1,0,0,instruction_button,0,4,4,4,1,images/instructions_part1_LSM_taskversion1/Slide4.JPG,67de1ad35cbb8f7342e3a7a2,001,3,2025-03-27_18h15.39.672,avatar_quest_3AFC_legacy,2022.1.3,Win32,59.88023952,67de1ad35cbb8f7342e3a7a2,67e5c8c9bc10e40b86efc6fc,67e5cb5687a76eff05ef2c20,,,,,,,,,,,,,,,,,,,,,,,,,,,,,,,,,,,,,,,,,,,,,,,,,,,,,,,,,,,,,,,,,,,,,,,,,,,,,
0.364583333,-0.40234375,1,0,0,instruction_button,0,5,5,5,1,images/instructions_part1_LSM_taskversion1/Slide6.5.JPG,67de1ad35cbb8f7342e3a7a2,001,3,2025-03-27_18h15.39.672,avatar_quest_3AFC_legacy,2022.1.3,Win32,59.88023952,67de1ad35cbb8f7342e3a7a2,67e5c8c9bc10e40b86efc6fc,67e5cb5687a76eff05ef2c20,,,,,,,,,,,,,,,,,,,,,,,,,,,,,,,,,,,,,,,,,,,,,,,,,,,,,,,,,,,,,,,,,,,,,,,,,,,,,
,,,,,,,,,,,,67de1ad35cbb8f7342e3a7a2,001,3,2025-03-27_18h15.39.672,avatar_quest_3AFC_legacy,2022.1.3,Win32,59.88023952,67de1ad35cbb8f7342e3a7a2,67e5c8c9bc10e40b86efc6fc,67e5cb5687a76eff05ef2c20,"[""left"",""right"",""left""]","[2.1667999999523317,3.3870000000000005,4.517700000047682]",,calibration,No Brainslug No Barriers No Money,1,100,6.4234,3,0,1,TRUE,na,na,na,na,0,0,0,0,1,No Brainslug No Barriers No Money,0,images/assets/snowy_original.jpg,calibration,10,images/assets/success.jpg,images/assets/gameover.jpg,never,,,,,,,,,,,,,,,,,,,,,,,,,,,,,,,,,,,,,,,,,,,,,,,,
,,,,,,,,,,,,67de1ad35cbb8f7342e3a7a2,001,3,2025-03-27_18h15.39.672,avatar_quest_3AFC_legacy,2022.1.3,Win32,59.88023952,67de1ad35cbb8f7342e3a7a2,67e5c8c9bc10e40b86efc6fc,67e5cb5687a76eff05ef2c20,"[""right"",""left"",""left"",""right"",""left"",""right""]","[1.0937999999522958,1.69399999999996,2.444799999952295,3.7596000001429957,5.410900000095353,6.916799999952275]",,calibration,No Brainslug No Barriers No Money,2,100,7.246,6,0,99,TRUE,na,na,na,na,0,1,1,1,1,No Brainslug No Barriers No Money,0,images/assets/snowy_original.jpg,calibration,10,images/assets/success.jpg,images/assets/gameover.jpg,never,,,,,,,,,,,,,,,,,,,,,,,,,,,,,,,,,,,,,,,,,,,,,,,,
,,,,,,,,,,,,67de1ad35cbb8f7342e3a7a2,001,3,2025-03-27_18h15.39.672,avatar_quest_3AFC_legacy,2022.1.3,Win32,59.88023952,67de1ad35cbb8f7342e3a7a2,67e5c8c9bc10e40b86efc6fc,67e5cb5687a76eff05ef2c20,"[""left"",""right"",""left"",""right"",""left""]","[0.8155000000000427,2.464200000047697,3.176200000047686,3.8272000000476964,4.812299999952359]",,calibration,No Brainslug No Barriers No Money,3,100,6.7304,5,0,21,TRUE,na,na,na,na,0,2,2,2,1,No Brainslug No Barriers No Money,0,images/assets/snowy_original.jpg,calibration,10,images/assets/success.jpg,images/assets/gameover.jpg,never,,,,,,,,,,,,,,,,,,,,,,,,,,,,,,,,,,,,,,,,,,,,,,,,
0.415364583,-0.395833333,1,0,0,instruction_button,,,,,,images/instructions_part2_LSM_taskversion3.jpg,67de1ad35cbb8f7342e3a7a2,001,3,2025-03-27_18h15.39.672,avatar_quest_3AFC_legacy,2022.1.3,Win32,59.88023952,67de1ad35cbb8f7342e3a7a2,67e5c8c9bc10e40b86efc6fc,67e5cb5687a76eff05ef2c20,,,,,,,,,,,,,,,,,,,,,,,,,,,,,,0,0,0,0,1,,,,,,,,,,,,,,,,,,,,,,,,,,,,,,,,,,,,,,,,,,,
,,,,,,,,,,,,67de1ad35cbb8f7342e3a7a2,001,3,2025-03-27_18h15.39.672,avatar_quest_3AFC_legacy,2022.1.3,Win32,59.88023952,67de1ad35cbb8f7342e3a7a2,67e5c8c9bc10e40b86efc6fc,67e5cb5687a76eff05ef2c20,,,,,,,,,,,,,,,,,,,,,,No Brainslug Difficult 2 With Money,12,images/assets/snowy_money.jpg,learning,20,images/assets/success_money.jpg,images/assets/gameover.jpg,,,,,,,,With Brainslug Difficult 2 No Money,With Brainslug Difficult 1 No Money,down,8.6011,"[""With Brainslug Difficult 1 No Money"",""With Brainslug Difficult 2 With Money""]",0,0,0,7,1,,,,,,,,,,,,,,,,,,,,,,,,,,,,,,,,
,,,,,,,,,,,,67de1ad35cbb8f7342e3a7a2,001,3,2025-03-27_18h15.39.672,avatar_quest_3AFC_legacy,2022.1.3,Win32,59.88023952,67de1ad35cbb8f7342e3a7a2,67e5c8c9bc10e40b86efc6fc,67e5cb5687a76eff05ef2c20,,,,,,,,,,,,,,,,,,,,,,With Brainslug Difficult 1 With Money,6,images/assets/snowy_money.jpg,learning,20,images/assets/success_money.jpg,images/assets/gameover.jpg,,,,,,,,,,,,,0,1,1,0,1,,,,,,,,,,,,,,,,,,,,,,,,,,,,,,,,
,,,,,,,,,,,,67de1ad35cbb8f7342e3a7a2,001,3,2025-03-27_18h15.39.672,avatar_quest_3AFC_legacy,2022.1.3,Win32,59.88023952,67de1ad35cbb8f7342e3a7a2,67e5c8c9bc10e40b86efc6fc,67e5cb5687a76eff05ef2c20,"[""left"",""right"",""down"",""left"",""left"",""right"",""left"",""left"",""right"",""down""]","[0.9964000000953774,1.7709000000953665,2.9427999999522854,4.031999999999982,5.305900000095335,6.312299999952302,7.502099999904601,8.449200000047654,8.918000000000006,9.746299999952328]",,calibration,With Brainslug Difficult 2 No Money,4,10.1999,10.2094,4,2,0,FALSE,na,na,na,na,,,,,,,,,,,,,,,,,,,,,,,,,,,,,,,,,,0,0,0,0,1,,,,,,,,,,,,,,,,,,,,,,,
,,,,,,,,,,,,67de1ad35cbb8f7342e3a7a2,001,3,2025-03-27_18h15.39.672,avatar_quest_3AFC_legacy,2022.1.3,Win32,59.88023952,67de1ad35cbb8f7342e3a7a2,67e5c8c9bc10e40b86efc6fc,67e5cb5687a76eff05ef2c20,,,,,,,,,,,,,,,,,,,,,,With Brainslug Difficult 2 No Money,12,images/assets/snowy_original.jpg,learning,20,images/assets/success.jpg,images/assets/gameover.jpg,,,,,,,,,,,,,0,2,2,3,1,,,,,,,,,,,,,,,,,,,,,,,,,,,,,,,,
,,,,,,,,,,,,67de1ad35cbb8f7342e3a7a2,001,3,2025-03-27_18h15.39.672,avatar_quest_3AFC_legacy,2022.1.3,Win32,59.88023952,67de1ad35cbb8f7342e3a7a2,67e5c8c9bc10e40b86efc6fc,67e5cb5687a76eff05ef2c20,,,,,,,,,,,,,,,,,,,,,,No Brainslug Difficult 2 No Money,12,images/assets/snowy_original.jpg,learning,20,images/assets/success.jpg,images/assets/gameover.jpg,,,,,,,,,,,,,0,3,3,8,1,,,,,,,,,,,,,,,,,,,,,,,,,,,,,,,,
,,,,,,,,,,,,67de1ad35cbb8f7342e3a7a2,001,3,2025-03-27_18h15.39.672,avatar_quest_3AFC_legacy,2022.1.3,Win32,59.88023952,67de1ad35cbb8f7342e3a7a2,67e5c8c9bc10e40b86efc6fc,67e5cb5687a76eff05ef2c20,,,,,,,,,,,,,,,,,,,,,,With Brainslug Difficult 1 No Money,6,images/assets/snowy_original.jpg,learning,20,images/assets/success.jpg,images/assets/gameover.jpg,,,,,,,,,,,,,0,4,4,1,1,,,,,,,,,,,,,,,,,,,,,,,,,,,,,,,,
,,,,,,,,,,,,67de1ad35cbb8f7342e3a7a2,001,3,2025-03-27_18h15.39.672,avatar_quest_3AFC_legacy,2022.1.3,Win32,59.88023952,67de1ad35cbb8f7342e3a7a2,67e5c8c9bc10e40b86efc6fc,67e5cb5687a76eff05ef2c20,,,,,,,,,,,,,,,,,,,,,,With Brainslug Difficult 2 With Money,12,images/assets/snowy_money.jpg,learning,20,images/assets/success_money.jpg,images/assets/gameover.jpg,,,,,,,,,,,,,0,5,5,2,1,,,,,,,,,,,,,,,,,,,,,,,,,,,,,,,,
,,,,,,,,,,,,67de1ad35cbb8f7342e3a7a2,001,3,2025-03-27_18h15.39.672,avatar_quest_3AFC_legacy,2022.1.3,Win32,59.88023952,67de1ad35cbb8f7342e3a7a2,67e5c8c9bc10e40b86efc6fc,67e5cb5687a76eff05ef2c20,,,,,,,,,,,,,,,,,,,,,,With Brainslug No Barriers With Money,0,images/assets/snowy_money.jpg,learning,10,images/assets/success_money.jpg,images/assets/gameover.jpg,,,,,,,,,,,,,0,6,6,4,1,,,,,,,,,,,,,,,,,,,,,,,,,,,,,,,,
,,,,,,,,,,,,67de1ad35cbb8f7342e3a7a2,001,3,2025-03-27_18h15.39.672,avatar_quest_3AFC_legacy,2022.1.3,Win32,59.88023952,67de1ad35cbb8f7342e3a7a2,67e5c8c9bc10e40b86efc6fc,67e5cb5687a76eff05ef2c20,,,,,,,,,,,,,,,,,,,,,,No Brainslug No Barriers No Money,0,images/assets/snowy_original.jpg,learning,10,images/assets/success.jpg,images/assets/gameover.jpg,,,,,,,,,,,,,0,7,7,10,1,,,,,,,,,,,,,,,,,,,,,,,,,,,,,,,,
,,,,,,,,,,,,67de1ad35cbb8f7342e3a7a2,001,3,2025-03-27_18h15.39.672,avatar_quest_3AFC_legacy,2022.1.3,Win32,59.88023952,67de1ad35cbb8f7342e3a7a2,67e5c8c9bc10e40b86efc6fc,67e5cb5687a76eff05ef2c20,,,,,,,,,,,,,,,,,,,,,,With Brainslug No Barriers No Money,0,images/assets/snowy_original.jpg,learning,10,images/assets/success.jpg,images/assets/gameover.jpg,,,,,,,,,,,,,0,8,8,5,1,,,,,,,,,,,,,,,,,,,,,,,,,,,,,,,,
,,,,,,,,,,,,67de1ad35cbb8f7342e3a7a2,001,3,2025-03-27_18h15.39.672,avatar_quest_3AFC_legacy,2022.1.3,Win32,59.88023952,67de1ad35cbb8f7342e3a7a2,67e5c8c9bc10e40b86efc6fc,67e5cb5687a76eff05ef2c20,,,,,,,,,,,,,,,,,,,,,,No Brainslug No Barriers With Money,0,images/assets/snowy_money.jpg,learning,10,images/assets/success_money.jpg,images/assets/gameover.jpg,,,,,,,,,,,,,0,9,9,9,1,,,,,,,,,,,,,,,,,,,,,,,,,,,,,,,,
,,,,,,,,,,,,67de1ad35cbb8f7342e3a7a2,001,3,2025-03-27_18h15.39.672,avatar_quest_3AFC_legacy,2022.1.3,Win32,59.88023952,67de1ad35cbb8f7342e3a7a2,67e5c8c9bc10e40b86efc6fc,67e5cb5687a76eff05ef2c20,,,,,,,,,,,,,,,,,,,,,,No Brainslug Difficult 1 No Money,6,images/assets/snowy_original.jpg,learning,20,images/assets/success.jpg,images/assets/gameover.jpg,,,,,,,,,,,,,0,10,10,6,1,,,,,,,,,,,,,,,,,,,,,,,,,,,,,,,,
,,,,,,,,,,,,67de1ad35cbb8f7342e3a7a2,001,3,2025-03-27_18h15.39.672,avatar_quest_3AFC_legacy,2022.1.3,Win32,59.88023952,67de1ad35cbb8f7342e3a7a2,67e5c8c9bc10e40b86efc6fc,67e5cb5687a76eff05ef2c20,,,,,,,,,,,,,,,,,,,,,,,,,,,,,,,,,,,,,,,,,,,,,,,,,,,,,,,0,0,0,0,1,,,,,,,,,,,,,,,,,,
,,,,,,,,,,,,67de1ad35cbb8f7342e3a7a2,001,3,2025-03-27_18h15.39.672,avatar_quest_3AFC_legacy,2022.1.3,Win32,59.88023952,67de1ad35cbb8f7342e3a7a2,67e5c8c9bc10e40b86efc6fc,67e5cb5687a76eff05ef2c20,,,,,,,,,,,,,,,,,,,,,,With Brainslug No Barriers With Money,0,images/assets/snowy_money.jpg,learning,10,images/assets/success_money.jpg,images/assets/gameover.jpg,,,,,,,,With Brainslug Difficult 2 No Money,With Brainslug Difficult 1 No Money,down,11.5054,"[""With Brainslug Difficult 1 No Money"",""With Brainslug Difficult 2 With Money""]",0,0,0,4,1,,,,,,,,,,,,,,,,,,,,,,,,,,,,,,,,
,,,,,,,,,,,,67de1ad35cbb8f7342e3a7a2,001,3,2025-03-27_18h15.39.672,avatar_quest_3AFC_legacy,2022.1.3,Win32,59.88023952,67de1ad35cbb8f7342e3a7a2,67e5c8c9bc10e40b86efc6fc,67e5cb5687a76eff05ef2c20,,,,,,,,,,,,,,,,,,,,,,No Brainslug Difficult 2 No Money,12,images/assets/snowy_original.jpg,learning,20,images/assets/success.jpg,images/assets/gameover.jpg,,,,,,,,,,,,,0,1,1,8,1,,,,,,,,,,,,,,,,,,,,,,,,,,,,,,,,
,,,,,,,,,,,,67de1ad35cbb8f7342e3a7a2,001,3,2025-03-27_18h15.39.672,avatar_quest_3AFC_legacy,2022.1.3,Win32,59.88023952,67de1ad35cbb8f7342e3a7a2,67e5c8c9bc10e40b86efc6fc,67e5cb5687a76eff05ef2c20,,,,,,,,,,,,,,,,,,,,,,No Brainslug No Barriers No Money,0,images/assets/snowy_original.jpg,learning,10,images/assets/success.jpg,images/assets/gameover.jpg,,,,,,,,,,,,,0,2,2,10,1,,,,,,,,,,,,,,,,,,,,,,,,,,,,,,,,
,,,,,,,,,,,,67de1ad35cbb8f7342e3a7a2,001,3,2025-03-27_18h15.39.672,avatar_quest_3AFC_legacy,2022.1.3,Win32,59.88023952,67de1ad35cbb8f7342e3a7a2,67e5c8c9bc10e40b86efc6fc,67e5cb5687a76eff05ef2c20,,,,,,,,,,,,,,,,,,,,,,No Brainslug Difficult 2 With Money,12,images/assets/snowy_money.jpg,learning,20,images/assets/success_money.jpg,images/assets/gameover.jpg,,,,,,,,,,,,,0,3,3,7,1,,,,,,,,,,,,,,,,,,,,,,,,,,,,,,,,
,,,,,,,,,,,,67de1ad35cbb8f7342e3a7a2,001,3,2025-03-27_18h15.39.672,avatar_quest_3AFC_legacy,2022.1.3,Win32,59.88023952,67de1ad35cbb8f7342e3a7a2,67e5c8c9bc10e40b86efc6fc,67e5cb5687a76eff05ef2c20,"[""left"",""down"",""down"",""right"",""right"",""left"",""left"",""up"",""down"",""left"",""right""]","[1.1492999999522908,2.7142999999523454,4.415699999809249,5.1749999999999545,5.573999999999955,5.889099999904602,6.644999999999982,8.067199999809304,8.562699999809297,8.958199999809267,10.092999999999961]",,calibration,With Brainslug Difficult 2 No Money,5,10.1999,10.2029,3,2,0,FALSE,na,na,na,na,,,,,,,,,,,,,,,,,,,,,,,,,,,,,,,,,,0,0,0,0,1,,,,,,,,,,,,,,,,,,,,,,,
,,,,,,,,,,,,67de1ad35cbb8f7342e3a7a2,001,3,2025-03-27_18h15.39.672,avatar_quest_3AFC_legacy,2022.1.3,Win32,59.88023952,67de1ad35cbb8f7342e3a7a2,67e5c8c9bc10e40b86efc6fc,67e5cb5687a76eff05ef2c20,,,,,,,,,,,,,,,,,,,,,,With Brainslug Difficult 2 No Money,12,images/assets/snowy_original.jpg,learning,20,images/assets/success.jpg,images/assets/gameover.jpg,,,,,,,,,,,,,0,4,4,3,1,,,,,,,,,,,,,,,,,,,,,,,,,,,,,,,,
,,,,,,,,,,,,67de1ad35cbb8f7342e3a7a2,001,3,2025-03-27_18h15.39.672,avatar_quest_3AFC_legacy,2022.1.3,Win32,59.88023952,67de1ad35cbb8f7342e3a7a2,67e5c8c9bc10e40b86efc6fc,67e5cb5687a76eff05ef2c20,,,,,,,,,,,,,,,,,,,,,,No Brainslug No Barriers With Money,0,images/assets/snowy_money.jpg,learning,10,images/assets/success_money.jpg,images/assets/gameover.jpg,,,,,,,,,,,,,0,5,5,9,1,,,,,,,,,,,,,,,,,,,,,,,,,,,,,,,,
,,,,,,,,,,,,67de1ad35cbb8f7342e3a7a2,001,3,2025-03-27_18h15.39.672,avatar_quest_3AFC_legacy,2022.1.3,Win32,59.88023952,67de1ad35cbb8f7342e3a7a2,67e5c8c9bc10e40b86efc6fc,67e5cb5687a76eff05ef2c20,,,,,,,,,,,,,,,,,,,,,,With Brainslug Difficult 2 With Money,12,images/assets/snowy_money.jpg,learning,20,images/assets/success_money.jpg,images/assets/gameover.jpg,,,,,,,,,,,,,0,6,6,2,1,,,,,,,,,,,,,,,,,,,,,,,,,,,,,,,,
,,,,,,,,,,,,67de1ad35cbb8f7342e3a7a2,001,3,2025-03-27_18h15.39.672,avatar_quest_3AFC_legacy,2022.1.3,Win32,59.88023952,67de1ad35cbb8f7342e3a7a2,67e5c8c9bc10e40b86efc6fc,67e5cb5687a76eff05ef2c20,,,,,,,,,,,,,,,,,,,,,,No Brainslug Difficult 1 No Money,6,images/assets/snowy_original.jpg,learning,20,images/assets/success.jpg,images/assets/gameover.jpg,,,,,,,,,,,,,0,7,7,6,1,,,,,,,,,,,,,,,,,,,,,,,,,,,,,,,,
,,,,,,,,,,,,67de1ad35cbb8f7342e3a7a2,001,3,2025-03-27_18h15.39.672,avatar_quest_3AFC_legacy,2022.1.3,Win32,59.88023952,67de1ad35cbb8f7342e3a7a2,67e5c8c9bc10e40b86efc6fc,67e5cb5687a76eff05ef2c20,,,,,,,,,,,,,,,,,,,,,,With Brainslug No Barriers No Money,0,images/assets/snowy_original.jpg,learning,10,images/assets/success.jpg,images/assets/gameover.jpg,,,,,,,,,,,,,0,8,8,5,1,,,,,,,,,,,,,,,,,,,,,,,,,,,,,,,,
,,,,,,,,,,,,67de1ad35cbb8f7342e3a7a2,001,3,2025-03-27_18h15.39.672,avatar_quest_3AFC_legacy,2022.1.3,Win32,59.88023952,67de1ad35cbb8f7342e3a7a2,67e5c8c9bc10e40b86efc6fc,67e5cb5687a76eff05ef2c20,,,,,,,,,,,,,,,,,,,,,,With Brainslug Difficult 1 With Money,6,images/assets/snowy_money.jpg,learning,20,images/assets/success_money.jpg,images/assets/gameover.jpg,,,,,,,,,,,,,0,9,9,0,1,,,,,,,,,,,,,,,,,,,,,,,,,,,,,,,,
,,,,,,,,,,,,67de1ad35cbb8f7342e3a7a2,001,3,2025-03-27_18h15.39.672,avatar_quest_3AFC_legacy,2022.1.3,Win32,59.88023952,67de1ad35cbb8f7342e3a7a2,67e5c8c9bc10e40b86efc6fc,67e5cb5687a76eff05ef2c20,,,,,,,,,,,,,,,,,,,,,,With Brainslug Difficult 1 No Money,6,images/assets/snowy_original.jpg,learning,20,images/assets/success.jpg,images/assets/gameover.jpg,,,,,,,,,,,,,0,10,10,1,1,,,,,,,,,,,,,,,,,,,,,,,,,,,,,,,,
,,,,,,,,,,,,67de1ad35cbb8f7342e3a7a2,001,3,2025-03-27_18h15.39.672,avatar_quest_3AFC_legacy,2022.1.3,Win32,59.88023952,67de1ad35cbb8f7342e3a7a2,67e5c8c9bc10e40b86efc6fc,67e5cb5687a76eff05ef2c20,,,,,,,,,,,,,,,,,,,,,,,,,,,,,,,,,,,,,,,,,,,,,,,,,,,,,,,1,0,1,0,1,,,,,,,,,,,,,,,,,,
,,,,,,,,,,,,67de1ad35cbb8f7342e3a7a2,001,3,2025-03-27_18h15.39.672,avatar_quest_3AFC_legacy,2022.1.3,Win32,59.88023952,67de1ad35cbb8f7342e3a7a2,67e5c8c9bc10e40b86efc6fc,67e5cb5687a76eff05ef2c20,"[""left"",""left"",""right"",""left"",""right"",""left"",""left"",""right"",""left"",""right""]","[2.168700000047693,2.941600000143012,3.9320000000000164,4.585500000000025,5.406299999952353,5.5436000001429875,6.050700000047641,7.116999999999962,7.7309999999999945,9.235299999952304]",,calibration,With Brainslug Difficult 2 With Money,6,10.1999,10.2003,3,4,0,FALSE,na,na,na,na,,,,,,,,,,,,,,,,,,,,With Brainslug Difficult 2 With Money,With Brainslug Difficult 1 No Money,right,11.8256,"[""With Brainslug Difficult 1 No Money"",""With Brainslug Difficult 2 No Money""]",,,,,,,,,,0,0,0,0,1,,,,,,,,,,,,,,,,,,,,,,,
,,,,,,,,,,,,67de1ad35cbb8f7342e3a7a2,001,3,2025-03-27_18h15.39.672,avatar_quest_3AFC_legacy,2022.1.3,Win32,59.88023952,67de1ad35cbb8f7342e3a7a2,67e5c8c9bc10e40b86efc6fc,67e5cb5687a76eff05ef2c20,,,,,,,,,,,,,,,,,,,,,,With Brainslug Difficult 2 With Money,12,images/assets/snowy_money.jpg,learning,20,images/assets/success_money.jpg,images/assets/gameover.jpg,,,,,,,,,,,,,0,0,0,2,1,,,,,,,,,,,,,,,,,,,,,,,,,,,,,,,,
,,,,,,,,,,,,67de1ad35cbb8f7342e3a7a2,001,3,2025-03-27_18h15.39.672,avatar_quest_3AFC_legacy,2022.1.3,Win32,59.88023952,67de1ad35cbb8f7342e3a7a2,67e5c8c9bc10e40b86efc6fc,67e5cb5687a76eff05ef2c20,,,,,,,,,,,,,,,,,,,,,,With Brainslug Difficult 1 No Money,6,images/assets/snowy_original.jpg,learning,20,images/assets/success.jpg,images/assets/gameover.jpg,,,,,,,,,,,,,0,1,1,1,1,,,,,,,,,,,,,,,,,,,,,,,,,,,,,,,,
,,,,,,,,,,,,67de1ad35cbb8f7342e3a7a2,001,3,2025-03-27_18h15.39.672,avatar_quest_3AFC_legacy,2022.1.3,Win32,59.88023952,67de1ad35cbb8f7342e3a7a2,67e5c8c9bc10e40b86efc6fc,67e5cb5687a76eff05ef2c20,,,,,,,,,,,,,,,,,,,,,,No Brainslug Difficult 2 No Money,12,images/assets/snowy_original.jpg,learning,20,images/assets/success.jpg,images/assets/gameover.jpg,,,,,,,,,,,,,0,2,2,8,1,,,,,,,,,,,,,,,,,,,,,,,,,,,,,,,,
,,,,,,,,,,,,67de1ad35cbb8f7342e3a7a2,001,3,2025-03-27_18h15.39.672,avatar_quest_3AFC_legacy,2022.1.3,Win32,59.88023952,67de1ad35cbb8f7342e3a7a2,67e5c8c9bc10e40b86efc6fc,67e5cb5687a76eff05ef2c20,,,,,,,,,,,,,,,,,,,,,,No Brainslug No Barriers No Money,0,images/assets/snowy_original.jpg,learning,10,images/assets/success.jpg,images/assets/gameover.jpg,,,,,,,,,,,,,0,3,3,10,1,,,,,,,,,,,,,,,,,,,,,,,,,,,,,,,,
,,,,,,,,,,,,67de1ad35cbb8f7342e3a7a2,001,3,2025-03-27_18h15.39.672,avatar_quest_3AFC_legacy,2022.1.3,Win32,59.88023952,67de1ad35cbb8f7342e3a7a2,67e5c8c9bc10e40b86efc6fc,67e5cb5687a76eff05ef2c20,,,,,,,,,,,,,,,,,,,,,,With Brainslug Difficult 1 With Money,6,images/assets/snowy_money.jpg,learning,20,images/assets/success_money.jpg,images/assets/gameover.jpg,,,,,,,,,,,,,0,4,4,0,1,,,,,,,,,,,,,,,,,,,,,,,,,,,,,,,,
,,,,,,,,,,,,67de1ad35cbb8f7342e3a7a2,001,3,2025-03-27_18h15.39.672,avatar_quest_3AFC_legacy,2022.1.3,Win32,59.88023952,67de1ad35cbb8f7342e3a7a2,67e5c8c9bc10e40b86efc6fc,67e5cb5687a76eff05ef2c20,,,,,,,,,,,,,,,,,,,,,,With Brainslug Difficult 2 No Money,12,images/assets/snowy_original.jpg,learning,20,images/assets/success.jpg,images/assets/gameover.jpg,,,,,,,,,,,,,0,5,5,3,1,,,,,,,,,,,,,,,,,,,,,,,,,,,,,,,,
,,,,,,,,,,,,67de1ad35cbb8f7342e3a7a2,001,3,2025-03-27_18h15.39.672,avatar_quest_3AFC_legacy,2022.1.3,Win32,59.88023952,67de1ad35cbb8f7342e3a7a2,67e5c8c9bc10e40b86efc6fc,67e5cb5687a76eff05ef2c20,,,,,,,,,,,,,,,,,,,,,,With Brainslug No Barriers No Money,0,images/assets/snowy_original.jpg,learning,10,images/assets/success.jpg,images/assets/gameover.jpg,,,,,,,,,,,,,0,6,6,5,1,,,,,,,,,,,,,,,,,,,,,,,,,,,,,,,,
,,,,,,,,,,,,67de1ad35cbb8f7342e3a7a2,001,3,2025-03-27_18h15.39.672,avatar_quest_3AFC_legacy,2022.1.3,Win32,59.88023952,67de1ad35cbb8f7342e3a7a2,67e5c8c9bc10e40b86efc6fc,67e5cb5687a76eff05ef2c20,,,,,,,,,,,,,,,,,,,,,,No Brainslug Difficult 1 No Money,6,images/assets/snowy_original.jpg,learning,20,images/assets/success.jpg,images/assets/gameover.jpg,,,,,,,,,,,,,0,7,7,6,1,,,,,,,,,,,,,,,,,,,,,,,,,,,,,,,,
,,,,,,,,,,,,67de1ad35cbb8f7342e3a7a2,001,3,2025-03-27_18h15.39.672,avatar_quest_3AFC_legacy,2022.1.3,Win32,59.88023952,67de1ad35cbb8f7342e3a7a2,67e5c8c9bc10e40b86efc6fc,67e5cb5687a76eff05ef2c20,,,,,,,,,,,,,,,,,,,,,,With Brainslug No Barriers With Money,0,images/assets/snowy_money.jpg,learning,10,images/assets/success_money.jpg,images/assets/gameover.jpg,,,,,,,,,,,,,0,8,8,4,1,,,,,,,,,,,,,,,,,,,,,,,,,,,,,,,,
,,,,,,,,,,,,67de1ad35cbb8f7342e3a7a2,001,3,2025-03-27_18h15.39.672,avatar_quest_3AFC_legacy,2022.1.3,Win32,59.88023952,67de1ad35cbb8f7342e3a7a2,67e5c8c9bc10e40b86efc6fc,67e5cb5687a76eff05ef2c20,,,,,,,,,,,,,,,,,,,,,,No Brainslug No Barriers With Money,0,images/assets/snowy_money.jpg,learning,10,images/assets/success_money.jpg,images/assets/gameover.jpg,,,,,,,,,,,,,0,9,9,9,1,,,,,,,,,,,,,,,,,,,,,,,,,,,,,,,,
,,,,,,,,,,,,67de1ad35cbb8f7342e3a7a2,001,3,2025-03-27_18h15.39.672,avatar_quest_3AFC_legacy,2022.1.3,Win32,59.88023952,67de1ad35cbb8f7342e3a7a2,67e5c8c9bc10e40b86efc6fc,67e5cb5687a76eff05ef2c20,,,,,,,,,,,,,,,,,,,,,,No Brainslug Difficult 2 With Money,12,images/assets/snowy_money.jpg,learning,20,images/assets/success_money.jpg,images/assets/gameover.jpg,,,,,,,,,,,,,0,10,10,7,1,,,,,,,,,,,,,,,,,,,,,,,,,,,,,,,,
,,,,,,,,,,,,67de1ad35cbb8f7342e3a7a2,001,3,2025-03-27_18h15.39.672,avatar_quest_3AFC_legacy,2022.1.3,Win32,59.88023952,67de1ad35cbb8f7342e3a7a2,67e5c8c9bc10e40b86efc6fc,67e5cb5687a76eff05ef2c20,,,,,,,,,,,,,,,,,,,,,,,,,,,,,,,,,,,,,,,,,,,,,,,,,,,,,,,2,0,2,0,1,,,,,,,,,,,,,,,,,,
,,,,,,,,,,,,67de1ad35cbb8f7342e3a7a2,001,3,2025-03-27_18h15.39.672,avatar_quest_3AFC_legacy,2022.1.3,Win32,59.88023952,67de1ad35cbb8f7342e3a7a2,67e5c8c9bc10e40b86efc6fc,67e5cb5687a76eff05ef2c20,,,,,,,,,,,,,,,,,,,,,,With Brainslug Difficult 2 No Money,12,images/assets/snowy_original.jpg,learning,20,images/assets/success.jpg,images/assets/gameover.jpg,,,,,,,,With Brainslug Difficult 1 No Money,With Brainslug Difficult 1 No Money,left,1.1472,"[""With Brainslug Difficult 2 No Money"",""With Brainslug Difficult 2 With Money""]",0,0,0,3,1,,,,,,,,,,,,,,,,,,,,,,,,,,,,,,,,
,,,,,,,,,,,,67de1ad35cbb8f7342e3a7a2,001,3,2025-03-27_18h15.39.672,avatar_quest_3AFC_legacy,2022.1.3,Win32,59.88023952,67de1ad35cbb8f7342e3a7a2,67e5c8c9bc10e40b86efc6fc,67e5cb5687a76eff05ef2c20,,,,,,,,,,,,,,,,,,,,,,No Brainslug Difficult 1 No Money,6,images/assets/snowy_original.jpg,learning,20,images/assets/success.jpg,images/assets/gameover.jpg,,,,,,,,,,,,,0,1,1,6,1,,,,,,,,,,,,,,,,,,,,,,,,,,,,,,,,
,,,,,,,,,,,,67de1ad35cbb8f7342e3a7a2,001,3,2025-03-27_18h15.39.672,avatar_quest_3AFC_legacy,2022.1.3,Win32,59.88023952,67de1ad35cbb8f7342e3a7a2,67e5c8c9bc10e40b86efc6fc,67e5cb5687a76eff05ef2c20,"[""left"",""right"",""left"",""left"",""left"",""right"",""right"",""left"",""left"",""left"",""left"",""left"",""right"",""left"",""left""]","[1.1070999999045625,1.7940999999045744,2.7762999999522435,3.132900000095333,3.4660999999046,4.36690000009537,4.768200000047614,5.3947999999522835,5.878299999952333,6.354599999904622,7.047299999952315,7.294900000095367,7.31929999995225,7.981400000095391,8.40140000009535]",,calibration,With Brainslug Difficult 1 No Money,7,10.1999,10.2189,5,4,0,FALSE,na,na,na,na,,,,,,,,,,,,,,,,,,,,,,,,,,,,,,,,,,0,0,0,0,1,,,,,,,,,,,,,,,,,,,,,,,
,,,,,,,,,,,,67de1ad35cbb8f7342e3a7a2,001,3,2025-03-27_18h15.39.672,avatar_quest_3AFC_legacy,2022.1.3,Win32,59.88023952,67de1ad35cbb8f7342e3a7a2,67e5c8c9bc10e40b86efc6fc,67e5cb5687a76eff05ef2c20,,,,,,,,,,,,,,,,,,,,,,With Brainslug Difficult 1 No Money,6,images/assets/snowy_original.jpg,learning,20,images/assets/success.jpg,images/assets/gameover.jpg,,,,,,,,,,,,,0,2,2,1,1,,,,,,,,,,,,,,,,,,,,,,,,,,,,,,,,
,,,,,,,,,,,,67de1ad35cbb8f7342e3a7a2,001,3,2025-03-27_18h15.39.672,avatar_quest_3AFC_legacy,2022.1.3,Win32,59.88023952,67de1ad35cbb8f7342e3a7a2,67e5c8c9bc10e40b86efc6fc,67e5cb5687a76eff05ef2c20,,,,,,,,,,,,,,,,,,,,,,With Brainslug Difficult 2 With Money,12,images/assets/snowy_money.jpg,learning,20,images/assets/success_money.jpg,images/assets/gameover.jpg,,,,,,,,,,,,,0,3,3,2,1,,,,,,,,,,,,,,,,,,,,,,,,,,,,,,,,
,,,,,,,,,,,,67de1ad35cbb8f7342e3a7a2,001,3,2025-03-27_18h15.39.672,avatar_quest_3AFC_legacy,2022.1.3,Win32,59.88023952,67de1ad35cbb8f7342e3a7a2,67e5c8c9bc10e40b86efc6fc,67e5cb5687a76eff05ef2c20,,,,,,,,,,,,,,,,,,,,,,With Brainslug No Barriers With Money,0,images/assets/snowy_money.jpg,learning,10,images/assets/success_money.jpg,images/assets/gameover.jpg,,,,,,,,,,,,,0,4,4,4,1,,,,,,,,,,,,,,,,,,,,,,,,,,,,,,,,
,,,,,,,,,,,,67de1ad35cbb8f7342e3a7a2,001,3,2025-03-27_18h15.39.672,avatar_quest_3AFC_legacy,2022.1.3,Win32,59.88023952,67de1ad35cbb8f7342e3a7a2,67e5c8c9bc10e40b86efc6fc,67e5cb5687a76eff05ef2c20,,,,,,,,,,,,,,,,,,,,,,No Brainslug Difficult 2 No Money,12,images/assets/snowy_original.jpg,learning,20,images/assets/success.jpg,images/assets/gameover.jpg,,,,,,,,,,,,,0,5,5,8,1,,,,,,,,,,,,,,,,,,,,,,,,,,,,,,,,
,,,,,,,,,,,,67de1ad35cbb8f7342e3a7a2,001,3,2025-03-27_18h15.39.672,avatar_quest_3AFC_legacy,2022.1.3,Win32,59.88023952,67de1ad35cbb8f7342e3a7a2,67e5c8c9bc10e40b86efc6fc,67e5cb5687a76eff05ef2c20,,,,,,,,,,,,,,,,,,,,,,No Brainslug Difficult 2 With Money,12,images/assets/snowy_money.jpg,learning,20,images/assets/success_money.jpg,images/assets/gameover.jpg,,,,,,,,,,,,,0,6,6,7,1,,,,,,,,,,,,,,,,,,,,,,,,,,,,,,,,
,,,,,,,,,,,,67de1ad35cbb8f7342e3a7a2,001,3,2025-03-27_18h15.39.672,avatar_quest_3AFC_legacy,2022.1.3,Win32,59.88023952,67de1ad35cbb8f7342e3a7a2,67e5c8c9bc10e40b86efc6fc,67e5cb5687a76eff05ef2c20,,,,,,,,,,,,,,,,,,,,,,With Brainslug No Barriers No Money,0,images/assets/snowy_original.jpg,learning,10,images/assets/success.jpg,images/assets/gameover.jpg,,,,,,,,,,,,,0,7,7,5,1,,,,,,,,,,,,,,,,,,,,,,,,,,,,,,,,
,,,,,,,,,,,,67de1ad35cbb8f7342e3a7a2,001,3,2025-03-27_18h15.39.672,avatar_quest_3AFC_legacy,2022.1.3,Win32,59.88023952,67de1ad35cbb8f7342e3a7a2,67e5c8c9bc10e40b86efc6fc,67e5cb5687a76eff05ef2c20,,,,,,,,,,,,,,,,,,,,,,With Brainslug Difficult 1 With Money,6,images/assets/snowy_money.jpg,learning,20,images/assets/success_money.jpg,images/assets/gameover.jpg,,,,,,,,,,,,,0,8,8,0,1,,,,,,,,,,,,,,,,,,,,,,,,,,,,,,,,
,,,,,,,,,,,,67de1ad35cbb8f7342e3a7a2,001,3,2025-03-27_18h15.39.672,avatar_quest_3AFC_legacy,2022.1.3,Win32,59.88023952,67de1ad35cbb8f7342e3a7a2,67e5c8c9bc10e40b86efc6fc,67e5cb5687a76eff05ef2c20,,,,,,,,,,,,,,,,,,,,,,No Brainslug No Barriers With Money,0,images/assets/snowy_money.jpg,learning,10,images/assets/success_money.jpg,images/assets/gameover.jpg,,,,,,,,,,,,,0,9,9,9,1,,,,,,,,,,,,,,,,,,,,,,,,,,,,,,,,
,,,,,,,,,,,,67de1ad35cbb8f7342e3a7a2,001,3,2025-03-27_18h15.39.672,avatar_quest_3AFC_legacy,2022.1.3,Win32,59.88023952,67de1ad35cbb8f7342e3a7a2,67e5c8c9bc10e40b86efc6fc,67e5cb5687a76eff05ef2c20,,,,,,,,,,,,,,,,,,,,,,No Brainslug No Barriers No Money,0,images/assets/snowy_original.jpg,learning,10,images/assets/success.jpg,images/assets/gameover.jpg,,,,,,,,,,,,,0,10,10,10,1,,,,,,,,,,,,,,,,,,,,,,,,,,,,,,,,
,,,,,,,,,,,,67de1ad35cbb8f7342e3a7a2,001,3,2025-03-27_18h15.39.672,avatar_quest_3AFC_legacy,2022.1.3,Win32,59.88023952,67de1ad35cbb8f7342e3a7a2,67e5c8c9bc10e40b86efc6fc,67e5cb5687a76eff05ef2c20,,,,,,,,,,,,,,,,,,,,,,,,,,,,,,,,,,,,,,,,,,,,,,,,,,,,,,,3,0,3,0,1,,,,,,,,,,,,,,,,,,
,,,,,,,,,,,,67de1ad35cbb8f7342e3a7a2,001,3,2025-03-27_18h15.39.672,avatar_quest_3AFC_legacy,2022.1.3,Win32,59.88023952,67de1ad35cbb8f7342e3a7a2,67e5c8c9bc10e40b86efc6fc,67e5cb5687a76eff05ef2c20,,,,,,,,,,,,,,,,,,,,,,With Brainslug No Barriers No Money,0,images/assets/snowy_original.jpg,learning,10,images/assets/success.jpg,images/assets/gameover.jpg,,,,,,,,With Brainslug Difficult 1 No Money,With Brainslug Difficult 1 No Money,left,0.1078,"[""With Brainslug Difficult 2 No Money"",""With Brainslug Difficult 2 With Money""]",0,0,0,5,1,,,,,,,,,,,,,,,,,,,,,,,,,,,,,,,,
,,,,,,,,,,,,67de1ad35cbb8f7342e3a7a2,001,3,2025-03-27_18h15.39.672,avatar_quest_3AFC_legacy,2022.1.3,Win32,59.88023952,67de1ad35cbb8f7342e3a7a2,67e5c8c9bc10e40b86efc6fc,67e5cb5687a76eff05ef2c20,,,,,,,,,,,,,,,,,,,,,,With Brainslug Difficult 2 No Money,12,images/assets/snowy_original.jpg,learning,20,images/assets/success.jpg,images/assets/gameover.jpg,,,,,,,,,,,,,0,1,1,3,1,,,,,,,,,,,,,,,,,,,,,,,,,,,,,,,,
,,,,,,,,,,,,67de1ad35cbb8f7342e3a7a2,001,3,2025-03-27_18h15.39.672,avatar_quest_3AFC_legacy,2022.1.3,Win32,59.88023952,67de1ad35cbb8f7342e3a7a2,67e5c8c9bc10e40b86efc6fc,67e5cb5687a76eff05ef2c20,,,,,,,,,,,,,,,,,,,,,,With Brainslug No Barriers With Money,0,images/assets/snowy_money.jpg,learning,10,images/assets/success_money.jpg,images/assets/gameover.jpg,,,,,,,,,,,,,0,2,2,4,1,,,,,,,,,,,,,,,,,,,,,,,,,,,,,,,,
,,,,,,,,,,,,67de1ad35cbb8f7342e3a7a2,001,3,2025-03-27_18h15.39.672,avatar_quest_3AFC_legacy,2022.1.3,Win32,59.88023952,67de1ad35cbb8f7342e3a7a2,67e5c8c9bc10e40b86efc6fc,67e5cb5687a76eff05ef2c20,,,,,,,,,,,,,,,,,,,,,,No Brainslug Difficult 1 No Money,6,images/assets/snowy_original.jpg,learning,20,images/assets/success.jpg,images/assets/gameover.jpg,,,,,,,,,,,,,0,3,3,6,1,,,,,,,,,,,,,,,,,,,,,,,,,,,,,,,,
,,,,,,,,,,,,67de1ad35cbb8f7342e3a7a2,001,3,2025-03-27_18h15.39.672,avatar_quest_3AFC_legacy,2022.1.3,Win32,59.88023952,67de1ad35cbb8f7342e3a7a2,67e5c8c9bc10e40b86efc6fc,67e5cb5687a76eff05ef2c20,,,,,,,,,,,,,,,,,,,,,,No Brainslug Difficult 2 No Money,12,images/assets/snowy_original.jpg,learning,20,images/assets/success.jpg,images/assets/gameover.jpg,,,,,,,,,,,,,0,4,4,8,1,,,,,,,,,,,,,,,,,,,,,,,,,,,,,,,,
,,,,,,,,,,,,67de1ad35cbb8f7342e3a7a2,001,3,2025-03-27_18h15.39.672,avatar_quest_3AFC_legacy,2022.1.3,Win32,59.88023952,67de1ad35cbb8f7342e3a7a2,67e5c8c9bc10e40b86efc6fc,67e5cb5687a76eff05ef2c20,,,,,,,,,,,,,,,,,,,,,,With Brainslug Difficult 2 With Money,12,images/assets/snowy_money.jpg,learning,20,images/assets/success_money.jpg,images/assets/gameover.jpg,,,,,,,,,,,,,0,5,5,2,1,,,,,,,,,,,,,,,,,,,,,,,,,,,,,,,,
,,,,,,,,,,,,67de1ad35cbb8f7342e3a7a2,001,3,2025-03-27_18h15.39.672,avatar_quest_3AFC_legacy,2022.1.3,Win32,59.88023952,67de1ad35cbb8f7342e3a7a2,67e5c8c9bc10e40b86efc6fc,67e5cb5687a76eff05ef2c20,,,,,,,,,,,,,,,,,,,,,,No Brainslug No Barriers No Money,0,images/assets/snowy_original.jpg,learning,10,images/assets/success.jpg,images/assets/gameover.jpg,,,,,,,,,,,,,0,6,6,10,1,,,,,,,,,,,,,,,,,,,,,,,,,,,,,,,,
,,,,,,,,,,,,67de1ad35cbb8f7342e3a7a2,001,3,2025-03-27_18h15.39.672,avatar_quest_3AFC_legacy,2022.1.3,Win32,59.88023952,67de1ad35cbb8f7342e3a7a2,67e5c8c9bc10e40b86efc6fc,67e5cb5687a76eff05ef2c20,"[""left"",""right"",""left"",""right"",""right"",""right"",""left"",""right"",""right"",""right"",""left""]","[0.8172999999522972,1.8465999999045835,2.3172000000477055,3.3434000000953574,4.590299999952322,5.243400000095335,5.912799999952313,6.663900000095396,7.316700000047717,8.006700000047658,8.887900000095328]",,calibration,With Brainslug Difficult 1 No Money,8,10.1999,9.6262,5,4,0,TRUE,na,na,na,na,,,,,,,,,,,,,,,,,,,,,,,,,,,,,,,,,,0,0,0,0,1,,,,,,,,,,,,,,,,,,,,,,,
,,,,,,,,,,,,67de1ad35cbb8f7342e3a7a2,001,3,2025-03-27_18h15.39.672,avatar_quest_3AFC_legacy,2022.1.3,Win32,59.88023952,67de1ad35cbb8f7342e3a7a2,67e5c8c9bc10e40b86efc6fc,67e5cb5687a76eff05ef2c20,,,,,,,,,,,,,,,,,,,,,,With Brainslug Difficult 1 No Money,6,images/assets/snowy_original.jpg,learning,20,images/assets/success.jpg,images/assets/gameover.jpg,,,,,,,,,,,,,0,7,7,1,1,,,,,,,,,,,,,,,,,,,,,,,,,,,,,,,,
,,,,,,,,,,,,67de1ad35cbb8f7342e3a7a2,001,3,2025-03-27_18h15.39.672,avatar_quest_3AFC_legacy,2022.1.3,Win32,59.88023952,67de1ad35cbb8f7342e3a7a2,67e5c8c9bc10e40b86efc6fc,67e5cb5687a76eff05ef2c20,,,,,,,,,,,,,,,,,,,,,,With Brainslug Difficult 1 With Money,6,images/assets/snowy_money.jpg,learning,20,images/assets/success_money.jpg,images/assets/gameover.jpg,,,,,,,,,,,,,0,8,8,0,1,,,,,,,,,,,,,,,,,,,,,,,,,,,,,,,,
,,,,,,,,,,,,67de1ad35cbb8f7342e3a7a2,001,3,2025-03-27_18h15.39.672,avatar_quest_3AFC_legacy,2022.1.3,Win32,59.88023952,67de1ad35cbb8f7342e3a7a2,67e5c8c9bc10e40b86efc6fc,67e5cb5687a76eff05ef2c20,,,,,,,,,,,,,,,,,,,,,,No Brainslug No Barriers With Money,0,images/assets/snowy_money.jpg,learning,10,images/assets/success_money.jpg,images/assets/gameover.jpg,,,,,,,,,,,,,0,9,9,9,1,,,,,,,,,,,,,,,,,,,,,,,,,,,,,,,,
,,,,,,,,,,,,67de1ad35cbb8f7342e3a7a2,001,3,2025-03-27_18h15.39.672,avatar_quest_3AFC_legacy,2022.1.3,Win32,59.88023952,67de1ad35cbb8f7342e3a7a2,67e5c8c9bc10e40b86efc6fc,67e5cb5687a76eff05ef2c20,,,,,,,,,,,,,,,,,,,,,,No Brainslug Difficult 2 With Money,12,images/assets/snowy_money.jpg,learning,20,images/assets/success_money.jpg,images/assets/gameover.jpg,,,,,,,,,,,,,0,10,10,7,1,,,,,,,,,,,,,,,,,,,,,,,,,,,,,,,,
,,,,,,,,,,,,67de1ad35cbb8f7342e3a7a2,001,3,2025-03-27_18h15.39.672,avatar_quest_3AFC_legacy,2022.1.3,Win32,59.88023952,67de1ad35cbb8f7342e3a7a2,67e5c8c9bc10e40b86efc6fc,67e5cb5687a76eff05ef2c20,,,,,,,,,,,,,,,,,,,,,,,,,,,,,,,,,,,,,,,,,,,,,,,,,,,,,,,4,0,4,0,1,,,,,,,,,,,,,,,,,,
,,,,,,,,,,,,67de1ad35cbb8f7342e3a7a2,001,3,2025-03-27_18h15.39.672,avatar_quest_3AFC_legacy,2022.1.3,Win32,59.88023952,67de1ad35cbb8f7342e3a7a2,67e5c8c9bc10e40b86efc6fc,67e5cb5687a76eff05ef2c20,,,,,,,,,,,,,,,,,,,,,,No Brainslug No Barriers With Money,0,images/assets/snowy_money.jpg,learning,10,images/assets/success_money.jpg,images/assets/gameover.jpg,,,,,,,,With Brainslug Difficult 1 No Money,With Brainslug Difficult 1 No Money,left,1.1794,"[""With Brainslug Difficult 2 No Money"",""With Brainslug Difficult 2 With Money""]",0,0,0,9,1,,,,,,,,,,,,,,,,,,,,,,,,,,,,,,,,
,,,,,,,,,,,,67de1ad35cbb8f7342e3a7a2,001,3,2025-03-27_18h15.39.672,avatar_quest_3AFC_legacy,2022.1.3,Win32,59.88023952,67de1ad35cbb8f7342e3a7a2,67e5c8c9bc10e40b86efc6fc,67e5cb5687a76eff05ef2c20,,,,,,,,,,,,,,,,,,,,,,With Brainslug Difficult 2 With Money,12,images/assets/snowy_money.jpg,learning,20,images/assets/success_money.jpg,images/assets/gameover.jpg,,,,,,,,,,,,,0,1,1,2,1,,,,,,,,,,,,,,,,,,,,,,,,,,,,,,,,
,,,,,,,,,,,,67de1ad35cbb8f7342e3a7a2,001,3,2025-03-27_18h15.39.672,avatar_quest_3AFC_legacy,2022.1.3,Win32,59.88023952,67de1ad35cbb8f7342e3a7a2,67e5c8c9bc10e40b86efc6fc,67e5cb5687a76eff05ef2c20,,,,,,,,,,,,,,,,,,,,,,No Brainslug Difficult 2 With Money,12,images/assets/snowy_money.jpg,learning,20,images/assets/success_money.jpg,images/assets/gameover.jpg,,,,,,,,,,,,,0,2,2,7,1,,,,,,,,,,,,,,,,,,,,,,,,,,,,,,,,
,,,,,,,,,,,,67de1ad35cbb8f7342e3a7a2,001,3,2025-03-27_18h15.39.672,avatar_quest_3AFC_legacy,2022.1.3,Win32,59.88023952,67de1ad35cbb8f7342e3a7a2,67e5c8c9bc10e40b86efc6fc,67e5cb5687a76eff05ef2c20,,,,,,,,,,,,,,,,,,,,,,No Brainslug Difficult 2 No Money,12,images/assets/snowy_original.jpg,learning,20,images/assets/success.jpg,images/assets/gameover.jpg,,,,,,,,,,,,,0,3,3,8,1,,,,,,,,,,,,,,,,,,,,,,,,,,,,,,,,
,,,,,,,,,,,,67de1ad35cbb8f7342e3a7a2,001,3,2025-03-27_18h15.39.672,avatar_quest_3AFC_legacy,2022.1.3,Win32,59.88023952,67de1ad35cbb8f7342e3a7a2,67e5c8c9bc10e40b86efc6fc,67e5cb5687a76eff05ef2c20,"[""right"",""left"",""left"",""left"",""left"",""left"",""right"",""left"",""left"",""right"",""left"",""right"",""right"",""right""]","[1.1989000000953638,2.4244000000953747,2.810299999952349,3.207499999999982,3.6004000000954193,5.183200000047691,5.540099999904669,6.18909999990467,6.6447999999522835,7.459200000047645,8.470299999952317,9.393500000000017,9.682500000000005,9.919200000047681]",,calibration,With Brainslug Difficult 1 No Money,9,10.1999,10.2069,3,2,0,FALSE,na,na,na,na,,,,,,,,,,,,,,,,,,,,,,,,,,,,,,,,,,0,0,0,0,1,,,,,,,,,,,,,,,,,,,,,,,
,,,,,,,,,,,,67de1ad35cbb8f7342e3a7a2,001,3,2025-03-27_18h15.39.672,avatar_quest_3AFC_legacy,2022.1.3,Win32,59.88023952,67de1ad35cbb8f7342e3a7a2,67e5c8c9bc10e40b86efc6fc,67e5cb5687a76eff05ef2c20,,,,,,,,,,,,,,,,,,,,,,With Brainslug Difficult 1 No Money,6,images/assets/snowy_original.jpg,learning,20,images/assets/success.jpg,images/assets/gameover.jpg,,,,,,,,,,,,,0,4,4,1,1,,,,,,,,,,,,,,,,,,,,,,,,,,,,,,,,
,,,,,,,,,,,,67de1ad35cbb8f7342e3a7a2,001,3,2025-03-27_18h15.39.672,avatar_quest_3AFC_legacy,2022.1.3,Win32,59.88023952,67de1ad35cbb8f7342e3a7a2,67e5c8c9bc10e40b86efc6fc,67e5cb5687a76eff05ef2c20,,,,,,,,,,,,,,,,,,,,,,With Brainslug No Barriers With Money,0,images/assets/snowy_money.jpg,learning,10,images/assets/success_money.jpg,images/assets/gameover.jpg,,,,,,,,,,,,,0,5,5,4,1,,,,,,,,,,,,,,,,,,,,,,,,,,,,,,,,
,,,,,,,,,,,,67de1ad35cbb8f7342e3a7a2,001,3,2025-03-27_18h15.39.672,avatar_quest_3AFC_legacy,2022.1.3,Win32,59.88023952,67de1ad35cbb8f7342e3a7a2,67e5c8c9bc10e40b86efc6fc,67e5cb5687a76eff05ef2c20,,,,,,,,,,,,,,,,,,,,,,No Brainslug Difficult 1 No Money,6,images/assets/snowy_original.jpg,learning,20,images/assets/success.jpg,images/assets/gameover.jpg,,,,,,,,,,,,,0,6,6,6,1,,,,,,,,,,,,,,,,,,,,,,,,,,,,,,,,
,,,,,,,,,,,,67de1ad35cbb8f7342e3a7a2,001,3,2025-03-27_18h15.39.672,avatar_quest_3AFC_legacy,2022.1.3,Win32,59.88023952,67de1ad35cbb8f7342e3a7a2,67e5c8c9bc10e40b86efc6fc,67e5cb5687a76eff05ef2c20,,,,,,,,,,,,,,,,,,,,,,With Brainslug Difficult 2 No Money,12,images/assets/snowy_original.jpg,learning,20,images/assets/success.jpg,images/assets/gameover.jpg,,,,,,,,,,,,,0,7,7,3,1,,,,,,,,,,,,,,,,,,,,,,,,,,,,,,,,
,,,,,,,,,,,,67de1ad35cbb8f7342e3a7a2,001,3,2025-03-27_18h15.39.672,avatar_quest_3AFC_legacy,2022.1.3,Win32,59.88023952,67de1ad35cbb8f7342e3a7a2,67e5c8c9bc10e40b86efc6fc,67e5cb5687a76eff05ef2c20,,,,,,,,,,,,,,,,,,,,,,No Brainslug No Barriers No Money,0,images/assets/snowy_original.jpg,learning,10,images/assets/success.jpg,images/assets/gameover.jpg,,,,,,,,,,,,,0,8,8,10,1,,,,,,,,,,,,,,,,,,,,,,,,,,,,,,,,
,,,,,,,,,,,,67de1ad35cbb8f7342e3a7a2,001,3,2025-03-27_18h15.39.672,avatar_quest_3AFC_legacy,2022.1.3,Win32,59.88023952,67de1ad35cbb8f7342e3a7a2,67e5c8c9bc10e40b86efc6fc,67e5cb5687a76eff05ef2c20,,,,,,,,,,,,,,,,,,,,,,With Brainslug No Barriers No Money,0,images/assets/snowy_original.jpg,learning,10,images/assets/success.jpg,images/assets/gameover.jpg,,,,,,,,,,,,,0,9,9,5,1,,,,,,,,,,,,,,,,,,,,,,,,,,,,,,,,
,,,,,,,,,,,,67de1ad35cbb8f7342e3a7a2,001,3,2025-03-27_18h15.39.672,avatar_quest_3AFC_legacy,2022.1.3,Win32,59.88023952,67de1ad35cbb8f7342e3a7a2,67e5c8c9bc10e40b86efc6fc,67e5cb5687a76eff05ef2c20,,,,,,,,,,,,,,,,,,,,,,With Brainslug Difficult 1 With Money,6,images/assets/snowy_money.jpg,learning,20,images/assets/success_money.jpg,images/assets/gameover.jpg,,,,,,,,,,,,,0,10,10,0,1,,,,,,,,,,,,,,,,,,,,,,,,,,,,,,,,
,,,,,,,,,,,,67de1ad35cbb8f7342e3a7a2,001,3,2025-03-27_18h15.39.672,avatar_quest_3AFC_legacy,2022.1.3,Win32,59.88023952,67de1ad35cbb8f7342e3a7a2,67e5c8c9bc10e40b86efc6fc,67e5cb5687a76eff05ef2c20,,,,,,,,,,,,,,,,,,,,,,,,,,,,,,,,,,,,,,,,,,,,,,,,,,,,,,,5,0,5,0,1,,,,,,,,,,,,,,,,,,
,,,,,,,,,,,,67de1ad35cbb8f7342e3a7a2,001,3,2025-03-27_18h15.39.672,avatar_quest_3AFC_legacy,2022.1.3,Win32,59.88023952,67de1ad35cbb8f7342e3a7a2,67e5c8c9bc10e40b86efc6fc,67e5cb5687a76eff05ef2c20,,,,,,,,,,,,,,,,,,,,,,No Brainslug No Barriers With Money,0,images/assets/snowy_money.jpg,learning,10,images/assets/success_money.jpg,images/assets/gameover.jpg,,,,,,,,With Brainslug Difficult 2 With Money,With Brainslug Difficult 1 No Money,right,0.0521,"[""With Brainslug Difficult 1 No Money"",""With Brainslug Difficult 2 No Money""]",0,0,0,9,1,,,,,,,,,,,,,,,,,,,,,,,,,,,,,,,,
,,,,,,,,,,,,67de1ad35cbb8f7342e3a7a2,001,3,2025-03-27_18h15.39.672,avatar_quest_3AFC_legacy,2022.1.3,Win32,59.88023952,67de1ad35cbb8f7342e3a7a2,67e5c8c9bc10e40b86efc6fc,67e5cb5687a76eff05ef2c20,,,,,,,,,,,,,,,,,,,,,,With Brainslug Difficult 2 No Money,12,images/assets/snowy_original.jpg,learning,20,images/assets/success.jpg,images/assets/gameover.jpg,,,,,,,,,,,,,0,1,1,3,1,,,,,,,,,,,,,,,,,,,,,,,,,,,,,,,,
,,,,,,,,,,,,67de1ad35cbb8f7342e3a7a2,001,3,2025-03-27_18h15.39.672,avatar_quest_3AFC_legacy,2022.1.3,Win32,59.88023952,67de1ad35cbb8f7342e3a7a2,67e5c8c9bc10e40b86efc6fc,67e5cb5687a76eff05ef2c20,,,,,,,,,,,,,,,,,,,,,,With Brainslug No Barriers With Money,0,images/assets/snowy_money.jpg,learning,10,images/assets/success_money.jpg,images/assets/gameover.jpg,,,,,,,,,,,,,0,2,2,4,1,,,,,,,,,,,,,,,,,,,,,,,,,,,,,,,,
,,,,,,,,,,,,67de1ad35cbb8f7342e3a7a2,001,3,2025-03-27_18h15.39.672,avatar_quest_3AFC_legacy,2022.1.3,Win32,59.88023952,67de1ad35cbb8f7342e3a7a2,67e5c8c9bc10e40b86efc6fc,67e5cb5687a76eff05ef2c20,"[""left"",""right"",""left"",""left"",""left"",""left"",""left"",""left""]","[1.0304000000953693,1.8190000000000737,2.448200000047791,4.011700000047767,4.810900000095444,5.299700000047778,5.63190000009547,9.406100000143056]",,calibration,With Brainslug Difficult 2 With Money,10,10.1999,10.2174,4,4,0,FALSE,na,na,na,na,,,,,,,,,,,,,,,,,,,,,,,,,,,,,,,,,,0,0,0,0,1,,,,,,,,,,,,,,,,,,,,,,,
,,,,,,,,,,,,67de1ad35cbb8f7342e3a7a2,001,3,2025-03-27_18h15.39.672,avatar_quest_3AFC_legacy,2022.1.3,Win32,59.88023952,67de1ad35cbb8f7342e3a7a2,67e5c8c9bc10e40b86efc6fc,67e5cb5687a76eff05ef2c20,,,,,,,,,,,,,,,,,,,,,,With Brainslug Difficult 2 With Money,12,images/assets/snowy_money.jpg,learning,20,images/assets/success_money.jpg,images/assets/gameover.jpg,,,,,,,,,,,,,0,3,3,2,1,,,,,,,,,,,,,,,,,,,,,,,,,,,,,,,,
,,,,,,,,,,,,67de1ad35cbb8f7342e3a7a2,001,3,2025-03-27_18h15.39.672,avatar_quest_3AFC_legacy,2022.1.3,Win32,59.88023952,67de1ad35cbb8f7342e3a7a2,67e5c8c9bc10e40b86efc6fc,67e5cb5687a76eff05ef2c20,,,,,,,,,,,,,,,,,,,,,,With Brainslug No Barriers No Money,0,images/assets/snowy_original.jpg,learning,10,images/assets/success.jpg,images/assets/gameover.jpg,,,,,,,,,,,,,0,4,4,5,1,,,,,,,,,,,,,,,,,,,,,,,,,,,,,,,,
,,,,,,,,,,,,67de1ad35cbb8f7342e3a7a2,001,3,2025-03-27_18h15.39.672,avatar_quest_3AFC_legacy,2022.1.3,Win32,59.88023952,67de1ad35cbb8f7342e3a7a2,67e5c8c9bc10e40b86efc6fc,67e5cb5687a76eff05ef2c20,,,,,,,,,,,,,,,,,,,,,,With Brainslug Difficult 1 With Money,6,images/assets/snowy_money.jpg,learning,20,images/assets/success_money.jpg,images/assets/gameover.jpg,,,,,,,,,,,,,0,5,5,0,1,,,,,,,,,,,,,,,,,,,,,,,,,,,,,,,,
,,,,,,,,,,,,67de1ad35cbb8f7342e3a7a2,001,3,2025-03-27_18h15.39.672,avatar_quest_3AFC_legacy,2022.1.3,Win32,59.88023952,67de1ad35cbb8f7342e3a7a2,67e5c8c9bc10e40b86efc6fc,67e5cb5687a76eff05ef2c20,,,,,,,,,,,,,,,,,,,,,,No Brainslug No Barriers No Money,0,images/assets/snowy_original.jpg,learning,10,images/assets/success.jpg,images/assets/gameover.jpg,,,,,,,,,,,,,0,6,6,10,1,,,,,,,,,,,,,,,,,,,,,,,,,,,,,,,,
,,,,,,,,,,,,67de1ad35cbb8f7342e3a7a2,001,3,2025-03-27_18h15.39.672,avatar_quest_3AFC_legacy,2022.1.3,Win32,59.88023952,67de1ad35cbb8f7342e3a7a2,67e5c8c9bc10e40b86efc6fc,67e5cb5687a76eff05ef2c20,,,,,,,,,,,,,,,,,,,,,,No Brainslug Difficult 2 With Money,12,images/assets/snowy_money.jpg,learning,20,images/assets/success_money.jpg,images/assets/gameover.jpg,,,,,,,,,,,,,0,7,7,7,1,,,,,,,,,,,,,,,,,,,,,,,,,,,,,,,,
,,,,,,,,,,,,67de1ad35cbb8f7342e3a7a2,001,3,2025-03-27_18h15.39.672,avatar_quest_3AFC_legacy,2022.1.3,Win32,59.88023952,67de1ad35cbb8f7342e3a7a2,67e5c8c9bc10e40b86efc6fc,67e5cb5687a76eff05ef2c20,,,,,,,,,,,,,,,,,,,,,,No Brainslug Difficult 1 No Money,6,images/assets/snowy_original.jpg,learning,20,images/assets/success.jpg,images/assets/gameover.jpg,,,,,,,,,,,,,0,8,8,6,1,,,,,,,,,,,,,,,,,,,,,,,,,,,,,,,,
,,,,,,,,,,,,67de1ad35cbb8f7342e3a7a2,001,3,2025-03-27_18h15.39.672,avatar_quest_3AFC_legacy,2022.1.3,Win32,59.88023952,67de1ad35cbb8f7342e3a7a2,67e5c8c9bc10e40b86efc6fc,67e5cb5687a76eff05ef2c20,,,,,,,,,,,,,,,,,,,,,,No Brainslug Difficult 2 No Money,12,images/assets/snowy_original.jpg,learning,20,images/assets/success.jpg,images/assets/gameover.jpg,,,,,,,,,,,,,0,9,9,8,1,,,,,,,,,,,,,,,,,,,,,,,,,,,,,,,,
,,,,,,,,,,,,67de1ad35cbb8f7342e3a7a2,001,3,2025-03-27_18h15.39.672,avatar_quest_3AFC_legacy,2022.1.3,Win32,59.88023952,67de1ad35cbb8f7342e3a7a2,67e5c8c9bc10e40b86efc6fc,67e5cb5687a76eff05ef2c20,,,,,,,,,,,,,,,,,,,,,,With Brainslug Difficult 1 No Money,6,images/assets/snowy_original.jpg,learning,20,images/assets/success.jpg,images/assets/gameover.jpg,,,,,,,,,,,,,0,10,10,1,1,,,,,,,,,,,,,,,,,,,,,,,,,,,,,,,,
,,,,,,,,,,,,67de1ad35cbb8f7342e3a7a2,001,3,2025-03-27_18h15.39.672,avatar_quest_3AFC_legacy,2022.1.3,Win32,59.88023952,67de1ad35cbb8f7342e3a7a2,67e5c8c9bc10e40b86efc6fc,67e5cb5687a76eff05ef2c20,,,,,,,,,,,,,,,,,,,,,,,,,,,,,,,,,,,,,,,,,,,,,,,,,,,,,,,6,0,6,0,1,,,,,,,,,,,,,,,,,,
,,,,,,,,,,,,67de1ad35cbb8f7342e3a7a2,001,3,2025-03-27_18h15.39.672,avatar_quest_3AFC_legacy,2022.1.3,Win32,59.88023952,67de1ad35cbb8f7342e3a7a2,67e5c8c9bc10e40b86efc6fc,67e5cb5687a76eff05ef2c20,,,,,,,,,,,,,,,,,,,,,,No Brainslug Difficult 2 With Money,12,images/assets/snowy_money.jpg,learning,20,images/assets/success_money.jpg,images/assets/gameover.jpg,,,,,,,,With Brainslug Difficult 1 No Money,With Brainslug Difficult 1 No Money,left,0.5507,"[""With Brainslug Difficult 2 No Money"",""With Brainslug Difficult 2 With Money""]",0,0,0,7,1,,,,,,,,,,,,,,,,,,,,,,,,,,,,,,,,
,,,,,,,,,,,,67de1ad35cbb8f7342e3a7a2,001,3,2025-03-27_18h15.39.672,avatar_quest_3AFC_legacy,2022.1.3,Win32,59.88023952,67de1ad35cbb8f7342e3a7a2,67e5c8c9bc10e40b86efc6fc,67e5cb5687a76eff05ef2c20,,,,,,,,,,,,,,,,,,,,,,No Brainslug Difficult 2 No Money,12,images/assets/snowy_original.jpg,learning,20,images/assets/success.jpg,images/assets/gameover.jpg,,,,,,,,,,,,,0,1,1,8,1,,,,,,,,,,,,,,,,,,,,,,,,,,,,,,,,
,,,,,,,,,,,,67de1ad35cbb8f7342e3a7a2,001,3,2025-03-27_18h15.39.672,avatar_quest_3AFC_legacy,2022.1.3,Win32,59.88023952,67de1ad35cbb8f7342e3a7a2,67e5c8c9bc10e40b86efc6fc,67e5cb5687a76eff05ef2c20,,,,,,,,,,,,,,,,,,,,,,With Brainslug Difficult 1 With Money,6,images/assets/snowy_money.jpg,learning,20,images/assets/success_money.jpg,images/assets/gameover.jpg,,,,,,,,,,,,,0,2,2,0,1,,,,,,,,,,,,,,,,,,,,,,,,,,,,,,,,
,,,,,,,,,,,,67de1ad35cbb8f7342e3a7a2,001,3,2025-03-27_18h15.39.672,avatar_quest_3AFC_legacy,2022.1.3,Win32,59.88023952,67de1ad35cbb8f7342e3a7a2,67e5c8c9bc10e40b86efc6fc,67e5cb5687a76eff05ef2c20,,,,,,,,,,,,,,,,,,,,,,No Brainslug No Barriers With Money,0,images/assets/snowy_money.jpg,learning,10,images/assets/success_money.jpg,images/assets/gameover.jpg,,,,,,,,,,,,,0,3,3,9,1,,,,,,,,,,,,,,,,,,,,,,,,,,,,,,,,
,,,,,,,,,,,,67de1ad35cbb8f7342e3a7a2,001,3,2025-03-27_18h15.39.672,avatar_quest_3AFC_legacy,2022.1.3,Win32,59.88023952,67de1ad35cbb8f7342e3a7a2,67e5c8c9bc10e40b86efc6fc,67e5cb5687a76eff05ef2c20,,,,,,,,,,,,,,,,,,,,,,With Brainslug No Barriers No Money,0,images/assets/snowy_original.jpg,learning,10,images/assets/success.jpg,images/assets/gameover.jpg,,,,,,,,,,,,,0,4,4,5,1,,,,,,,,,,,,,,,,,,,,,,,,,,,,,,,,
,,,,,,,,,,,,67de1ad35cbb8f7342e3a7a2,001,3,2025-03-27_18h15.39.672,avatar_quest_3AFC_legacy,2022.1.3,Win32,59.88023952,67de1ad35cbb8f7342e3a7a2,67e5c8c9bc10e40b86efc6fc,67e5cb5687a76eff05ef2c20,,,,,,,,,,,,,,,,,,,,,,With Brainslug No Barriers With Money,0,images/assets/snowy_money.jpg,learning,10,images/assets/success_money.jpg,images/assets/gameover.jpg,,,,,,,,,,,,,0,5,5,4,1,,,,,,,,,,,,,,,,,,,,,,,,,,,,,,,,
,,,,,,,,,,,,67de1ad35cbb8f7342e3a7a2,001,3,2025-03-27_18h15.39.672,avatar_quest_3AFC_legacy,2022.1.3,Win32,59.88023952,67de1ad35cbb8f7342e3a7a2,67e5c8c9bc10e40b86efc6fc,67e5cb5687a76eff05ef2c20,,,,,,,,,,,,,,,,,,,,,,With Brainslug Difficult 2 No Money,12,images/assets/snowy_original.jpg,learning,20,images/assets/success.jpg,images/assets/gameover.jpg,,,,,,,,,,,,,0,6,6,3,1,,,,,,,,,,,,,,,,,,,,,,,,,,,,,,,,
,,,,,,,,,,,,67de1ad35cbb8f7342e3a7a2,001,3,2025-03-27_18h15.39.672,avatar_quest_3AFC_legacy,2022.1.3,Win32,59.88023952,67de1ad35cbb8f7342e3a7a2,67e5c8c9bc10e40b86efc6fc,67e5cb5687a76eff05ef2c20,,,,,,,,,,,,,,,,,,,,,,No Brainslug No Barriers No Money,0,images/assets/snowy_original.jpg,learning,10,images/assets/success.jpg,images/assets/gameover.jpg,,,,,,,,,,,,,0,7,7,10,1,,,,,,,,,,,,,,,,,,,,,,,,,,,,,,,,
,,,,,,,,,,,,67de1ad35cbb8f7342e3a7a2,001,3,2025-03-27_18h15.39.672,avatar_quest_3AFC_legacy,2022.1.3,Win32,59.88023952,67de1ad35cbb8f7342e3a7a2,67e5c8c9bc10e40b86efc6fc,67e5cb5687a76eff05ef2c20,"[""right"",""left"",""left"",""left"",""left"",""left"",""left"",""left"",""right"",""right"",""left"",""left"",""right"",""right"",""right"",""left"",""right"",""left"",""left""]","[0.0017000000476627974,0.7148000001907349,1.3773000001907576,1.727100000143082,2.1970000000000027,2.5494000000953747,2.783999999999992,3.1578000001907185,4.064999999999941,4.3129000000953965,4.671100000143042,4.950500000000034,5.35290000009536,5.689300000190769,6.461400000095409,6.97010000014302,7.812300000190703,8.731700000047681,9.200700000047732]",,calibration,With Brainslug Difficult 1 No Money,11,10.1999,10.2019,7,4,0,FALSE,na,na,na,na,,,,,,,,,,,,,,,,,,,,,,,,,,,,,,,,,,0,0,0,0,1,,,,,,,,,,,,,,,,,,,,,,,
,,,,,,,,,,,,67de1ad35cbb8f7342e3a7a2,001,3,2025-03-27_18h15.39.672,avatar_quest_3AFC_legacy,2022.1.3,Win32,59.88023952,67de1ad35cbb8f7342e3a7a2,67e5c8c9bc10e40b86efc6fc,67e5cb5687a76eff05ef2c20,,,,,,,,,,,,,,,,,,,,,,With Brainslug Difficult 1 No Money,6,images/assets/snowy_original.jpg,learning,20,images/assets/success.jpg,images/assets/gameover.jpg,,,,,,,,,,,,,0,8,8,1,1,,,,,,,,,,,,,,,,,,,,,,,,,,,,,,,,
,,,,,,,,,,,,67de1ad35cbb8f7342e3a7a2,001,3,2025-03-27_18h15.39.672,avatar_quest_3AFC_legacy,2022.1.3,Win32,59.88023952,67de1ad35cbb8f7342e3a7a2,67e5c8c9bc10e40b86efc6fc,67e5cb5687a76eff05ef2c20,,,,,,,,,,,,,,,,,,,,,,No Brainslug Difficult 1 No Money,6,images/assets/snowy_original.jpg,learning,20,images/assets/success.jpg,images/assets/gameover.jpg,,,,,,,,,,,,,0,9,9,6,1,,,,,,,,,,,,,,,,,,,,,,,,,,,,,,,,
,,,,,,,,,,,,67de1ad35cbb8f7342e3a7a2,001,3,2025-03-27_18h15.39.672,avatar_quest_3AFC_legacy,2022.1.3,Win32,59.88023952,67de1ad35cbb8f7342e3a7a2,67e5c8c9bc10e40b86efc6fc,67e5cb5687a76eff05ef2c20,,,,,,,,,,,,,,,,,,,,,,With Brainslug Difficult 2 With Money,12,images/assets/snowy_money.jpg,learning,20,images/assets/success_money.jpg,images/assets/gameover.jpg,,,,,,,,,,,,,0,10,10,2,1,,,,,,,,,,,,,,,,,,,,,,,,,,,,,,,,
,,,,,,,,,,,,67de1ad35cbb8f7342e3a7a2,001,3,2025-03-27_18h15.39.672,avatar_quest_3AFC_legacy,2022.1.3,Win32,59.88023952,67de1ad35cbb8f7342e3a7a2,67e5c8c9bc10e40b86efc6fc,67e5cb5687a76eff05ef2c20,,,,,,,,,,,,,,,,,,,,,,,,,,,,,,,,,,,,,,,,,,,,,,,,,,,,,,,7,0,7,0,1,,,,,,,,,,,,,,,,,,
,,,,,,,,,,,,67de1ad35cbb8f7342e3a7a2,001,3,2025-03-27_18h15.39.672,avatar_quest_3AFC_legacy,2022.1.3,Win32,59.88023952,67de1ad35cbb8f7342e3a7a2,67e5c8c9bc10e40b86efc6fc,67e5cb5687a76eff05ef2c20,,,,,,,,,,,,,,,,,,,,,,With Brainslug Difficult 2 No Money,12,images/assets/snowy_original.jpg,learning,20,images/assets/success.jpg,images/assets/gameover.jpg,,,,,,,,With Brainslug Difficult 1 No Money,With Brainslug Difficult 1 No Money,left,1.3133,"[""With Brainslug Difficult 2 No Money"",""With Brainslug Difficult 2 With Money""]",0,0,0,3,1,,,,,,,,,,,,,,,,,,,,,,,,,,,,,,,,
,,,,,,,,,,,,67de1ad35cbb8f7342e3a7a2,001,3,2025-03-27_18h15.39.672,avatar_quest_3AFC_legacy,2022.1.3,Win32,59.88023952,67de1ad35cbb8f7342e3a7a2,67e5c8c9bc10e40b86efc6fc,67e5cb5687a76eff05ef2c20,,,,,,,,,,,,,,,,,,,,,,No Brainslug No Barriers With Money,0,images/assets/snowy_money.jpg,learning,10,images/assets/success_money.jpg,images/assets/gameover.jpg,,,,,,,,,,,,,0,1,1,9,1,,,,,,,,,,,,,,,,,,,,,,,,,,,,,,,,
,,,,,,,,,,,,67de1ad35cbb8f7342e3a7a2,001,3,2025-03-27_18h15.39.672,avatar_quest_3AFC_legacy,2022.1.3,Win32,59.88023952,67de1ad35cbb8f7342e3a7a2,67e5c8c9bc10e40b86efc6fc,67e5cb5687a76eff05ef2c20,,,,,,,,,,,,,,,,,,,,,,No Brainslug Difficult 2 No Money,12,images/assets/snowy_original.jpg,learning,20,images/assets/success.jpg,images/assets/gameover.jpg,,,,,,,,,,,,,0,2,2,8,1,,,,,,,,,,,,,,,,,,,,,,,,,,,,,,,,
,,,,,,,,,,,,67de1ad35cbb8f7342e3a7a2,001,3,2025-03-27_18h15.39.672,avatar_quest_3AFC_legacy,2022.1.3,Win32,59.88023952,67de1ad35cbb8f7342e3a7a2,67e5c8c9bc10e40b86efc6fc,67e5cb5687a76eff05ef2c20,,,,,,,,,,,,,,,,,,,,,,With Brainslug No Barriers With Money,0,images/assets/snowy_money.jpg,learning,10,images/assets/success_money.jpg,images/assets/gameover.jpg,,,,,,,,,,,,,0,3,3,4,1,,,,,,,,,,,,,,,,,,,,,,,,,,,,,,,,
,,,,,,,,,,,,67de1ad35cbb8f7342e3a7a2,001,3,2025-03-27_18h15.39.672,avatar_quest_3AFC_legacy,2022.1.3,Win32,59.88023952,67de1ad35cbb8f7342e3a7a2,67e5c8c9bc10e40b86efc6fc,67e5cb5687a76eff05ef2c20,,,,,,,,,,,,,,,,,,,,,,With Brainslug No Barriers No Money,0,images/assets/snowy_original.jpg,learning,10,images/assets/success.jpg,images/assets/gameover.jpg,,,,,,,,,,,,,0,4,4,5,1,,,,,,,,,,,,,,,,,,,,,,,,,,,,,,,,
,,,,,,,,,,,,67de1ad35cbb8f7342e3a7a2,001,3,2025-03-27_18h15.39.672,avatar_quest_3AFC_legacy,2022.1.3,Win32,59.88023952,67de1ad35cbb8f7342e3a7a2,67e5c8c9bc10e40b86efc6fc,67e5cb5687a76eff05ef2c20,,,,,,,,,,,,,,,,,,,,,,No Brainslug No Barriers No Money,0,images/assets/snowy_original.jpg,learning,10,images/assets/success.jpg,images/assets/gameover.jpg,,,,,,,,,,,,,0,5,5,10,1,,,,,,,,,,,,,,,,,,,,,,,,,,,,,,,,
,,,,,,,,,,,,67de1ad35cbb8f7342e3a7a2,001,3,2025-03-27_18h15.39.672,avatar_quest_3AFC_legacy,2022.1.3,Win32,59.88023952,67de1ad35cbb8f7342e3a7a2,67e5c8c9bc10e40b86efc6fc,67e5cb5687a76eff05ef2c20,,,,,,,,,,,,,,,,,,,,,,No Brainslug Difficult 1 No Money,6,images/assets/snowy_original.jpg,learning,20,images/assets/success.jpg,images/assets/gameover.jpg,,,,,,,,,,,,,0,6,6,6,1,,,,,,,,,,,,,,,,,,,,,,,,,,,,,,,,
,,,,,,,,,,,,67de1ad35cbb8f7342e3a7a2,001,3,2025-03-27_18h15.39.672,avatar_quest_3AFC_legacy,2022.1.3,Win32,59.88023952,67de1ad35cbb8f7342e3a7a2,67e5c8c9bc10e40b86efc6fc,67e5cb5687a76eff05ef2c20,,,,,,,,,,,,,,,,,,,,,,No Brainslug Difficult 2 With Money,12,images/assets/snowy_money.jpg,learning,20,images/assets/success_money.jpg,images/assets/gameover.jpg,,,,,,,,,,,,,0,7,7,7,1,,,,,,,,,,,,,,,,,,,,,,,,,,,,,,,,
,,,,,,,,,,,,67de1ad35cbb8f7342e3a7a2,001,3,2025-03-27_18h15.39.672,avatar_quest_3AFC_legacy,2022.1.3,Win32,59.88023952,67de1ad35cbb8f7342e3a7a2,67e5c8c9bc10e40b86efc6fc,67e5cb5687a76eff05ef2c20,"[""left"",""right"",""left"",""right"",""left"",""left""]","[0.5064000000953683,2.636400000095364,3.070900000095321,3.8879000000953283,4.786700000047631,5.2654999999999745]",,calibration,With Brainslug Difficult 1 No Money,12,10.1999,6.0004,5,2,0,TRUE,na,na,na,na,,,,,,,,,,,,,,,,,,,,,,,,,,,,,,,,,,0,0,0,0,1,,,,,,,,,,,,,,,,,,,,,,,
,,,,,,,,,,,,67de1ad35cbb8f7342e3a7a2,001,3,2025-03-27_18h15.39.672,avatar_quest_3AFC_legacy,2022.1.3,Win32,59.88023952,67de1ad35cbb8f7342e3a7a2,67e5c8c9bc10e40b86efc6fc,67e5cb5687a76eff05ef2c20,,,,,,,,,,,,,,,,,,,,,,With Brainslug Difficult 1 No Money,6,images/assets/snowy_original.jpg,learning,20,images/assets/success.jpg,images/assets/gameover.jpg,,,,,,,,,,,,,0,8,8,1,1,,,,,,,,,,,,,,,,,,,,,,,,,,,,,,,,
,,,,,,,,,,,,67de1ad35cbb8f7342e3a7a2,001,3,2025-03-27_18h15.39.672,avatar_quest_3AFC_legacy,2022.1.3,Win32,59.88023952,67de1ad35cbb8f7342e3a7a2,67e5c8c9bc10e40b86efc6fc,67e5cb5687a76eff05ef2c20,,,,,,,,,,,,,,,,,,,,,,With Brainslug Difficult 1 With Money,6,images/assets/snowy_money.jpg,learning,20,images/assets/success_money.jpg,images/assets/gameover.jpg,,,,,,,,,,,,,0,9,9,0,1,,,,,,,,,,,,,,,,,,,,,,,,,,,,,,,,
,,,,,,,,,,,,67de1ad35cbb8f7342e3a7a2,001,3,2025-03-27_18h15.39.672,avatar_quest_3AFC_legacy,2022.1.3,Win32,59.88023952,67de1ad35cbb8f7342e3a7a2,67e5c8c9bc10e40b86efc6fc,67e5cb5687a76eff05ef2c20,,,,,,,,,,,,,,,,,,,,,,With Brainslug Difficult 2 With Money,12,images/assets/snowy_money.jpg,learning,20,images/assets/success_money.jpg,images/assets/gameover.jpg,,,,,,,,,,,,,0,10,10,2,1,,,,,,,,,,,,,,,,,,,,,,,,,,,,,,,,
,,,,,,,,,,,,67de1ad35cbb8f7342e3a7a2,001,3,2025-03-27_18h15.39.672,avatar_quest_3AFC_legacy,2022.1.3,Win32,59.88023952,67de1ad35cbb8f7342e3a7a2,67e5c8c9bc10e40b86efc6fc,67e5cb5687a76eff05ef2c20,,,,,,,,,,,,,,,,,,,,,,,,,,,,,,,,,,,,,,,,,,,,,,,,,,,,,,,8,0,8,0,1,,,,,,,,,,,,,,,,,,
,,,,,,,,,,,,67de1ad35cbb8f7342e3a7a2,001,3,2025-03-27_18h15.39.672,avatar_quest_3AFC_legacy,2022.1.3,Win32,59.88023952,67de1ad35cbb8f7342e3a7a2,67e5c8c9bc10e40b86efc6fc,67e5cb5687a76eff05ef2c20,,,,,,,,,,,,,,,,,,,,,,With Brainslug Difficult 2 With Money,12,images/assets/snowy_money.jpg,learning,20,images/assets/success_money.jpg,images/assets/gameover.jpg,,,,,,,,With Brainslug Difficult 1 No Money,With Brainslug Difficult 1 No Money,left,0.8951,"[""With Brainslug Difficult 2 No Money"",""With Brainslug Difficult 2 With Money""]",0,0,0,2,1,,,,,,,,,,,,,,,,,,,,,,,,,,,,,,,,
,,,,,,,,,,,,67de1ad35cbb8f7342e3a7a2,001,3,2025-03-27_18h15.39.672,avatar_quest_3AFC_legacy,2022.1.3,Win32,59.88023952,67de1ad35cbb8f7342e3a7a2,67e5c8c9bc10e40b86efc6fc,67e5cb5687a76eff05ef2c20,,,,,,,,,,,,,,,,,,,,,,No Brainslug Difficult 2 No Money,12,images/assets/snowy_original.jpg,learning,20,images/assets/success.jpg,images/assets/gameover.jpg,,,,,,,,,,,,,0,1,1,8,1,,,,,,,,,,,,,,,,,,,,,,,,,,,,,,,,
,,,,,,,,,,,,67de1ad35cbb8f7342e3a7a2,001,3,2025-03-27_18h15.39.672,avatar_quest_3AFC_legacy,2022.1.3,Win32,59.88023952,67de1ad35cbb8f7342e3a7a2,67e5c8c9bc10e40b86efc6fc,67e5cb5687a76eff05ef2c20,,,,,,,,,,,,,,,,,,,,,,With Brainslug Difficult 1 With Money,6,images/assets/snowy_money.jpg,learning,20,images/assets/success_money.jpg,images/assets/gameover.jpg,,,,,,,,,,,,,0,2,2,0,1,,,,,,,,,,,,,,,,,,,,,,,,,,,,,,,,
,,,,,,,,,,,,67de1ad35cbb8f7342e3a7a2,001,3,2025-03-27_18h15.39.672,avatar_quest_3AFC_legacy,2022.1.3,Win32,59.88023952,67de1ad35cbb8f7342e3a7a2,67e5c8c9bc10e40b86efc6fc,67e5cb5687a76eff05ef2c20,,,,,,,,,,,,,,,,,,,,,,With Brainslug Difficult 2 No Money,12,images/assets/snowy_original.jpg,learning,20,images/assets/success.jpg,images/assets/gameover.jpg,,,,,,,,,,,,,0,3,3,3,1,,,,,,,,,,,,,,,,,,,,,,,,,,,,,,,,
,,,,,,,,,,,,67de1ad35cbb8f7342e3a7a2,001,3,2025-03-27_18h15.39.672,avatar_quest_3AFC_legacy,2022.1.3,Win32,59.88023952,67de1ad35cbb8f7342e3a7a2,67e5c8c9bc10e40b86efc6fc,67e5cb5687a76eff05ef2c20,,,,,,,,,,,,,,,,,,,,,,No Brainslug No Barriers With Money,0,images/assets/snowy_money.jpg,learning,10,images/assets/success_money.jpg,images/assets/gameover.jpg,,,,,,,,,,,,,0,4,4,9,1,,,,,,,,,,,,,,,,,,,,,,,,,,,,,,,,
,,,,,,,,,,,,67de1ad35cbb8f7342e3a7a2,001,3,2025-03-27_18h15.39.672,avatar_quest_3AFC_legacy,2022.1.3,Win32,59.88023952,67de1ad35cbb8f7342e3a7a2,67e5c8c9bc10e40b86efc6fc,67e5cb5687a76eff05ef2c20,,,,,,,,,,,,,,,,,,,,,,With Brainslug No Barriers No Money,0,images/assets/snowy_original.jpg,learning,10,images/assets/success.jpg,images/assets/gameover.jpg,,,,,,,,,,,,,0,5,5,5,1,,,,,,,,,,,,,,,,,,,,,,,,,,,,,,,,
,,,,,,,,,,,,67de1ad35cbb8f7342e3a7a2,001,3,2025-03-27_18h15.39.672,avatar_quest_3AFC_legacy,2022.1.3,Win32,59.88023952,67de1ad35cbb8f7342e3a7a2,67e5c8c9bc10e40b86efc6fc,67e5cb5687a76eff05ef2c20,,,,,,,,,,,,,,,,,,,,,,No Brainslug No Barriers No Money,0,images/assets/snowy_original.jpg,learning,10,images/assets/success.jpg,images/assets/gameover.jpg,,,,,,,,,,,,,0,6,6,10,1,,,,,,,,,,,,,,,,,,,,,,,,,,,,,,,,
,,,,,,,,,,,,67de1ad35cbb8f7342e3a7a2,001,3,2025-03-27_18h15.39.672,avatar_quest_3AFC_legacy,2022.1.3,Win32,59.88023952,67de1ad35cbb8f7342e3a7a2,67e5c8c9bc10e40b86efc6fc,67e5cb5687a76eff05ef2c20,,,,,,,,,,,,,,,,,,,,,,With Brainslug No Barriers With Money,0,images/assets/snowy_money.jpg,learning,10,images/assets/success_money.jpg,images/assets/gameover.jpg,,,,,,,,,,,,,0,7,7,4,1,,,,,,,,,,,,,,,,,,,,,,,,,,,,,,,,
,,,,,,,,,,,,67de1ad35cbb8f7342e3a7a2,001,3,2025-03-27_18h15.39.672,avatar_quest_3AFC_legacy,2022.1.3,Win32,59.88023952,67de1ad35cbb8f7342e3a7a2,67e5c8c9bc10e40b86efc6fc,67e5cb5687a76eff05ef2c20,,,,,,,,,,,,,,,,,,,,,,No Brainslug Difficult 2 With Money,12,images/assets/snowy_money.jpg,learning,20,images/assets/success_money.jpg,images/assets/gameover.jpg,,,,,,,,,,,,,0,8,8,7,1,,,,,,,,,,,,,,,,,,,,,,,,,,,,,,,,
,,,,,,,,,,,,67de1ad35cbb8f7342e3a7a2,001,3,2025-03-27_18h15.39.672,avatar_quest_3AFC_legacy,2022.1.3,Win32,59.88023952,67de1ad35cbb8f7342e3a7a2,67e5c8c9bc10e40b86efc6fc,67e5cb5687a76eff05ef2c20,,,,,,,,,,,,,,,,,,,,,,No Brainslug Difficult 1 No Money,6,images/assets/snowy_original.jpg,learning,20,images/assets/success.jpg,images/assets/gameover.jpg,,,,,,,,,,,,,0,9,9,6,1,,,,,,,,,,,,,,,,,,,,,,,,,,,,,,,,
,,,,,,,,,,,,67de1ad35cbb8f7342e3a7a2,001,3,2025-03-27_18h15.39.672,avatar_quest_3AFC_legacy,2022.1.3,Win32,59.88023952,67de1ad35cbb8f7342e3a7a2,67e5c8c9bc10e40b86efc6fc,67e5cb5687a76eff05ef2c20,"[""right"",""left"",""right"",""right"",""left"",""left"",""left"",""left"",""left"",""left"",""right"",""right"",""left"",""left"",""left""]","[0.03679999995233629,0.686400000095432,1.5004000000953965,2.7299000000954265,3.230000000000018,3.585099999904628,3.838599999904659,4.149000000000001,4.401200000047766,4.625099999904705,5.240200000047707,5.499200000047722,5.95770000004768,6.227200000047674,6.5380999999046026]",,calibration,With Brainslug Difficult 1 No Money,13,10.1999,7.8985,8,3,0,TRUE,na,na,na,na,,,,,,,,,,,,,,,,,,,,,,,,,,,,,,,,,,0,0,0,0,1,,,,,,,,,,,,,,,,,,,,,,,
,,,,,,,,,,,,67de1ad35cbb8f7342e3a7a2,001,3,2025-03-27_18h15.39.672,avatar_quest_3AFC_legacy,2022.1.3,Win32,59.88023952,67de1ad35cbb8f7342e3a7a2,67e5c8c9bc10e40b86efc6fc,67e5cb5687a76eff05ef2c20,,,,,,,,,,,,,,,,,,,,,,With Brainslug Difficult 1 No Money,6,images/assets/snowy_original.jpg,learning,20,images/assets/success.jpg,images/assets/gameover.jpg,,,,,,,,,,,,,0,10,10,1,1,,,,,,,,,,,,,,,,,,,,,,,,,,,,,,,,
,,,,,,,,,,,,67de1ad35cbb8f7342e3a7a2,001,3,2025-03-27_18h15.39.672,avatar_quest_3AFC_legacy,2022.1.3,Win32,59.88023952,67de1ad35cbb8f7342e3a7a2,67e5c8c9bc10e40b86efc6fc,67e5cb5687a76eff05ef2c20,,,,,,,,,,,,,,,,,,,,,,,,,,,,,,,,,,,,,,,,,,,,,,,,,,,,,,,9,0,9,0,1,,,,,,,,,,,,,,,,,,
,,,,,,,,,,,,67de1ad35cbb8f7342e3a7a2,001,3,2025-03-27_18h15.39.672,avatar_quest_3AFC_legacy,2022.1.3,Win32,59.88023952,67de1ad35cbb8f7342e3a7a2,67e5c8c9bc10e40b86efc6fc,67e5cb5687a76eff05ef2c20,,,,,,,,,,,,,,,,,,,,,,No Brainslug Difficult 1 No Money,6,images/assets/snowy_original.jpg,learning,20,images/assets/success.jpg,images/assets/gameover.jpg,,,,,,,,With Brainslug Difficult 2 With Money,With Brainslug Difficult 1 No Money,right,0.8351,"[""With Brainslug Difficult 1 No Money"",""With Brainslug Difficult 2 No Money""]",0,0,0,6,1,,,,,,,,,,,,,,,,,,,,,,,,,,,,,,,,
,,,,,,,,,,,,67de1ad35cbb8f7342e3a7a2,001,3,2025-03-27_18h15.39.672,avatar_quest_3AFC_legacy,2022.1.3,Win32,59.88023952,67de1ad35cbb8f7342e3a7a2,67e5c8c9bc10e40b86efc6fc,67e5cb5687a76eff05ef2c20,,,,,,,,,,,,,,,,,,,,,,With Brainslug Difficult 1 With Money,6,images/assets/snowy_money.jpg,learning,20,images/assets/success_money.jpg,images/assets/gameover.jpg,,,,,,,,,,,,,0,1,1,0,1,,,,,,,,,,,,,,,,,,,,,,,,,,,,,,,,
,,,,,,,,,,,,67de1ad35cbb8f7342e3a7a2,001,3,2025-03-27_18h15.39.672,avatar_quest_3AFC_legacy,2022.1.3,Win32,59.88023952,67de1ad35cbb8f7342e3a7a2,67e5c8c9bc10e40b86efc6fc,67e5cb5687a76eff05ef2c20,,,,,,,,,,,,,,,,,,,,,,With Brainslug No Barriers With Money,0,images/assets/snowy_money.jpg,learning,10,images/assets/success_money.jpg,images/assets/gameover.jpg,,,,,,,,,,,,,0,2,2,4,1,,,,,,,,,,,,,,,,,,,,,,,,,,,,,,,,
,,,,,,,,,,,,67de1ad35cbb8f7342e3a7a2,001,3,2025-03-27_18h15.39.672,avatar_quest_3AFC_legacy,2022.1.3,Win32,59.88023952,67de1ad35cbb8f7342e3a7a2,67e5c8c9bc10e40b86efc6fc,67e5cb5687a76eff05ef2c20,,,,,,,,,,,,,,,,,,,,,,With Brainslug No Barriers No Money,0,images/assets/snowy_original.jpg,learning,10,images/assets/success.jpg,images/assets/gameover.jpg,,,,,,,,,,,,,0,3,3,5,1,,,,,,,,,,,,,,,,,,,,,,,,,,,,,,,,
,,,,,,,,,,,,67de1ad35cbb8f7342e3a7a2,001,3,2025-03-27_18h15.39.672,avatar_quest_3AFC_legacy,2022.1.3,Win32,59.88023952,67de1ad35cbb8f7342e3a7a2,67e5c8c9bc10e40b86efc6fc,67e5cb5687a76eff05ef2c20,,,,,,,,,,,,,,,,,,,,,,No Brainslug No Barriers No Money,0,images/assets/snowy_original.jpg,learning,10,images/assets/success.jpg,images/assets/gameover.jpg,,,,,,,,,,,,,0,4,4,10,1,,,,,,,,,,,,,,,,,,,,,,,,,,,,,,,,
,,,,,,,,,,,,67de1ad35cbb8f7342e3a7a2,001,3,2025-03-27_18h15.39.672,avatar_quest_3AFC_legacy,2022.1.3,Win32,59.88023952,67de1ad35cbb8f7342e3a7a2,67e5c8c9bc10e40b86efc6fc,67e5cb5687a76eff05ef2c20,,,,,,,,,,,,,,,,,,,,,,No Brainslug Difficult 2 With Money,12,images/assets/snowy_money.jpg,learning,20,images/assets/success_money.jpg,images/assets/gameover.jpg,,,,,,,,,,,,,0,5,5,7,1,,,,,,,,,,,,,,,,,,,,,,,,,,,,,,,,
,,,,,,,,,,,,67de1ad35cbb8f7342e3a7a2,001,3,2025-03-27_18h15.39.672,avatar_quest_3AFC_legacy,2022.1.3,Win32,59.88023952,67de1ad35cbb8f7342e3a7a2,67e5c8c9bc10e40b86efc6fc,67e5cb5687a76eff05ef2c20,,,,,,,,,,,,,,,,,,,,,,With Brainslug Difficult 2 No Money,12,images/assets/snowy_original.jpg,learning,20,images/assets/success.jpg,images/assets/gameover.jpg,,,,,,,,,,,,,0,6,6,3,1,,,,,,,,,,,,,,,,,,,,,,,,,,,,,,,,
,,,,,,,,,,,,67de1ad35cbb8f7342e3a7a2,001,3,2025-03-27_18h15.39.672,avatar_quest_3AFC_legacy,2022.1.3,Win32,59.88023952,67de1ad35cbb8f7342e3a7a2,67e5c8c9bc10e40b86efc6fc,67e5cb5687a76eff05ef2c20,,,,,,,,,,,,,,,,,,,,,,With Brainslug Difficult 1 No Money,6,images/assets/snowy_original.jpg,learning,20,images/assets/success.jpg,images/assets/gameover.jpg,,,,,,,,,,,,,0,7,7,1,1,,,,,,,,,,,,,,,,,,,,,,,,,,,,,,,,
,,,,,,,,,,,,67de1ad35cbb8f7342e3a7a2,001,3,2025-03-27_18h15.39.672,avatar_quest_3AFC_legacy,2022.1.3,Win32,59.88023952,67de1ad35cbb8f7342e3a7a2,67e5c8c9bc10e40b86efc6fc,67e5cb5687a76eff05ef2c20,"[""left"",""right"",""left"",""right"",""left"",""right"",""left"",""left"",""left"",""left"",""right"",""right"",""right"",""right"",""right"",""right"",""right"",""left""]","[0.656300000190754,1.286700000047631,2.6479000000953192,3.3841000001430075,3.9125000000000227,4.48599999999999,5.116400000095382,5.394700000047692,5.920400000095356,6.227999999999952,6.5244000000953974,6.97010000014302,7.451300000190713,7.651499999999942,7.884999999999991,8.418999999999983,8.955300000190732,9.66320000004771]",,calibration,With Brainslug Difficult 2 With Money,14,10.1999,10.2152,9,6,0,FALSE,na,na,na,na,,,,,,,,,,,,,,,,,,,,,,,,,,,,,,,,,,0,0,0,0,1,,,,,,,,,,,,,,,,,,,,,,,
,,,,,,,,,,,,67de1ad35cbb8f7342e3a7a2,001,3,2025-03-27_18h15.39.672,avatar_quest_3AFC_legacy,2022.1.3,Win32,59.88023952,67de1ad35cbb8f7342e3a7a2,67e5c8c9bc10e40b86efc6fc,67e5cb5687a76eff05ef2c20,,,,,,,,,,,,,,,,,,,,,,With Brainslug Difficult 2 With Money,12,images/assets/snowy_money.jpg,learning,20,images/assets/success_money.jpg,images/assets/gameover.jpg,,,,,,,,,,,,,0,8,8,2,1,,,,,,,,,,,,,,,,,,,,,,,,,,,,,,,,
,,,,,,,,,,,,67de1ad35cbb8f7342e3a7a2,001,3,2025-03-27_18h15.39.672,avatar_quest_3AFC_legacy,2022.1.3,Win32,59.88023952,67de1ad35cbb8f7342e3a7a2,67e5c8c9bc10e40b86efc6fc,67e5cb5687a76eff05ef2c20,,,,,,,,,,,,,,,,,,,,,,No Brainslug No Barriers With Money,0,images/assets/snowy_money.jpg,learning,10,images/assets/success_money.jpg,images/assets/gameover.jpg,,,,,,,,,,,,,0,9,9,9,1,,,,,,,,,,,,,,,,,,,,,,,,,,,,,,,,
,,,,,,,,,,,,67de1ad35cbb8f7342e3a7a2,001,3,2025-03-27_18h15.39.672,avatar_quest_3AFC_legacy,2022.1.3,Win32,59.88023952,67de1ad35cbb8f7342e3a7a2,67e5c8c9bc10e40b86efc6fc,67e5cb5687a76eff05ef2c20,,,,,,,,,,,,,,,,,,,,,,No Brainslug Difficult 2 No Money,12,images/assets/snowy_original.jpg,learning,20,images/assets/success.jpg,images/assets/gameover.jpg,,,,,,,,,,,,,0,10,10,8,1,,,,,,,,,,,,,,,,,,,,,,,,,,,,,,,,
,,,,,,,,,,,,67de1ad35cbb8f7342e3a7a2,001,3,2025-03-27_18h15.39.672,avatar_quest_3AFC_legacy,2022.1.3,Win32,59.88023952,67de1ad35cbb8f7342e3a7a2,67e5c8c9bc10e40b86efc6fc,67e5cb5687a76eff05ef2c20,,,,,,,,,,,,,,,,,,,,,,,,,,,,,,,,,,,,,,,,,,,,,,,,,,,,,,,10,0,10,0,1,,,,,,,,,,,,,,,,,,
,,,,,,,,,,,,67de1ad35cbb8f7342e3a7a2,001,3,2025-03-27_18h15.39.672,avatar_quest_3AFC_legacy,2022.1.3,Win32,59.88023952,67de1ad35cbb8f7342e3a7a2,67e5c8c9bc10e40b86efc6fc,67e5cb5687a76eff05ef2c20,,,,,,,,,,,,,,,,,,,,,,With Brainslug No Barriers With Money,0,images/assets/snowy_money.jpg,learning,10,images/assets/success_money.jpg,images/assets/gameover.jpg,,,,,,,,With Brainslug Difficult 2 With Money,With Brainslug Difficult 1 No Money,right,0.5964,"[""With Brainslug Difficult 1 No Money"",""With Brainslug Difficult 2 No Money""]",0,0,0,4,1,,,,,,,,,,,,,,,,,,,,,,,,,,,,,,,,
,,,,,,,,,,,,67de1ad35cbb8f7342e3a7a2,001,3,2025-03-27_18h15.39.672,avatar_quest_3AFC_legacy,2022.1.3,Win32,59.88023952,67de1ad35cbb8f7342e3a7a2,67e5c8c9bc10e40b86efc6fc,67e5cb5687a76eff05ef2c20,,,,,,,,,,,,,,,,,,,,,,With Brainslug No Barriers No Money,0,images/assets/snowy_original.jpg,learning,10,images/assets/success.jpg,images/assets/gameover.jpg,,,,,,,,,,,,,0,1,1,5,1,,,,,,,,,,,,,,,,,,,,,,,,,,,,,,,,
,,,,,,,,,,,,67de1ad35cbb8f7342e3a7a2,001,3,2025-03-27_18h15.39.672,avatar_quest_3AFC_legacy,2022.1.3,Win32,59.88023952,67de1ad35cbb8f7342e3a7a2,67e5c8c9bc10e40b86efc6fc,67e5cb5687a76eff05ef2c20,,,,,,,,,,,,,,,,,,,,,,No Brainslug Difficult 2 With Money,12,images/assets/snowy_money.jpg,learning,20,images/assets/success_money.jpg,images/assets/gameover.jpg,,,,,,,,,,,,,0,2,2,7,1,,,,,,,,,,,,,,,,,,,,,,,,,,,,,,,,
,,,,,,,,,,,,67de1ad35cbb8f7342e3a7a2,001,3,2025-03-27_18h15.39.672,avatar_quest_3AFC_legacy,2022.1.3,Win32,59.88023952,67de1ad35cbb8f7342e3a7a2,67e5c8c9bc10e40b86efc6fc,67e5cb5687a76eff05ef2c20,"[""right"",""left"",""left"",""right"",""left"",""right"",""left"",""left"",""left"",""left"",""right"",""right"",""right"",""right"",""left"",""left"",""left"",""right"",""right"",""left"",""left"",""right"",""right""]","[0.18639999985691702,0.8395000000000437,1.16700000000003,1.8238999998569625,2.2157000000477183,2.915299999952367,3.3693999998569097,3.926099999904636,4.3207000000477365,4.524799999952279,5.086099999904604,5.28479999995227,5.604899999856912,5.75159999990467,6.000099999904592,6.367399999856957,6.556799999952318,6.737099999904672,7.0717999999523045,7.456299999952307,7.826700000047708,9.248799999952325,9.919499999999971]",,calibration,With Brainslug Difficult 2 With Money,15,10.1999,10.2124,13,9,0,FALSE,na,na,na,na,,,,,,,,,,,,,,,,,,,,,,,,,,,,,,,,,,0,0,0,0,1,,,,,,,,,,,,,,,,,,,,,,,
,,,,,,,,,,,,67de1ad35cbb8f7342e3a7a2,001,3,2025-03-27_18h15.39.672,avatar_quest_3AFC_legacy,2022.1.3,Win32,59.88023952,67de1ad35cbb8f7342e3a7a2,67e5c8c9bc10e40b86efc6fc,67e5cb5687a76eff05ef2c20,,,,,,,,,,,,,,,,,,,,,,With Brainslug Difficult 2 With Money,12,images/assets/snowy_money.jpg,learning,20,images/assets/success_money.jpg,images/assets/gameover.jpg,,,,,,,,,,,,,0,3,3,2,1,,,,,,,,,,,,,,,,,,,,,,,,,,,,,,,,
,,,,,,,,,,,,67de1ad35cbb8f7342e3a7a2,001,3,2025-03-27_18h15.39.672,avatar_quest_3AFC_legacy,2022.1.3,Win32,59.88023952,67de1ad35cbb8f7342e3a7a2,67e5c8c9bc10e40b86efc6fc,67e5cb5687a76eff05ef2c20,,,,,,,,,,,,,,,,,,,,,,No Brainslug Difficult 2 No Money,12,images/assets/snowy_original.jpg,learning,20,images/assets/success.jpg,images/assets/gameover.jpg,,,,,,,,,,,,,0,4,4,8,1,,,,,,,,,,,,,,,,,,,,,,,,,,,,,,,,
,,,,,,,,,,,,67de1ad35cbb8f7342e3a7a2,001,3,2025-03-27_18h15.39.672,avatar_quest_3AFC_legacy,2022.1.3,Win32,59.88023952,67de1ad35cbb8f7342e3a7a2,67e5c8c9bc10e40b86efc6fc,67e5cb5687a76eff05ef2c20,,,,,,,,,,,,,,,,,,,,,,With Brainslug Difficult 1 No Money,6,images/assets/snowy_original.jpg,learning,20,images/assets/success.jpg,images/assets/gameover.jpg,,,,,,,,,,,,,0,5,5,1,1,,,,,,,,,,,,,,,,,,,,,,,,,,,,,,,,
,,,,,,,,,,,,67de1ad35cbb8f7342e3a7a2,001,3,2025-03-27_18h15.39.672,avatar_quest_3AFC_legacy,2022.1.3,Win32,59.88023952,67de1ad35cbb8f7342e3a7a2,67e5c8c9bc10e40b86efc6fc,67e5cb5687a76eff05ef2c20,,,,,,,,,,,,,,,,,,,,,,No Brainslug No Barriers No Money,0,images/assets/snowy_original.jpg,learning,10,images/assets/success.jpg,images/assets/gameover.jpg,,,,,,,,,,,,,0,6,6,10,1,,,,,,,,,,,,,,,,,,,,,,,,,,,,,,,,
,,,,,,,,,,,,67de1ad35cbb8f7342e3a7a2,001,3,2025-03-27_18h15.39.672,avatar_quest_3AFC_legacy,2022.1.3,Win32,59.88023952,67de1ad35cbb8f7342e3a7a2,67e5c8c9bc10e40b86efc6fc,67e5cb5687a76eff05ef2c20,,,,,,,,,,,,,,,,,,,,,,With Brainslug Difficult 1 With Money,6,images/assets/snowy_money.jpg,learning,20,images/assets/success_money.jpg,images/assets/gameover.jpg,,,,,,,,,,,,,0,7,7,0,1,,,,,,,,,,,,,,,,,,,,,,,,,,,,,,,,
,,,,,,,,,,,,67de1ad35cbb8f7342e3a7a2,001,3,2025-03-27_18h15.39.672,avatar_quest_3AFC_legacy,2022.1.3,Win32,59.88023952,67de1ad35cbb8f7342e3a7a2,67e5c8c9bc10e40b86efc6fc,67e5cb5687a76eff05ef2c20,,,,,,,,,,,,,,,,,,,,,,With Brainslug Difficult 2 No Money,12,images/assets/snowy_original.jpg,learning,20,images/assets/success.jpg,images/assets/gameover.jpg,,,,,,,,,,,,,0,8,8,3,1,,,,,,,,,,,,,,,,,,,,,,,,,,,,,,,,
,,,,,,,,,,,,67de1ad35cbb8f7342e3a7a2,001,3,2025-03-27_18h15.39.672,avatar_quest_3AFC_legacy,2022.1.3,Win32,59.88023952,67de1ad35cbb8f7342e3a7a2,67e5c8c9bc10e40b86efc6fc,67e5cb5687a76eff05ef2c20,,,,,,,,,,,,,,,,,,,,,,No Brainslug No Barriers With Money,0,images/assets/snowy_money.jpg,learning,10,images/assets/success_money.jpg,images/assets/gameover.jpg,,,,,,,,,,,,,0,9,9,9,1,,,,,,,,,,,,,,,,,,,,,,,,,,,,,,,,
,,,,,,,,,,,,67de1ad35cbb8f7342e3a7a2,001,3,2025-03-27_18h15.39.672,avatar_quest_3AFC_legacy,2022.1.3,Win32,59.88023952,67de1ad35cbb8f7342e3a7a2,67e5c8c9bc10e40b86efc6fc,67e5cb5687a76eff05ef2c20,,,,,,,,,,,,,,,,,,,,,,No Brainslug Difficult 1 No Money,6,images/assets/snowy_original.jpg,learning,20,images/assets/success.jpg,images/assets/gameover.jpg,,,,,,,,,,,,,0,10,10,6,1,,,,,,,,,,,,,,,,,,,,,,,,,,,,,,,,
,,,,,,,,,,,,67de1ad35cbb8f7342e3a7a2,001,3,2025-03-27_18h15.39.672,avatar_quest_3AFC_legacy,2022.1.3,Win32,59.88023952,67de1ad35cbb8f7342e3a7a2,67e5c8c9bc10e40b86efc6fc,67e5cb5687a76eff05ef2c20,,,,,,,,,,,,,,,,,,,,,,,,,,,,,,,,,,,,,,,,,,,,,,,,,,,,,,,11,0,11,0,1,,,,,,,,,,,,,,,,,,
,,,,,,,,,,,,67de1ad35cbb8f7342e3a7a2,001,3,2025-03-27_18h15.39.672,avatar_quest_3AFC_legacy,2022.1.3,Win32,59.88023952,67de1ad35cbb8f7342e3a7a2,67e5c8c9bc10e40b86efc6fc,67e5cb5687a76eff05ef2c20,,,,,,,,,,,,,,,,,,,,,,,,,,,,,,,,,,,,,,,,,,,,,,,,,,,,,,,,,,,,0,0,0,0,1,1,With Brainslug Difficult 1 No Money,images/assets/With Brainslug Difficult 1 No Money.png,With Brainslug Difficult 2 No Money,images/assets/With Brainslug Difficult 2 No Money.png,With Brainslug Difficult 2 With Money,images/assets/With Brainslug Difficult 2 With Money.png,Achievement vs. money,,,,,
,,,,,,,,,,,,67de1ad35cbb8f7342e3a7a2,001,3,2025-03-27_18h15.39.672,avatar_quest_3AFC_legacy,2022.1.3,Win32,59.88023952,67de1ad35cbb8f7342e3a7a2,67e5c8c9bc10e40b86efc6fc,67e5cb5687a76eff05ef2c20,,,,,,,,,,,,,,,,,,,,,,With Brainslug No Barriers No Money,0,images/assets/snowy_original.jpg,learning,10,images/assets/success.jpg,images/assets/gameover.jpg,,,,,,,,No Brainslug No Barriers With Money,No Brainslug No Barriers No Money,right,0.0013,"[""No Brainslug No Barriers No Money"",""No Brainslug Difficult 1 No Money""]",0,0,0,5,1,,,,,,,,,,,,,,,,,,,,,,,,,,,,,,,,
,,,,,,,,,,,,67de1ad35cbb8f7342e3a7a2,001,3,2025-03-27_18h15.39.672,avatar_quest_3AFC_legacy,2022.1.3,Win32,59.88023952,67de1ad35cbb8f7342e3a7a2,67e5c8c9bc10e40b86efc6fc,67e5cb5687a76eff05ef2c20,,,,,,,,,,,,,,,,,,,,,,No Brainslug No Barriers No Money,0,images/assets/snowy_original.jpg,learning,10,images/assets/success.jpg,images/assets/gameover.jpg,,,,,,,,,,,,,0,1,1,10,1,,,,,,,,,,,,,,,,,,,,,,,,,,,,,,,,
,,,,,,,,,,,,67de1ad35cbb8f7342e3a7a2,001,3,2025-03-27_18h15.39.672,avatar_quest_3AFC_legacy,2022.1.3,Win32,59.88023952,67de1ad35cbb8f7342e3a7a2,67e5c8c9bc10e40b86efc6fc,67e5cb5687a76eff05ef2c20,,,,,,,,,,,,,,,,,,,,,,No Brainslug Difficult 2 With Money,12,images/assets/snowy_money.jpg,learning,20,images/assets/success_money.jpg,images/assets/gameover.jpg,,,,,,,,,,,,,0,2,2,7,1,,,,,,,,,,,,,,,,,,,,,,,,,,,,,,,,
,,,,,,,,,,,,67de1ad35cbb8f7342e3a7a2,001,3,2025-03-27_18h15.39.672,avatar_quest_3AFC_legacy,2022.1.3,Win32,59.88023952,67de1ad35cbb8f7342e3a7a2,67e5c8c9bc10e40b86efc6fc,67e5cb5687a76eff05ef2c20,"[""left"",""right"",""left""]","[1.1310999999045634,2.5342999999522817,3.067599999904587]",,calibration,No Brainslug No Barriers With Money,16,8.15992,5.6352,3,0,15,TRUE,na,na,na,na,,,,,,,,,,,,,,,,,,,,,,,,,,,,,,,,,,0,0,0,0,1,,,,,,,,,,,,,,,,,,,,,,,
,,,,,,,,,,,,67de1ad35cbb8f7342e3a7a2,001,3,2025-03-27_18h15.39.672,avatar_quest_3AFC_legacy,2022.1.3,Win32,59.88023952,67de1ad35cbb8f7342e3a7a2,67e5c8c9bc10e40b86efc6fc,67e5cb5687a76eff05ef2c20,,,,,,,,,,,,,,,,,,,,,,No Brainslug No Barriers With Money,0,images/assets/snowy_money.jpg,learning,10,images/assets/success_money.jpg,images/assets/gameover.jpg,,,,,,,,,,,,,0,3,3,9,1,,,,,,,,,,,,,,,,,,,,,,,,,,,,,,,,
,,,,,,,,,,,,67de1ad35cbb8f7342e3a7a2,001,3,2025-03-27_18h15.39.672,avatar_quest_3AFC_legacy,2022.1.3,Win32,59.88023952,67de1ad35cbb8f7342e3a7a2,67e5c8c9bc10e40b86efc6fc,67e5cb5687a76eff05ef2c20,,,,,,,,,,,,,,,,,,,,,,With Brainslug Difficult 2 No Money,12,images/assets/snowy_original.jpg,learning,20,images/assets/success.jpg,images/assets/gameover.jpg,,,,,,,,,,,,,0,4,4,3,1,,,,,,,,,,,,,,,,,,,,,,,,,,,,,,,,
,,,,,,,,,,,,67de1ad35cbb8f7342e3a7a2,001,3,2025-03-27_18h15.39.672,avatar_quest_3AFC_legacy,2022.1.3,Win32,59.88023952,67de1ad35cbb8f7342e3a7a2,67e5c8c9bc10e40b86efc6fc,67e5cb5687a76eff05ef2c20,,,,,,,,,,,,,,,,,,,,,,With Brainslug No Barriers With Money,0,images/assets/snowy_money.jpg,learning,10,images/assets/success_money.jpg,images/assets/gameover.jpg,,,,,,,,,,,,,0,5,5,4,1,,,,,,,,,,,,,,,,,,,,,,,,,,,,,,,,
,,,,,,,,,,,,67de1ad35cbb8f7342e3a7a2,001,3,2025-03-27_18h15.39.672,avatar_quest_3AFC_legacy,2022.1.3,Win32,59.88023952,67de1ad35cbb8f7342e3a7a2,67e5c8c9bc10e40b86efc6fc,67e5cb5687a76eff05ef2c20,,,,,,,,,,,,,,,,,,,,,,No Brainslug Difficult 1 No Money,6,images/assets/snowy_original.jpg,learning,20,images/assets/success.jpg,images/assets/gameover.jpg,,,,,,,,,,,,,0,6,6,6,1,,,,,,,,,,,,,,,,,,,,,,,,,,,,,,,,
,,,,,,,,,,,,67de1ad35cbb8f7342e3a7a2,001,3,2025-03-27_18h15.39.672,avatar_quest_3AFC_legacy,2022.1.3,Win32,59.88023952,67de1ad35cbb8f7342e3a7a2,67e5c8c9bc10e40b86efc6fc,67e5cb5687a76eff05ef2c20,,,,,,,,,,,,,,,,,,,,,,No Brainslug Difficult 2 No Money,12,images/assets/snowy_original.jpg,learning,20,images/assets/success.jpg,images/assets/gameover.jpg,,,,,,,,,,,,,0,7,7,8,1,,,,,,,,,,,,,,,,,,,,,,,,,,,,,,,,
,,,,,,,,,,,,67de1ad35cbb8f7342e3a7a2,001,3,2025-03-27_18h15.39.672,avatar_quest_3AFC_legacy,2022.1.3,Win32,59.88023952,67de1ad35cbb8f7342e3a7a2,67e5c8c9bc10e40b86efc6fc,67e5cb5687a76eff05ef2c20,,,,,,,,,,,,,,,,,,,,,,With Brainslug Difficult 1 No Money,6,images/assets/snowy_original.jpg,learning,20,images/assets/success.jpg,images/assets/gameover.jpg,,,,,,,,,,,,,0,8,8,1,1,,,,,,,,,,,,,,,,,,,,,,,,,,,,,,,,
,,,,,,,,,,,,67de1ad35cbb8f7342e3a7a2,001,3,2025-03-27_18h15.39.672,avatar_quest_3AFC_legacy,2022.1.3,Win32,59.88023952,67de1ad35cbb8f7342e3a7a2,67e5c8c9bc10e40b86efc6fc,67e5cb5687a76eff05ef2c20,,,,,,,,,,,,,,,,,,,,,,With Brainslug Difficult 2 With Money,12,images/assets/snowy_money.jpg,learning,20,images/assets/success_money.jpg,images/assets/gameover.jpg,,,,,,,,,,,,,0,9,9,2,1,,,,,,,,,,,,,,,,,,,,,,,,,,,,,,,,
,,,,,,,,,,,,67de1ad35cbb8f7342e3a7a2,001,3,2025-03-27_18h15.39.672,avatar_quest_3AFC_legacy,2022.1.3,Win32,59.88023952,67de1ad35cbb8f7342e3a7a2,67e5c8c9bc10e40b86efc6fc,67e5cb5687a76eff05ef2c20,,,,,,,,,,,,,,,,,,,,,,With Brainslug Difficult 1 With Money,6,images/assets/snowy_money.jpg,learning,20,images/assets/success_money.jpg,images/assets/gameover.jpg,,,,,,,,,,,,,0,10,10,0,1,,,,,,,,,,,,,,,,,,,,,,,,,,,,,,,,
,,,,,,,,,,,,67de1ad35cbb8f7342e3a7a2,001,3,2025-03-27_18h15.39.672,avatar_quest_3AFC_legacy,2022.1.3,Win32,59.88023952,67de1ad35cbb8f7342e3a7a2,67e5c8c9bc10e40b86efc6fc,67e5cb5687a76eff05ef2c20,,,,,,,,,,,,,,,,,,,,,,,,,,,,,,,,,,,,,,,,,,,,,,,,,,,,,,,0,0,0,0,1,,,,,,,,,,,,,,,,,,
,,,,,,,,,,,,67de1ad35cbb8f7342e3a7a2,001,3,2025-03-27_18h15.39.672,avatar_quest_3AFC_legacy,2022.1.3,Win32,59.88023952,67de1ad35cbb8f7342e3a7a2,67e5c8c9bc10e40b86efc6fc,67e5cb5687a76eff05ef2c20,,,,,,,,,,,,,,,,,,,,,,With Brainslug Difficult 2 No Money,12,images/assets/snowy_original.jpg,learning,20,images/assets/success.jpg,images/assets/gameover.jpg,,,,,,,,No Brainslug No Barriers No Money,No Brainslug No Barriers No Money,left,3.6258,"[""No Brainslug Difficult 1 No Money"",""No Brainslug No Barriers With Money""]",0,0,0,3,1,,,,,,,,,,,,,,,,,,,,,,,,,,,,,,,,
,,,,,,,,,,,,67de1ad35cbb8f7342e3a7a2,001,3,2025-03-27_18h15.39.672,avatar_quest_3AFC_legacy,2022.1.3,Win32,59.88023952,67de1ad35cbb8f7342e3a7a2,67e5c8c9bc10e40b86efc6fc,67e5cb5687a76eff05ef2c20,,,,,,,,,,,,,,,,,,,,,,With Brainslug Difficult 1 With Money,6,images/assets/snowy_money.jpg,learning,20,images/assets/success_money.jpg,images/assets/gameover.jpg,,,,,,,,,,,,,0,1,1,0,1,,,,,,,,,,,,,,,,,,,,,,,,,,,,,,,,
,,,,,,,,,,,,67de1ad35cbb8f7342e3a7a2,001,3,2025-03-27_18h15.39.672,avatar_quest_3AFC_legacy,2022.1.3,Win32,59.88023952,67de1ad35cbb8f7342e3a7a2,67e5c8c9bc10e40b86efc6fc,67e5cb5687a76eff05ef2c20,"[""left"",""right"",""left""]","[0.7959000000953438,2.7789999999999964,3.247900000095342]",,calibration,No Brainslug No Barriers No Money,17,8.15992,5.6836,3,0,27,TRUE,na,na,na,na,,,,,,,,,,,,,,,,,,,,,,,,,,,,,,,,,,0,0,0,0,1,,,,,,,,,,,,,,,,,,,,,,,
,,,,,,,,,,,,67de1ad35cbb8f7342e3a7a2,001,3,2025-03-27_18h15.39.672,avatar_quest_3AFC_legacy,2022.1.3,Win32,59.88023952,67de1ad35cbb8f7342e3a7a2,67e5c8c9bc10e40b86efc6fc,67e5cb5687a76eff05ef2c20,,,,,,,,,,,,,,,,,,,,,,No Brainslug No Barriers No Money,0,images/assets/snowy_original.jpg,learning,10,images/assets/success.jpg,images/assets/gameover.jpg,,,,,,,,,,,,,0,2,2,10,1,,,,,,,,,,,,,,,,,,,,,,,,,,,,,,,,
,,,,,,,,,,,,67de1ad35cbb8f7342e3a7a2,001,3,2025-03-27_18h15.39.672,avatar_quest_3AFC_legacy,2022.1.3,Win32,59.88023952,67de1ad35cbb8f7342e3a7a2,67e5c8c9bc10e40b86efc6fc,67e5cb5687a76eff05ef2c20,,,,,,,,,,,,,,,,,,,,,,With Brainslug Difficult 1 No Money,6,images/assets/snowy_original.jpg,learning,20,images/assets/success.jpg,images/assets/gameover.jpg,,,,,,,,,,,,,0,3,3,1,1,,,,,,,,,,,,,,,,,,,,,,,,,,,,,,,,
,,,,,,,,,,,,67de1ad35cbb8f7342e3a7a2,001,3,2025-03-27_18h15.39.672,avatar_quest_3AFC_legacy,2022.1.3,Win32,59.88023952,67de1ad35cbb8f7342e3a7a2,67e5c8c9bc10e40b86efc6fc,67e5cb5687a76eff05ef2c20,,,,,,,,,,,,,,,,,,,,,,No Brainslug Difficult 2 With Money,12,images/assets/snowy_money.jpg,learning,20,images/assets/success_money.jpg,images/assets/gameover.jpg,,,,,,,,,,,,,0,4,4,7,1,,,,,,,,,,,,,,,,,,,,,,,,,,,,,,,,
,,,,,,,,,,,,67de1ad35cbb8f7342e3a7a2,001,3,2025-03-27_18h15.39.672,avatar_quest_3AFC_legacy,2022.1.3,Win32,59.88023952,67de1ad35cbb8f7342e3a7a2,67e5c8c9bc10e40b86efc6fc,67e5cb5687a76eff05ef2c20,,,,,,,,,,,,,,,,,,,,,,With Brainslug Difficult 2 With Money,12,images/assets/snowy_money.jpg,learning,20,images/assets/success_money.jpg,images/assets/gameover.jpg,,,,,,,,,,,,,0,5,5,2,1,,,,,,,,,,,,,,,,,,,,,,,,,,,,,,,,
,,,,,,,,,,,,67de1ad35cbb8f7342e3a7a2,001,3,2025-03-27_18h15.39.672,avatar_quest_3AFC_legacy,2022.1.3,Win32,59.88023952,67de1ad35cbb8f7342e3a7a2,67e5c8c9bc10e40b86efc6fc,67e5cb5687a76eff05ef2c20,,,,,,,,,,,,,,,,,,,,,,With Brainslug No Barriers With Money,0,images/assets/snowy_money.jpg,learning,10,images/assets/success_money.jpg,images/assets/gameover.jpg,,,,,,,,,,,,,0,6,6,4,1,,,,,,,,,,,,,,,,,,,,,,,,,,,,,,,,
,,,,,,,,,,,,67de1ad35cbb8f7342e3a7a2,001,3,2025-03-27_18h15.39.672,avatar_quest_3AFC_legacy,2022.1.3,Win32,59.88023952,67de1ad35cbb8f7342e3a7a2,67e5c8c9bc10e40b86efc6fc,67e5cb5687a76eff05ef2c20,,,,,,,,,,,,,,,,,,,,,,No Brainslug Difficult 2 No Money,12,images/assets/snowy_original.jpg,learning,20,images/assets/success.jpg,images/assets/gameover.jpg,,,,,,,,,,,,,0,7,7,8,1,,,,,,,,,,,,,,,,,,,,,,,,,,,,,,,,
,,,,,,,,,,,,67de1ad35cbb8f7342e3a7a2,001,3,2025-03-27_18h15.39.672,avatar_quest_3AFC_legacy,2022.1.3,Win32,59.88023952,67de1ad35cbb8f7342e3a7a2,67e5c8c9bc10e40b86efc6fc,67e5cb5687a76eff05ef2c20,,,,,,,,,,,,,,,,,,,,,,With Brainslug No Barriers No Money,0,images/assets/snowy_original.jpg,learning,10,images/assets/success.jpg,images/assets/gameover.jpg,,,,,,,,,,,,,0,8,8,5,1,,,,,,,,,,,,,,,,,,,,,,,,,,,,,,,,
,,,,,,,,,,,,67de1ad35cbb8f7342e3a7a2,001,3,2025-03-27_18h15.39.672,avatar_quest_3AFC_legacy,2022.1.3,Win32,59.88023952,67de1ad35cbb8f7342e3a7a2,67e5c8c9bc10e40b86efc6fc,67e5cb5687a76eff05ef2c20,,,,,,,,,,,,,,,,,,,,,,No Brainslug No Barriers With Money,0,images/assets/snowy_money.jpg,learning,10,images/assets/success_money.jpg,images/assets/gameover.jpg,,,,,,,,,,,,,0,9,9,9,1,,,,,,,,,,,,,,,,,,,,,,,,,,,,,,,,
,,,,,,,,,,,,67de1ad35cbb8f7342e3a7a2,001,3,2025-03-27_18h15.39.672,avatar_quest_3AFC_legacy,2022.1.3,Win32,59.88023952,67de1ad35cbb8f7342e3a7a2,67e5c8c9bc10e40b86efc6fc,67e5cb5687a76eff05ef2c20,,,,,,,,,,,,,,,,,,,,,,No Brainslug Difficult 1 No Money,6,images/assets/snowy_original.jpg,learning,20,images/assets/success.jpg,images/assets/gameover.jpg,,,,,,,,,,,,,0,10,10,6,1,,,,,,,,,,,,,,,,,,,,,,,,,,,,,,,,
,,,,,,,,,,,,67de1ad35cbb8f7342e3a7a2,001,3,2025-03-27_18h15.39.672,avatar_quest_3AFC_legacy,2022.1.3,Win32,59.88023952,67de1ad35cbb8f7342e3a7a2,67e5c8c9bc10e40b86efc6fc,67e5cb5687a76eff05ef2c20,,,,,,,,,,,,,,,,,,,,,,,,,,,,,,,,,,,,,,,,,,,,,,,,,,,,,,,1,0,1,0,1,,,,,,,,,,,,,,,,,,
,,,,,,,,,,,,67de1ad35cbb8f7342e3a7a2,001,3,2025-03-27_18h15.39.672,avatar_quest_3AFC_legacy,2022.1.3,Win32,59.88023952,67de1ad35cbb8f7342e3a7a2,67e5c8c9bc10e40b86efc6fc,67e5cb5687a76eff05ef2c20,,,,,,,,,,,,,,,,,,,,,,With Brainslug No Barriers No Money,0,images/assets/snowy_original.jpg,learning,10,images/assets/success.jpg,images/assets/gameover.jpg,,,,,,,,No Brainslug No Barriers With Money,No Brainslug No Barriers No Money,right,1.366,"[""No Brainslug No Barriers No Money"",""No Brainslug Difficult 1 No Money""]",0,0,0,5,1,,,,,,,,,,,,,,,,,,,,,,,,,,,,,,,,
,,,,,,,,,,,,67de1ad35cbb8f7342e3a7a2,001,3,2025-03-27_18h15.39.672,avatar_quest_3AFC_legacy,2022.1.3,Win32,59.88023952,67de1ad35cbb8f7342e3a7a2,67e5c8c9bc10e40b86efc6fc,67e5cb5687a76eff05ef2c20,,,,,,,,,,,,,,,,,,,,,,No Brainslug No Barriers No Money,0,images/assets/snowy_original.jpg,learning,10,images/assets/success.jpg,images/assets/gameover.jpg,,,,,,,,,,,,,0,1,1,10,1,,,,,,,,,,,,,,,,,,,,,,,,,,,,,,,,
,,,,,,,,,,,,67de1ad35cbb8f7342e3a7a2,001,3,2025-03-27_18h15.39.672,avatar_quest_3AFC_legacy,2022.1.3,Win32,59.88023952,67de1ad35cbb8f7342e3a7a2,67e5c8c9bc10e40b86efc6fc,67e5cb5687a76eff05ef2c20,,,,,,,,,,,,,,,,,,,,,,With Brainslug No Barriers With Money,0,images/assets/snowy_money.jpg,learning,10,images/assets/success_money.jpg,images/assets/gameover.jpg,,,,,,,,,,,,,0,2,2,4,1,,,,,,,,,,,,,,,,,,,,,,,,,,,,,,,,
,,,,,,,,,,,,67de1ad35cbb8f7342e3a7a2,001,3,2025-03-27_18h15.39.672,avatar_quest_3AFC_legacy,2022.1.3,Win32,59.88023952,67de1ad35cbb8f7342e3a7a2,67e5c8c9bc10e40b86efc6fc,67e5cb5687a76eff05ef2c20,,,,,,,,,,,,,,,,,,,,,,With Brainslug Difficult 2 With Money,12,images/assets/snowy_money.jpg,learning,20,images/assets/success_money.jpg,images/assets/gameover.jpg,,,,,,,,,,,,,0,3,3,2,1,,,,,,,,,,,,,,,,,,,,,,,,,,,,,,,,
,,,,,,,,,,,,67de1ad35cbb8f7342e3a7a2,001,3,2025-03-27_18h15.39.672,avatar_quest_3AFC_legacy,2022.1.3,Win32,59.88023952,67de1ad35cbb8f7342e3a7a2,67e5c8c9bc10e40b86efc6fc,67e5cb5687a76eff05ef2c20,"[""left"",""right"",""left""]","[0.7419999999999618,2.5512999999523345,2.9927000000476482]",,calibration,No Brainslug No Barriers With Money,18,8.15992,5.4166,3,0,13,TRUE,na,na,na,na,,,,,,,,,,,,,,,,,,,,,,,,,,,,,,,,,,0,0,0,0,1,,,,,,,,,,,,,,,,,,,,,,,
,,,,,,,,,,,,67de1ad35cbb8f7342e3a7a2,001,3,2025-03-27_18h15.39.672,avatar_quest_3AFC_legacy,2022.1.3,Win32,59.88023952,67de1ad35cbb8f7342e3a7a2,67e5c8c9bc10e40b86efc6fc,67e5cb5687a76eff05ef2c20,,,,,,,,,,,,,,,,,,,,,,No Brainslug No Barriers With Money,0,images/assets/snowy_money.jpg,learning,10,images/assets/success_money.jpg,images/assets/gameover.jpg,,,,,,,,,,,,,0,4,4,9,1,,,,,,,,,,,,,,,,,,,,,,,,,,,,,,,,
,,,,,,,,,,,,67de1ad35cbb8f7342e3a7a2,001,3,2025-03-27_18h15.39.672,avatar_quest_3AFC_legacy,2022.1.3,Win32,59.88023952,67de1ad35cbb8f7342e3a7a2,67e5c8c9bc10e40b86efc6fc,67e5cb5687a76eff05ef2c20,,,,,,,,,,,,,,,,,,,,,,No Brainslug Difficult 2 With Money,12,images/assets/snowy_money.jpg,learning,20,images/assets/success_money.jpg,images/assets/gameover.jpg,,,,,,,,,,,,,0,5,5,7,1,,,,,,,,,,,,,,,,,,,,,,,,,,,,,,,,
,,,,,,,,,,,,67de1ad35cbb8f7342e3a7a2,001,3,2025-03-27_18h15.39.672,avatar_quest_3AFC_legacy,2022.1.3,Win32,59.88023952,67de1ad35cbb8f7342e3a7a2,67e5c8c9bc10e40b86efc6fc,67e5cb5687a76eff05ef2c20,,,,,,,,,,,,,,,,,,,,,,No Brainslug Difficult 2 No Money,12,images/assets/snowy_original.jpg,learning,20,images/assets/success.jpg,images/assets/gameover.jpg,,,,,,,,,,,,,0,6,6,8,1,,,,,,,,,,,,,,,,,,,,,,,,,,,,,,,,
,,,,,,,,,,,,67de1ad35cbb8f7342e3a7a2,001,3,2025-03-27_18h15.39.672,avatar_quest_3AFC_legacy,2022.1.3,Win32,59.88023952,67de1ad35cbb8f7342e3a7a2,67e5c8c9bc10e40b86efc6fc,67e5cb5687a76eff05ef2c20,,,,,,,,,,,,,,,,,,,,,,With Brainslug Difficult 1 No Money,6,images/assets/snowy_original.jpg,learning,20,images/assets/success.jpg,images/assets/gameover.jpg,,,,,,,,,,,,,0,7,7,1,1,,,,,,,,,,,,,,,,,,,,,,,,,,,,,,,,
,,,,,,,,,,,,67de1ad35cbb8f7342e3a7a2,001,3,2025-03-27_18h15.39.672,avatar_quest_3AFC_legacy,2022.1.3,Win32,59.88023952,67de1ad35cbb8f7342e3a7a2,67e5c8c9bc10e40b86efc6fc,67e5cb5687a76eff05ef2c20,,,,,,,,,,,,,,,,,,,,,,With Brainslug Difficult 2 No Money,12,images/assets/snowy_original.jpg,learning,20,images/assets/success.jpg,images/assets/gameover.jpg,,,,,,,,,,,,,0,8,8,3,1,,,,,,,,,,,,,,,,,,,,,,,,,,,,,,,,
,,,,,,,,,,,,67de1ad35cbb8f7342e3a7a2,001,3,2025-03-27_18h15.39.672,avatar_quest_3AFC_legacy,2022.1.3,Win32,59.88023952,67de1ad35cbb8f7342e3a7a2,67e5c8c9bc10e40b86efc6fc,67e5cb5687a76eff05ef2c20,,,,,,,,,,,,,,,,,,,,,,With Brainslug Difficult 1 With Money,6,images/assets/snowy_money.jpg,learning,20,images/assets/success_money.jpg,images/assets/gameover.jpg,,,,,,,,,,,,,0,9,9,0,1,,,,,,,,,,,,,,,,,,,,,,,,,,,,,,,,
,,,,,,,,,,,,67de1ad35cbb8f7342e3a7a2,001,3,2025-03-27_18h15.39.672,avatar_quest_3AFC_legacy,2022.1.3,Win32,59.88023952,67de1ad35cbb8f7342e3a7a2,67e5c8c9bc10e40b86efc6fc,67e5cb5687a76eff05ef2c20,,,,,,,,,,,,,,,,,,,,,,No Brainslug Difficult 1 No Money,6,images/assets/snowy_original.jpg,learning,20,images/assets/success.jpg,images/assets/gameover.jpg,,,,,,,,,,,,,0,10,10,6,1,,,,,,,,,,,,,,,,,,,,,,,,,,,,,,,,
,,,,,,,,,,,,67de1ad35cbb8f7342e3a7a2,001,3,2025-03-27_18h15.39.672,avatar_quest_3AFC_legacy,2022.1.3,Win32,59.88023952,67de1ad35cbb8f7342e3a7a2,67e5c8c9bc10e40b86efc6fc,67e5cb5687a76eff05ef2c20,,,,,,,,,,,,,,,,,,,,,,,,,,,,,,,,,,,,,,,,,,,,,,,,,,,,,,,2,0,2,0,1,,,,,,,,,,,,,,,,,,
,,,,,,,,,,,,67de1ad35cbb8f7342e3a7a2,001,3,2025-03-27_18h15.39.672,avatar_quest_3AFC_legacy,2022.1.3,Win32,59.88023952,67de1ad35cbb8f7342e3a7a2,67e5c8c9bc10e40b86efc6fc,67e5cb5687a76eff05ef2c20,,,,,,,,,,,,,,,,,,,,,,With Brainslug Difficult 2 No Money,12,images/assets/snowy_original.jpg,learning,20,images/assets/success.jpg,images/assets/gameover.jpg,,,,,,,,No Brainslug No Barriers With Money,No Brainslug No Barriers No Money,right,1.052,"[""No Brainslug No Barriers No Money"",""No Brainslug Difficult 1 No Money""]",0,0,0,3,1,,,,,,,,,,,,,,,,,,,,,,,,,,,,,,,,
,,,,,,,,,,,,67de1ad35cbb8f7342e3a7a2,001,3,2025-03-27_18h15.39.672,avatar_quest_3AFC_legacy,2022.1.3,Win32,59.88023952,67de1ad35cbb8f7342e3a7a2,67e5c8c9bc10e40b86efc6fc,67e5cb5687a76eff05ef2c20,,,,,,,,,,,,,,,,,,,,,,No Brainslug No Barriers No Money,0,images/assets/snowy_original.jpg,learning,10,images/assets/success.jpg,images/assets/gameover.jpg,,,,,,,,,,,,,0,1,1,10,1,,,,,,,,,,,,,,,,,,,,,,,,,,,,,,,,
,,,,,,,,,,,,67de1ad35cbb8f7342e3a7a2,001,3,2025-03-27_18h15.39.672,avatar_quest_3AFC_legacy,2022.1.3,Win32,59.88023952,67de1ad35cbb8f7342e3a7a2,67e5c8c9bc10e40b86efc6fc,67e5cb5687a76eff05ef2c20,,,,,,,,,,,,,,,,,,,,,,No Brainslug Difficult 2 With Money,12,images/assets/snowy_money.jpg,learning,20,images/assets/success_money.jpg,images/assets/gameover.jpg,,,,,,,,,,,,,0,2,2,7,1,,,,,,,,,,,,,,,,,,,,,,,,,,,,,,,,
,,,,,,,,,,,,67de1ad35cbb8f7342e3a7a2,001,3,2025-03-27_18h15.39.672,avatar_quest_3AFC_legacy,2022.1.3,Win32,59.88023952,67de1ad35cbb8f7342e3a7a2,67e5c8c9bc10e40b86efc6fc,67e5cb5687a76eff05ef2c20,,,,,,,,,,,,,,,,,,,,,,No Brainslug Difficult 1 No Money,6,images/assets/snowy_original.jpg,learning,20,images/assets/success.jpg,images/assets/gameover.jpg,,,,,,,,,,,,,0,3,3,6,1,,,,,,,,,,,,,,,,,,,,,,,,,,,,,,,,
,,,,,,,,,,,,67de1ad35cbb8f7342e3a7a2,001,3,2025-03-27_18h15.39.672,avatar_quest_3AFC_legacy,2022.1.3,Win32,59.88023952,67de1ad35cbb8f7342e3a7a2,67e5c8c9bc10e40b86efc6fc,67e5cb5687a76eff05ef2c20,,,,,,,,,,,,,,,,,,,,,,With Brainslug Difficult 2 With Money,12,images/assets/snowy_money.jpg,learning,20,images/assets/success_money.jpg,images/assets/gameover.jpg,,,,,,,,,,,,,0,4,4,2,1,,,,,,,,,,,,,,,,,,,,,,,,,,,,,,,,
,,,,,,,,,,,,67de1ad35cbb8f7342e3a7a2,001,3,2025-03-27_18h15.39.672,avatar_quest_3AFC_legacy,2022.1.3,Win32,59.88023952,67de1ad35cbb8f7342e3a7a2,67e5c8c9bc10e40b86efc6fc,67e5cb5687a76eff05ef2c20,,,,,,,,,,,,,,,,,,,,,,With Brainslug No Barriers No Money,0,images/assets/snowy_original.jpg,learning,10,images/assets/success.jpg,images/assets/gameover.jpg,,,,,,,,,,,,,0,5,5,5,1,,,,,,,,,,,,,,,,,,,,,,,,,,,,,,,,
,,,,,,,,,,,,67de1ad35cbb8f7342e3a7a2,001,3,2025-03-27_18h15.39.672,avatar_quest_3AFC_legacy,2022.1.3,Win32,59.88023952,67de1ad35cbb8f7342e3a7a2,67e5c8c9bc10e40b86efc6fc,67e5cb5687a76eff05ef2c20,,,,,,,,,,,,,,,,,,,,,,No Brainslug Difficult 2 No Money,12,images/assets/snowy_original.jpg,learning,20,images/assets/success.jpg,images/assets/gameover.jpg,,,,,,,,,,,,,0,6,6,8,1,,,,,,,,,,,,,,,,,,,,,,,,,,,,,,,,
,,,,,,,,,,,,67de1ad35cbb8f7342e3a7a2,001,3,2025-03-27_18h15.39.672,avatar_quest_3AFC_legacy,2022.1.3,Win32,59.88023952,67de1ad35cbb8f7342e3a7a2,67e5c8c9bc10e40b86efc6fc,67e5cb5687a76eff05ef2c20,,,,,,,,,,,,,,,,,,,,,,With Brainslug No Barriers With Money,0,images/assets/snowy_money.jpg,learning,10,images/assets/success_money.jpg,images/assets/gameover.jpg,,,,,,,,,,,,,0,7,7,4,1,,,,,,,,,,,,,,,,,,,,,,,,,,,,,,,,
,,,,,,,,,,,,67de1ad35cbb8f7342e3a7a2,001,3,2025-03-27_18h15.39.672,avatar_quest_3AFC_legacy,2022.1.3,Win32,59.88023952,67de1ad35cbb8f7342e3a7a2,67e5c8c9bc10e40b86efc6fc,67e5cb5687a76eff05ef2c20,,,,,,,,,,,,,,,,,,,,,,With Brainslug Difficult 1 No Money,6,images/assets/snowy_original.jpg,learning,20,images/assets/success.jpg,images/assets/gameover.jpg,,,,,,,,,,,,,0,8,8,1,1,,,,,,,,,,,,,,,,,,,,,,,,,,,,,,,,
,,,,,,,,,,,,67de1ad35cbb8f7342e3a7a2,001,3,2025-03-27_18h15.39.672,avatar_quest_3AFC_legacy,2022.1.3,Win32,59.88023952,67de1ad35cbb8f7342e3a7a2,67e5c8c9bc10e40b86efc6fc,67e5cb5687a76eff05ef2c20,"[""left"",""right"",""left""]","[0.11210000014307298,0.15970000004767826,0.7622999999523472]",,calibration,No Brainslug No Barriers With Money,19,8.15992,5.4661,3,0,0,TRUE,na,na,na,na,,,,,,,,,,,,,,,,,,,,,,,,,,,,,,,,,,0,0,0,0,1,,,,,,,,,,,,,,,,,,,,,,,
,,,,,,,,,,,,67de1ad35cbb8f7342e3a7a2,001,3,2025-03-27_18h15.39.672,avatar_quest_3AFC_legacy,2022.1.3,Win32,59.88023952,67de1ad35cbb8f7342e3a7a2,67e5c8c9bc10e40b86efc6fc,67e5cb5687a76eff05ef2c20,,,,,,,,,,,,,,,,,,,,,,No Brainslug No Barriers With Money,0,images/assets/snowy_money.jpg,learning,10,images/assets/success_money.jpg,images/assets/gameover.jpg,,,,,,,,,,,,,0,9,9,9,1,,,,,,,,,,,,,,,,,,,,,,,,,,,,,,,,
,,,,,,,,,,,,67de1ad35cbb8f7342e3a7a2,001,3,2025-03-27_18h15.39.672,avatar_quest_3AFC_legacy,2022.1.3,Win32,59.88023952,67de1ad35cbb8f7342e3a7a2,67e5c8c9bc10e40b86efc6fc,67e5cb5687a76eff05ef2c20,,,,,,,,,,,,,,,,,,,,,,With Brainslug Difficult 1 With Money,6,images/assets/snowy_money.jpg,learning,20,images/assets/success_money.jpg,images/assets/gameover.jpg,,,,,,,,,,,,,0,10,10,0,1,,,,,,,,,,,,,,,,,,,,,,,,,,,,,,,,
,,,,,,,,,,,,67de1ad35cbb8f7342e3a7a2,001,3,2025-03-27_18h15.39.672,avatar_quest_3AFC_legacy,2022.1.3,Win32,59.88023952,67de1ad35cbb8f7342e3a7a2,67e5c8c9bc10e40b86efc6fc,67e5cb5687a76eff05ef2c20,,,,,,,,,,,,,,,,,,,,,,,,,,,,,,,,,,,,,,,,,,,,,,,,,,,,,,,3,0,3,0,1,,,,,,,,,,,,,,,,,,
,,,,,,,,,,,,67de1ad35cbb8f7342e3a7a2,001,3,2025-03-27_18h15.39.672,avatar_quest_3AFC_legacy,2022.1.3,Win32,59.88023952,67de1ad35cbb8f7342e3a7a2,67e5c8c9bc10e40b86efc6fc,67e5cb5687a76eff05ef2c20,,,,,,,,,,,,,,,,,,,,,,No Brainslug Difficult 2 With Money,12,images/assets/snowy_money.jpg,learning,20,images/assets/success_money.jpg,images/assets/gameover.jpg,,,,,,,,No Brainslug No Barriers No Money,No Brainslug No Barriers No Money,left,0.8189,"[""No Brainslug Difficult 1 No Money"",""No Brainslug No Barriers With Money""]",0,0,0,7,1,,,,,,,,,,,,,,,,,,,,,,,,,,,,,,,,
,,,,,,,,,,,,67de1ad35cbb8f7342e3a7a2,001,3,2025-03-27_18h15.39.672,avatar_quest_3AFC_legacy,2022.1.3,Win32,59.88023952,67de1ad35cbb8f7342e3a7a2,67e5c8c9bc10e40b86efc6fc,67e5cb5687a76eff05ef2c20,,,,,,,,,,,,,,,,,,,,,,With Brainslug Difficult 2 No Money,12,images/assets/snowy_original.jpg,learning,20,images/assets/success.jpg,images/assets/gameover.jpg,,,,,,,,,,,,,0,1,1,3,1,,,,,,,,,,,,,,,,,,,,,,,,,,,,,,,,
,,,,,,,,,,,,67de1ad35cbb8f7342e3a7a2,001,3,2025-03-27_18h15.39.672,avatar_quest_3AFC_legacy,2022.1.3,Win32,59.88023952,67de1ad35cbb8f7342e3a7a2,67e5c8c9bc10e40b86efc6fc,67e5cb5687a76eff05ef2c20,,,,,,,,,,,,,,,,,,,,,,With Brainslug No Barriers With Money,0,images/assets/snowy_money.jpg,learning,10,images/assets/success_money.jpg,images/assets/gameover.jpg,,,,,,,,,,,,,0,2,2,4,1,,,,,,,,,,,,,,,,,,,,,,,,,,,,,,,,
,,,,,,,,,,,,67de1ad35cbb8f7342e3a7a2,001,3,2025-03-27_18h15.39.672,avatar_quest_3AFC_legacy,2022.1.3,Win32,59.88023952,67de1ad35cbb8f7342e3a7a2,67e5c8c9bc10e40b86efc6fc,67e5cb5687a76eff05ef2c20,,,,,,,,,,,,,,,,,,,,,,No Brainslug No Barriers With Money,0,images/assets/snowy_money.jpg,learning,10,images/assets/success_money.jpg,images/assets/gameover.jpg,,,,,,,,,,,,,0,3,3,9,1,,,,,,,,,,,,,,,,,,,,,,,,,,,,,,,,
,,,,,,,,,,,,67de1ad35cbb8f7342e3a7a2,001,3,2025-03-27_18h15.39.672,avatar_quest_3AFC_legacy,2022.1.3,Win32,59.88023952,67de1ad35cbb8f7342e3a7a2,67e5c8c9bc10e40b86efc6fc,67e5cb5687a76eff05ef2c20,,,,,,,,,,,,,,,,,,,,,,With Brainslug Difficult 1 With Money,6,images/assets/snowy_money.jpg,learning,20,images/assets/success_money.jpg,images/assets/gameover.jpg,,,,,,,,,,,,,0,4,4,0,1,,,,,,,,,,,,,,,,,,,,,,,,,,,,,,,,
,,,,,,,,,,,,67de1ad35cbb8f7342e3a7a2,001,3,2025-03-27_18h15.39.672,avatar_quest_3AFC_legacy,2022.1.3,Win32,59.88023952,67de1ad35cbb8f7342e3a7a2,67e5c8c9bc10e40b86efc6fc,67e5cb5687a76eff05ef2c20,,,,,,,,,,,,,,,,,,,,,,No Brainslug Difficult 2 No Money,12,images/assets/snowy_original.jpg,learning,20,images/assets/success.jpg,images/assets/gameover.jpg,,,,,,,,,,,,,0,5,5,8,1,,,,,,,,,,,,,,,,,,,,,,,,,,,,,,,,
,,,,,,,,,,,,67de1ad35cbb8f7342e3a7a2,001,3,2025-03-27_18h15.39.672,avatar_quest_3AFC_legacy,2022.1.3,Win32,59.88023952,67de1ad35cbb8f7342e3a7a2,67e5c8c9bc10e40b86efc6fc,67e5cb5687a76eff05ef2c20,,,,,,,,,,,,,,,,,,,,,,With Brainslug Difficult 1 No Money,6,images/assets/snowy_original.jpg,learning,20,images/assets/success.jpg,images/assets/gameover.jpg,,,,,,,,,,,,,0,6,6,1,1,,,,,,,,,,,,,,,,,,,,,,,,,,,,,,,,
,,,,,,,,,,,,67de1ad35cbb8f7342e3a7a2,001,3,2025-03-27_18h15.39.672,avatar_quest_3AFC_legacy,2022.1.3,Win32,59.88023952,67de1ad35cbb8f7342e3a7a2,67e5c8c9bc10e40b86efc6fc,67e5cb5687a76eff05ef2c20,,,,,,,,,,,,,,,,,,,,,,No Brainslug Difficult 1 No Money,6,images/assets/snowy_original.jpg,learning,20,images/assets/success.jpg,images/assets/gameover.jpg,,,,,,,,,,,,,0,7,7,6,1,,,,,,,,,,,,,,,,,,,,,,,,,,,,,,,,
