instruction_mouse.x,instruction_mouse.y,instruction_mouse.leftButton,instruction_mouse.midButton,instruction_mouse.rightButton,instruction_mouse.clicked_name,introduce_general.thisRepN,introduce_general.thisTrialN,introduce_general.thisN,introduce_general.thisIndex,introduce_general.ran,thisInstruction,participant,session,game version,date,expName,psychopyVersion,OS,frameRate,PROLIFIC PID,STUDY ID,SESSION ID,move_resp.keys,move_resp.rt,end_resp.keys,phase,condition,trial_num,time_limit,completion_time,left_right_steps,number_of_obsticle_blocks,number_of_tree_blocks,quest_complete,responsivity_summary,av_inter_brainslug_intervals,proportion_jitter,jitter_direction_proportion_right,calibration_phase.thisRepN,calibration_phase.thisTrialN,calibration_phase.thisN,calibration_phase.thisIndex,calibration_phase.ran,BlockLabel,nObsticles,backgroundImage,phaseLabel,n_side_steps,success_im,gameover_im,success_condition,introduce_learning_or_choice.thisRepN,introduce_learning_or_choice.thisTrialN,introduce_learning_or_choice.thisN,introduce_learning_or_choice.thisIndex,introduce_learning_or_choice.ran,choice_resp.keys,chosen_quest,unchosen_quest,choice_resp_3afc.keys,choice_resp_3afc.rt,unchosen_quests,forced_choice_trial.thisRepN,forced_choice_trial.thisTrialN,forced_choice_trial.thisN,forced_choice_trial.thisIndex,forced_choice_trial.ran,enjoyment_slider.response,enjoyment_slider.rt,effort_slider.response,effort_slider.rt,show_loop2.thisRepN,show_loop2.thisTrialN,show_loop2.thisN,show_loop2.thisIndex,show_loop2.ran,trials_per_block.thisRepN,trials_per_block.thisTrialN,trials_per_block.thisN,trials_per_block.thisIndex,trials_per_block.ran,decision_phase_AFC.thisRepN,decision_phase_AFC.thisTrialN,decision_phase_AFC.thisN,decision_phase_AFC.thisIndex,decision_phase_AFC.ran,blockN,BlockLabel1,questIm1,BlockLabel2,questIm2,BlockLabel3,questIm3,quest_condition,showForcedChoice.thisRepN,showForcedChoice.thisTrialN,showForcedChoice.thisN,showForcedChoice.thisIndex,showForcedChoice.ran
0.453703704,-0.391666695,1,0,0,instruction_button,0,0,0,0,1,images/instructions_part1_LSM_taskversion1/Slide1.JPG,67e0977dda2e47eafce0f06a,001,3,2025-03-27_19h00.09.209,avatar_quest_3AFC_legacy,2022.1.3,Win32,46.72897196,67e0977dda2e47eafce0f06a,67e5c8c9bc10e40b86efc6fc,67e5d336e5b3671fcdff070d,,,,,,,,,,,,,,,,,,,,,,,,,,,,,,,,,,,,,,,,,,,,,,,,,,,,,,,,,,,,,,,,,,,,,,,,,,,,,
0.459259316,-0.388888889,1,0,0,instruction_button,0,1,1,1,1,images/instructions_part1_LSM_taskversion1/Slide2.JPG,67e0977dda2e47eafce0f06a,001,3,2025-03-27_19h00.09.209,avatar_quest_3AFC_legacy,2022.1.3,Win32,46.72897196,67e0977dda2e47eafce0f06a,67e5c8c9bc10e40b86efc6fc,67e5d336e5b3671fcdff070d,,,,,,,,,,,,,,,,,,,,,,,,,,,,,,,,,,,,,,,,,,,,,,,,,,,,,,,,,,,,,,,,,,,,,,,,,,,,,
0.45185188,-0.390740783,1,0,0,instruction_button,0,2,2,2,1,images/instructions_part1_LSM_taskversion1/Slide3.JPG,67e0977dda2e47eafce0f06a,001,3,2025-03-27_19h00.09.209,avatar_quest_3AFC_legacy,2022.1.3,Win32,46.72897196,67e0977dda2e47eafce0f06a,67e5c8c9bc10e40b86efc6fc,67e5d336e5b3671fcdff070d,,,,,,,,,,,,,,,,,,,,,,,,,,,,,,,,,,,,,,,,,,,,,,,,,,,,,,,,,,,,,,,,,,,,,,,,,,,,,
0.432407379,-0.390740783,1,0,0,instruction_button,0,3,3,3,1,images/instructions_part1_LSM_taskversion1/Slide3.5.JPG,67e0977dda2e47eafce0f06a,001,3,2025-03-27_19h00.09.209,avatar_quest_3AFC_legacy,2022.1.3,Win32,46.72897196,67e0977dda2e47eafce0f06a,67e5c8c9bc10e40b86efc6fc,67e5d336e5b3671fcdff070d,,,,,,,,,,,,,,,,,,,,,,,,,,,,,,,,,,,,,,,,,,,,,,,,,,,,,,,,,,,,,,,,,,,,,,,,,,,,,
0.45648151,-0.389814801,1,0,0,instruction_button,0,4,4,4,1,images/instructions_part1_LSM_taskversion1/Slide4.JPG,67e0977dda2e47eafce0f06a,001,3,2025-03-27_19h00.09.209,avatar_quest_3AFC_legacy,2022.1.3,Win32,46.72897196,67e0977dda2e47eafce0f06a,67e5c8c9bc10e40b86efc6fc,67e5d336e5b3671fcdff070d,,,,,,,,,,,,,,,,,,,,,,,,,,,,,,,,,,,,,,,,,,,,,,,,,,,,,,,,,,,,,,,,,,,,,,,,,,,,,
0.446296268,-0.40370369,1,0,0,instruction_button,0,5,5,5,1,images/instructions_part1_LSM_taskversion1/Slide6.5.JPG,67e0977dda2e47eafce0f06a,001,3,2025-03-27_19h00.09.209,avatar_quest_3AFC_legacy,2022.1.3,Win32,46.72897196,67e0977dda2e47eafce0f06a,67e5c8c9bc10e40b86efc6fc,67e5d336e5b3671fcdff070d,,,,,,,,,,,,,,,,,,,,,,,,,,,,,,,,,,,,,,,,,,,,,,,,,,,,,,,,,,,,,,,,,,,,,,,,,,,,,
,,,,,,,,,,,,67e0977dda2e47eafce0f06a,001,3,2025-03-27_19h00.09.209,avatar_quest_3AFC_legacy,2022.1.3,Win32,46.72897196,67e0977dda2e47eafce0f06a,67e5c8c9bc10e40b86efc6fc,67e5d336e5b3671fcdff070d,"[""left"",""right""]","[2.8309999999999036,4.181700000047613]",,calibration,No Brainslug No Barriers No Money,1,100,5.5234,2,0,1,TRUE,na,na,na,na,0,0,0,2,1,No Brainslug No Barriers No Money,0,images/assets/snowy_original.jpg,calibration,10,images/assets/success.jpg,images/assets/gameover.jpg,never,,,,,,,,,,,,,,,,,,,,,,,,,,,,,,,,,,,,,,,,,,,,,,,,
,,,,,,,,,,,,67e0977dda2e47eafce0f06a,001,3,2025-03-27_19h00.09.209,avatar_quest_3AFC_legacy,2022.1.3,Win32,46.72897196,67e0977dda2e47eafce0f06a,67e5c8c9bc10e40b86efc6fc,67e5d336e5b3671fcdff070d,"[""left"",""right""]","[2.3623000001906576,3.9899000000953038]",,calibration,No Brainslug No Barriers No Money,2,100,5.5549,2,0,0,TRUE,na,na,na,na,0,1,1,0,1,No Brainslug No Barriers No Money,0,images/assets/snowy_original.jpg,calibration,10,images/assets/success.jpg,images/assets/gameover.jpg,never,,,,,,,,,,,,,,,,,,,,,,,,,,,,,,,,,,,,,,,,,,,,,,,,
,,,,,,,,,,,,67e0977dda2e47eafce0f06a,001,3,2025-03-27_19h00.09.209,avatar_quest_3AFC_legacy,2022.1.3,Win32,46.72897196,67e0977dda2e47eafce0f06a,67e5c8c9bc10e40b86efc6fc,67e5d336e5b3671fcdff070d,"[""left"",""right""]","[1.408599999904709,4.1170000000000755]",,calibration,No Brainslug No Barriers No Money,3,100,5.5182,2,0,0,TRUE,na,na,na,na,0,2,2,1,1,No Brainslug No Barriers No Money,0,images/assets/snowy_original.jpg,calibration,10,images/assets/success.jpg,images/assets/gameover.jpg,never,,,,,,,,,,,,,,,,,,,,,,,,,,,,,,,,,,,,,,,,,,,,,,,,
0.450000057,-0.390740783,1,0,0,instruction_button,,,,,,images/instructions_part2_LSM_taskversion3.jpg,67e0977dda2e47eafce0f06a,001,3,2025-03-27_19h00.09.209,avatar_quest_3AFC_legacy,2022.1.3,Win32,46.72897196,67e0977dda2e47eafce0f06a,67e5c8c9bc10e40b86efc6fc,67e5d336e5b3671fcdff070d,,,,,,,,,,,,,,,,,,,,,,,,,,,,,,0,0,0,0,1,,,,,,,,,,,,,,,,,,,,,,,,,,,,,,,,,,,,,,,,,,,
,,,,,,,,,,,,67e0977dda2e47eafce0f06a,001,3,2025-03-27_19h00.09.209,avatar_quest_3AFC_legacy,2022.1.3,Win32,46.72897196,67e0977dda2e47eafce0f06a,67e5c8c9bc10e40b86efc6fc,67e5d336e5b3671fcdff070d,,,,,,,,,,,,,,,,,,,,,,With Brainslug Difficult 1 With Money,6,images/assets/snowy_money.jpg,learning,20,images/assets/success_money.jpg,images/assets/gameover.jpg,,,,,,,,With Brainslug Difficult 2 With Money,With Brainslug Difficult 1 No Money,right,13.013,"[""With Brainslug Difficult 1 No Money"",""With Brainslug Difficult 2 No Money""]",0,0,0,0,1,,,,,,,,,,,,,,,,,,,,,,,,,,,,,,,,
,,,,,,,,,,,,67e0977dda2e47eafce0f06a,001,3,2025-03-27_19h00.09.209,avatar_quest_3AFC_legacy,2022.1.3,Win32,46.72897196,67e0977dda2e47eafce0f06a,67e5c8c9bc10e40b86efc6fc,67e5d336e5b3671fcdff070d,,,,,,,,,,,,,,,,,,,,,,No Brainslug Difficult 1 No Money,6,images/assets/snowy_original.jpg,learning,20,images/assets/success.jpg,images/assets/gameover.jpg,,,,,,,,,,,,,0,1,1,6,1,,,,,,,,,,,,,,,,,,,,,,,,,,,,,,,,
,,,,,,,,,,,,67e0977dda2e47eafce0f06a,001,3,2025-03-27_19h00.09.209,avatar_quest_3AFC_legacy,2022.1.3,Win32,46.72897196,67e0977dda2e47eafce0f06a,67e5c8c9bc10e40b86efc6fc,67e5d336e5b3671fcdff070d,,,,,,,,,,,,,,,,,,,,,,With Brainslug No Barriers With Money,0,images/assets/snowy_money.jpg,learning,10,images/assets/success_money.jpg,images/assets/gameover.jpg,,,,,,,,,,,,,0,2,2,4,1,,,,,,,,,,,,,,,,,,,,,,,,,,,,,,,,
,,,,,,,,,,,,67e0977dda2e47eafce0f06a,001,3,2025-03-27_19h00.09.209,avatar_quest_3AFC_legacy,2022.1.3,Win32,46.72897196,67e0977dda2e47eafce0f06a,67e5c8c9bc10e40b86efc6fc,67e5d336e5b3671fcdff070d,,,,,,,,,,,,,,,,,,,,,,No Brainslug Difficult 2 With Money,12,images/assets/snowy_money.jpg,learning,20,images/assets/success_money.jpg,images/assets/gameover.jpg,,,,,,,,,,,,,0,3,3,7,1,,,,,,,,,,,,,,,,,,,,,,,,,,,,,,,,
,,,,,,,,,,,,67e0977dda2e47eafce0f06a,001,3,2025-03-27_19h00.09.209,avatar_quest_3AFC_legacy,2022.1.3,Win32,46.72897196,67e0977dda2e47eafce0f06a,67e5c8c9bc10e40b86efc6fc,67e5d336e5b3671fcdff070d,,,,,,,,,,,,,,,,,,,,,,With Brainslug Difficult 1 No Money,6,images/assets/snowy_original.jpg,learning,20,images/assets/success.jpg,images/assets/gameover.jpg,,,,,,,,,,,,,0,4,4,1,1,,,,,,,,,,,,,,,,,,,,,,,,,,,,,,,,
,,,,,,,,,,,,67e0977dda2e47eafce0f06a,001,3,2025-03-27_19h00.09.209,avatar_quest_3AFC_legacy,2022.1.3,Win32,46.72897196,67e0977dda2e47eafce0f06a,67e5c8c9bc10e40b86efc6fc,67e5d336e5b3671fcdff070d,"[""left"",""right"",""right"",""left"",""right"",""right"",""right""]","[2.579299999952241,3.7647000000476964,4.197499999999991,5.030799999952251,6.158500000000004,6.670400000095356,7.298000000000002]",,calibration,With Brainslug Difficult 2 With Money,4,8.29825,8.3161,3,4,0,FALSE,na,na,na,na,,,,,,,,,,,,,,,,,,,,,,,,,,,,,,,,,,0,0,0,0,1,,,,,,,,,,,,,,,,,,,,,,,
,,,,,,,,,,,,67e0977dda2e47eafce0f06a,001,3,2025-03-27_19h00.09.209,avatar_quest_3AFC_legacy,2022.1.3,Win32,46.72897196,67e0977dda2e47eafce0f06a,67e5c8c9bc10e40b86efc6fc,67e5d336e5b3671fcdff070d,,,,,,,,,,,,,,,,,,,,,,With Brainslug Difficult 2 With Money,12,images/assets/snowy_money.jpg,learning,20,images/assets/success_money.jpg,images/assets/gameover.jpg,,,,,,,,,,,,,0,5,5,2,1,,,,,,,,,,,,,,,,,,,,,,,,,,,,,,,,
,,,,,,,,,,,,67e0977dda2e47eafce0f06a,001,3,2025-03-27_19h00.09.209,avatar_quest_3AFC_legacy,2022.1.3,Win32,46.72897196,67e0977dda2e47eafce0f06a,67e5c8c9bc10e40b86efc6fc,67e5d336e5b3671fcdff070d,,,,,,,,,,,,,,,,,,,,,,With Brainslug No Barriers No Money,0,images/assets/snowy_original.jpg,learning,10,images/assets/success.jpg,images/assets/gameover.jpg,,,,,,,,,,,,,0,6,6,5,1,,,,,,,,,,,,,,,,,,,,,,,,,,,,,,,,
,,,,,,,,,,,,67e0977dda2e47eafce0f06a,001,3,2025-03-27_19h00.09.209,avatar_quest_3AFC_legacy,2022.1.3,Win32,46.72897196,67e0977dda2e47eafce0f06a,67e5c8c9bc10e40b86efc6fc,67e5d336e5b3671fcdff070d,,,,,,,,,,,,,,,,,,,,,,No Brainslug Difficult 2 No Money,12,images/assets/snowy_original.jpg,learning,20,images/assets/success.jpg,images/assets/gameover.jpg,,,,,,,,,,,,,0,7,7,8,1,,,,,,,,,,,,,,,,,,,,,,,,,,,,,,,,
,,,,,,,,,,,,67e0977dda2e47eafce0f06a,001,3,2025-03-27_19h00.09.209,avatar_quest_3AFC_legacy,2022.1.3,Win32,46.72897196,67e0977dda2e47eafce0f06a,67e5c8c9bc10e40b86efc6fc,67e5d336e5b3671fcdff070d,,,,,,,,,,,,,,,,,,,,,,With Brainslug Difficult 2 No Money,12,images/assets/snowy_original.jpg,learning,20,images/assets/success.jpg,images/assets/gameover.jpg,,,,,,,,,,,,,0,8,8,3,1,,,,,,,,,,,,,,,,,,,,,,,,,,,,,,,,
,,,,,,,,,,,,67e0977dda2e47eafce0f06a,001,3,2025-03-27_19h00.09.209,avatar_quest_3AFC_legacy,2022.1.3,Win32,46.72897196,67e0977dda2e47eafce0f06a,67e5c8c9bc10e40b86efc6fc,67e5d336e5b3671fcdff070d,,,,,,,,,,,,,,,,,,,,,,No Brainslug No Barriers No Money,0,images/assets/snowy_original.jpg,learning,10,images/assets/success.jpg,images/assets/gameover.jpg,,,,,,,,,,,,,0,9,9,10,1,,,,,,,,,,,,,,,,,,,,,,,,,,,,,,,,
,,,,,,,,,,,,67e0977dda2e47eafce0f06a,001,3,2025-03-27_19h00.09.209,avatar_quest_3AFC_legacy,2022.1.3,Win32,46.72897196,67e0977dda2e47eafce0f06a,67e5c8c9bc10e40b86efc6fc,67e5d336e5b3671fcdff070d,,,,,,,,,,,,,,,,,,,,,,No Brainslug No Barriers With Money,0,images/assets/snowy_money.jpg,learning,10,images/assets/success_money.jpg,images/assets/gameover.jpg,,,,,,,,,,,,,0,10,10,9,1,,,,,,,,,,,,,,,,,,,,,,,,,,,,,,,,
,,,,,,,,,,,,67e0977dda2e47eafce0f06a,001,3,2025-03-27_19h00.09.209,avatar_quest_3AFC_legacy,2022.1.3,Win32,46.72897196,67e0977dda2e47eafce0f06a,67e5c8c9bc10e40b86efc6fc,67e5d336e5b3671fcdff070d,,,,,,,,,,,,,,,,,,,,,,,,,,,,,,,,,,,,,,,,,,,,,,,,,,,,,,,0,0,0,0,1,,,,,,,,,,,,,,,,,,
,,,,,,,,,,,,67e0977dda2e47eafce0f06a,001,3,2025-03-27_19h00.09.209,avatar_quest_3AFC_legacy,2022.1.3,Win32,46.72897196,67e0977dda2e47eafce0f06a,67e5c8c9bc10e40b86efc6fc,67e5d336e5b3671fcdff070d,,,,,,,,,,,,,,,,,,,,,,With Brainslug No Barriers With Money,0,images/assets/snowy_money.jpg,learning,10,images/assets/success_money.jpg,images/assets/gameover.jpg,,,,,,,,With Brainslug Difficult 2 With Money,With Brainslug Difficult 1 No Money,right,2.9598,"[""With Brainslug Difficult 1 No Money"",""With Brainslug Difficult 2 No Money""]",0,0,0,4,1,,,,,,,,,,,,,,,,,,,,,,,,,,,,,,,,
,,,,,,,,,,,,67e0977dda2e47eafce0f06a,001,3,2025-03-27_19h00.09.209,avatar_quest_3AFC_legacy,2022.1.3,Win32,46.72897196,67e0977dda2e47eafce0f06a,67e5c8c9bc10e40b86efc6fc,67e5d336e5b3671fcdff070d,,,,,,,,,,,,,,,,,,,,,,With Brainslug Difficult 2 No Money,12,images/assets/snowy_original.jpg,learning,20,images/assets/success.jpg,images/assets/gameover.jpg,,,,,,,,,,,,,0,1,1,3,1,,,,,,,,,,,,,,,,,,,,,,,,,,,,,,,,
,,,,,,,,,,,,67e0977dda2e47eafce0f06a,001,3,2025-03-27_19h00.09.209,avatar_quest_3AFC_legacy,2022.1.3,Win32,46.72897196,67e0977dda2e47eafce0f06a,67e5c8c9bc10e40b86efc6fc,67e5d336e5b3671fcdff070d,,,,,,,,,,,,,,,,,,,,,,No Brainslug Difficult 2 No Money,12,images/assets/snowy_original.jpg,learning,20,images/assets/success.jpg,images/assets/gameover.jpg,,,,,,,,,,,,,0,2,2,8,1,,,,,,,,,,,,,,,,,,,,,,,,,,,,,,,,
,,,,,,,,,,,,67e0977dda2e47eafce0f06a,001,3,2025-03-27_19h00.09.209,avatar_quest_3AFC_legacy,2022.1.3,Win32,46.72897196,67e0977dda2e47eafce0f06a,67e5c8c9bc10e40b86efc6fc,67e5d336e5b3671fcdff070d,,,,,,,,,,,,,,,,,,,,,,No Brainslug No Barriers No Money,0,images/assets/snowy_original.jpg,learning,10,images/assets/success.jpg,images/assets/gameover.jpg,,,,,,,,,,,,,0,3,3,10,1,,,,,,,,,,,,,,,,,,,,,,,,,,,,,,,,
,,,,,,,,,,,,67e0977dda2e47eafce0f06a,001,3,2025-03-27_19h00.09.209,avatar_quest_3AFC_legacy,2022.1.3,Win32,46.72897196,67e0977dda2e47eafce0f06a,67e5c8c9bc10e40b86efc6fc,67e5d336e5b3671fcdff070d,,,,,,,,,,,,,,,,,,,,,,No Brainslug Difficult 1 No Money,6,images/assets/snowy_original.jpg,learning,20,images/assets/success.jpg,images/assets/gameover.jpg,,,,,,,,,,,,,0,4,4,6,1,,,,,,,,,,,,,,,,,,,,,,,,,,,,,,,,
,,,,,,,,,,,,67e0977dda2e47eafce0f06a,001,3,2025-03-27_19h00.09.209,avatar_quest_3AFC_legacy,2022.1.3,Win32,46.72897196,67e0977dda2e47eafce0f06a,67e5c8c9bc10e40b86efc6fc,67e5d336e5b3671fcdff070d,,,,,,,,,,,,,,,,,,,,,,With Brainslug Difficult 1 With Money,6,images/assets/snowy_money.jpg,learning,20,images/assets/success_money.jpg,images/assets/gameover.jpg,,,,,,,,,,,,,0,5,5,0,1,,,,,,,,,,,,,,,,,,,,,,,,,,,,,,,,
,,,,,,,,,,,,67e0977dda2e47eafce0f06a,001,3,2025-03-27_19h00.09.209,avatar_quest_3AFC_legacy,2022.1.3,Win32,46.72897196,67e0977dda2e47eafce0f06a,67e5c8c9bc10e40b86efc6fc,67e5d336e5b3671fcdff070d,,,,,,,,,,,,,,,,,,,,,,No Brainslug No Barriers With Money,0,images/assets/snowy_money.jpg,learning,10,images/assets/success_money.jpg,images/assets/gameover.jpg,,,,,,,,,,,,,0,6,6,9,1,,,,,,,,,,,,,,,,,,,,,,,,,,,,,,,,
,,,,,,,,,,,,67e0977dda2e47eafce0f06a,001,3,2025-03-27_19h00.09.209,avatar_quest_3AFC_legacy,2022.1.3,Win32,46.72897196,67e0977dda2e47eafce0f06a,67e5c8c9bc10e40b86efc6fc,67e5d336e5b3671fcdff070d,"[""left"",""right"",""right"",""right"",""right"",""right"",""left"",""left"",""right"",""left""]","[1.8327999999522717,3.627700000047639,4.1202999999522945,4.663499999999999,5.083799999952248,5.53260000014302,5.730600000142999,6.358700000047634,6.979100000143035,8.111799999952268]",,calibration,With Brainslug Difficult 2 With Money,5,8.29825,8.326,5,4,0,FALSE,na,na,na,na,,,,,,,,,,,,,,,,,,,,,,,,,,,,,,,,,,0,0,0,0,1,,,,,,,,,,,,,,,,,,,,,,,
,,,,,,,,,,,,67e0977dda2e47eafce0f06a,001,3,2025-03-27_19h00.09.209,avatar_quest_3AFC_legacy,2022.1.3,Win32,46.72897196,67e0977dda2e47eafce0f06a,67e5c8c9bc10e40b86efc6fc,67e5d336e5b3671fcdff070d,,,,,,,,,,,,,,,,,,,,,,With Brainslug Difficult 2 With Money,12,images/assets/snowy_money.jpg,learning,20,images/assets/success_money.jpg,images/assets/gameover.jpg,,,,,,,,,,,,,0,7,7,2,1,,,,,,,,,,,,,,,,,,,,,,,,,,,,,,,,
,,,,,,,,,,,,67e0977dda2e47eafce0f06a,001,3,2025-03-27_19h00.09.209,avatar_quest_3AFC_legacy,2022.1.3,Win32,46.72897196,67e0977dda2e47eafce0f06a,67e5c8c9bc10e40b86efc6fc,67e5d336e5b3671fcdff070d,,,,,,,,,,,,,,,,,,,,,,With Brainslug No Barriers No Money,0,images/assets/snowy_original.jpg,learning,10,images/assets/success.jpg,images/assets/gameover.jpg,,,,,,,,,,,,,0,8,8,5,1,,,,,,,,,,,,,,,,,,,,,,,,,,,,,,,,
,,,,,,,,,,,,67e0977dda2e47eafce0f06a,001,3,2025-03-27_19h00.09.209,avatar_quest_3AFC_legacy,2022.1.3,Win32,46.72897196,67e0977dda2e47eafce0f06a,67e5c8c9bc10e40b86efc6fc,67e5d336e5b3671fcdff070d,,,,,,,,,,,,,,,,,,,,,,With Brainslug Difficult 1 No Money,6,images/assets/snowy_original.jpg,learning,20,images/assets/success.jpg,images/assets/gameover.jpg,,,,,,,,,,,,,0,9,9,1,1,,,,,,,,,,,,,,,,,,,,,,,,,,,,,,,,
,,,,,,,,,,,,67e0977dda2e47eafce0f06a,001,3,2025-03-27_19h00.09.209,avatar_quest_3AFC_legacy,2022.1.3,Win32,46.72897196,67e0977dda2e47eafce0f06a,67e5c8c9bc10e40b86efc6fc,67e5d336e5b3671fcdff070d,,,,,,,,,,,,,,,,,,,,,,No Brainslug Difficult 2 With Money,12,images/assets/snowy_money.jpg,learning,20,images/assets/success_money.jpg,images/assets/gameover.jpg,,,,,,,,,,,,,0,10,10,7,1,,,,,,,,,,,,,,,,,,,,,,,,,,,,,,,,
,,,,,,,,,,,,67e0977dda2e47eafce0f06a,001,3,2025-03-27_19h00.09.209,avatar_quest_3AFC_legacy,2022.1.3,Win32,46.72897196,67e0977dda2e47eafce0f06a,67e5c8c9bc10e40b86efc6fc,67e5d336e5b3671fcdff070d,,,,,,,,,,,,,,,,,,,,,,,,,,,,,,,,,,,,,,,,,,,,,,,,,,,,,,,1,0,1,0,1,,,,,,,,,,,,,,,,,,
,,,,,,,,,,,,67e0977dda2e47eafce0f06a,001,3,2025-03-27_19h00.09.209,avatar_quest_3AFC_legacy,2022.1.3,Win32,46.72897196,67e0977dda2e47eafce0f06a,67e5c8c9bc10e40b86efc6fc,67e5d336e5b3671fcdff070d,,,,,,,,,,,,,,,,,,,,,,No Brainslug Difficult 2 No Money,12,images/assets/snowy_original.jpg,learning,20,images/assets/success.jpg,images/assets/gameover.jpg,,,,,,,,With Brainslug Difficult 2 With Money,With Brainslug Difficult 1 No Money,right,9.1694,"[""With Brainslug Difficult 1 No Money"",""With Brainslug Difficult 2 No Money""]",0,0,0,8,1,,,,,,,,,,,,,,,,,,,,,,,,,,,,,,,,
,,,,,,,,,,,,67e0977dda2e47eafce0f06a,001,3,2025-03-27_19h00.09.209,avatar_quest_3AFC_legacy,2022.1.3,Win32,46.72897196,67e0977dda2e47eafce0f06a,67e5c8c9bc10e40b86efc6fc,67e5d336e5b3671fcdff070d,,,,,,,,,,,,,,,,,,,,,,With Brainslug No Barriers With Money,0,images/assets/snowy_money.jpg,learning,10,images/assets/success_money.jpg,images/assets/gameover.jpg,,,,,,,,,,,,,0,1,1,4,1,,,,,,,,,,,,,,,,,,,,,,,,,,,,,,,,
,,,,,,,,,,,,67e0977dda2e47eafce0f06a,001,3,2025-03-27_19h00.09.209,avatar_quest_3AFC_legacy,2022.1.3,Win32,46.72897196,67e0977dda2e47eafce0f06a,67e5c8c9bc10e40b86efc6fc,67e5d336e5b3671fcdff070d,,,,,,,,,,,,,,,,,,,,,,No Brainslug Difficult 1 No Money,6,images/assets/snowy_original.jpg,learning,20,images/assets/success.jpg,images/assets/gameover.jpg,,,,,,,,,,,,,0,2,2,6,1,,,,,,,,,,,,,,,,,,,,,,,,,,,,,,,,
,,,,,,,,,,,,67e0977dda2e47eafce0f06a,001,3,2025-03-27_19h00.09.209,avatar_quest_3AFC_legacy,2022.1.3,Win32,46.72897196,67e0977dda2e47eafce0f06a,67e5c8c9bc10e40b86efc6fc,67e5d336e5b3671fcdff070d,,,,,,,,,,,,,,,,,,,,,,With Brainslug Difficult 2 No Money,12,images/assets/snowy_original.jpg,learning,20,images/assets/success.jpg,images/assets/gameover.jpg,,,,,,,,,,,,,0,3,3,3,1,,,,,,,,,,,,,,,,,,,,,,,,,,,,,,,,
,,,,,,,,,,,,67e0977dda2e47eafce0f06a,001,3,2025-03-27_19h00.09.209,avatar_quest_3AFC_legacy,2022.1.3,Win32,46.72897196,67e0977dda2e47eafce0f06a,67e5c8c9bc10e40b86efc6fc,67e5d336e5b3671fcdff070d,,,,,,,,,,,,,,,,,,,,,,No Brainslug No Barriers No Money,0,images/assets/snowy_original.jpg,learning,10,images/assets/success.jpg,images/assets/gameover.jpg,,,,,,,,,,,,,0,4,4,10,1,,,,,,,,,,,,,,,,,,,,,,,,,,,,,,,,
,,,,,,,,,,,,67e0977dda2e47eafce0f06a,001,3,2025-03-27_19h00.09.209,avatar_quest_3AFC_legacy,2022.1.3,Win32,46.72897196,67e0977dda2e47eafce0f06a,67e5c8c9bc10e40b86efc6fc,67e5d336e5b3671fcdff070d,,,,,,,,,,,,,,,,,,,,,,No Brainslug Difficult 2 With Money,12,images/assets/snowy_money.jpg,learning,20,images/assets/success_money.jpg,images/assets/gameover.jpg,,,,,,,,,,,,,0,5,5,7,1,,,,,,,,,,,,,,,,,,,,,,,,,,,,,,,,
,,,,,,,,,,,,67e0977dda2e47eafce0f06a,001,3,2025-03-27_19h00.09.209,avatar_quest_3AFC_legacy,2022.1.3,Win32,46.72897196,67e0977dda2e47eafce0f06a,67e5c8c9bc10e40b86efc6fc,67e5d336e5b3671fcdff070d,"[""left"",""left"",""left"",""right"",""right"",""right"",""right"",""right"",""left"",""left"",""right"",""left"",""right"",""left""]","[0.7777000000476164,1.695900000095321,2.3707999999522826,2.478999999999928,2.9362999999522117,3.563100000142981,4.050700000047641,4.5501000001429475,4.801299999952221,5.251799999952254,5.886700000047654,6.661999999999921,7.234200000047622,7.868299999952228]",,calibration,With Brainslug Difficult 2 With Money,6,8.29825,8.3267,11,7,0,FALSE,na,na,na,na,,,,,,,,,,,,,,,,,,,,,,,,,,,,,,,,,,0,0,0,0,1,,,,,,,,,,,,,,,,,,,,,,,
,,,,,,,,,,,,67e0977dda2e47eafce0f06a,001,3,2025-03-27_19h00.09.209,avatar_quest_3AFC_legacy,2022.1.3,Win32,46.72897196,67e0977dda2e47eafce0f06a,67e5c8c9bc10e40b86efc6fc,67e5d336e5b3671fcdff070d,,,,,,,,,,,,,,,,,,,,,,With Brainslug Difficult 2 With Money,12,images/assets/snowy_money.jpg,learning,20,images/assets/success_money.jpg,images/assets/gameover.jpg,,,,,,,,,,,,,0,6,6,2,1,,,,,,,,,,,,,,,,,,,,,,,,,,,,,,,,
,,,,,,,,,,,,67e0977dda2e47eafce0f06a,001,3,2025-03-27_19h00.09.209,avatar_quest_3AFC_legacy,2022.1.3,Win32,46.72897196,67e0977dda2e47eafce0f06a,67e5c8c9bc10e40b86efc6fc,67e5d336e5b3671fcdff070d,,,,,,,,,,,,,,,,,,,,,,With Brainslug Difficult 1 With Money,6,images/assets/snowy_money.jpg,learning,20,images/assets/success_money.jpg,images/assets/gameover.jpg,,,,,,,,,,,,,0,7,7,0,1,,,,,,,,,,,,,,,,,,,,,,,,,,,,,,,,
,,,,,,,,,,,,67e0977dda2e47eafce0f06a,001,3,2025-03-27_19h00.09.209,avatar_quest_3AFC_legacy,2022.1.3,Win32,46.72897196,67e0977dda2e47eafce0f06a,67e5c8c9bc10e40b86efc6fc,67e5d336e5b3671fcdff070d,,,,,,,,,,,,,,,,,,,,,,With Brainslug Difficult 1 No Money,6,images/assets/snowy_original.jpg,learning,20,images/assets/success.jpg,images/assets/gameover.jpg,,,,,,,,,,,,,0,8,8,1,1,,,,,,,,,,,,,,,,,,,,,,,,,,,,,,,,
,,,,,,,,,,,,67e0977dda2e47eafce0f06a,001,3,2025-03-27_19h00.09.209,avatar_quest_3AFC_legacy,2022.1.3,Win32,46.72897196,67e0977dda2e47eafce0f06a,67e5c8c9bc10e40b86efc6fc,67e5d336e5b3671fcdff070d,,,,,,,,,,,,,,,,,,,,,,With Brainslug No Barriers No Money,0,images/assets/snowy_original.jpg,learning,10,images/assets/success.jpg,images/assets/gameover.jpg,,,,,,,,,,,,,0,9,9,5,1,,,,,,,,,,,,,,,,,,,,,,,,,,,,,,,,
,,,,,,,,,,,,67e0977dda2e47eafce0f06a,001,3,2025-03-27_19h00.09.209,avatar_quest_3AFC_legacy,2022.1.3,Win32,46.72897196,67e0977dda2e47eafce0f06a,67e5c8c9bc10e40b86efc6fc,67e5d336e5b3671fcdff070d,,,,,,,,,,,,,,,,,,,,,,No Brainslug No Barriers With Money,0,images/assets/snowy_money.jpg,learning,10,images/assets/success_money.jpg,images/assets/gameover.jpg,,,,,,,,,,,,,0,10,10,9,1,,,,,,,,,,,,,,,,,,,,,,,,,,,,,,,,
,,,,,,,,,,,,67e0977dda2e47eafce0f06a,001,3,2025-03-27_19h00.09.209,avatar_quest_3AFC_legacy,2022.1.3,Win32,46.72897196,67e0977dda2e47eafce0f06a,67e5c8c9bc10e40b86efc6fc,67e5d336e5b3671fcdff070d,,,,,,,,,,,,,,,,,,,,,,,,,,,,,,,,,,,,,,,,,,,,,,,,,,,,,,,2,0,2,0,1,,,,,,,,,,,,,,,,,,
,,,,,,,,,,,,67e0977dda2e47eafce0f06a,001,3,2025-03-27_19h00.09.209,avatar_quest_3AFC_legacy,2022.1.3,Win32,46.72897196,67e0977dda2e47eafce0f06a,67e5c8c9bc10e40b86efc6fc,67e5d336e5b3671fcdff070d,,,,,,,,,,,,,,,,,,,,,,No Brainslug No Barriers With Money,0,images/assets/snowy_money.jpg,learning,10,images/assets/success_money.jpg,images/assets/gameover.jpg,,,,,,,,With Brainslug Difficult 2 With Money,With Brainslug Difficult 1 No Money,right,1.3379,"[""With Brainslug Difficult 1 No Money"",""With Brainslug Difficult 2 No Money""]",0,0,0,9,1,,,,,,,,,,,,,,,,,,,,,,,,,,,,,,,,
,,,,,,,,,,,,67e0977dda2e47eafce0f06a,001,3,2025-03-27_19h00.09.209,avatar_quest_3AFC_legacy,2022.1.3,Win32,46.72897196,67e0977dda2e47eafce0f06a,67e5c8c9bc10e40b86efc6fc,67e5d336e5b3671fcdff070d,,,,,,,,,,,,,,,,,,,,,,With Brainslug No Barriers No Money,0,images/assets/snowy_original.jpg,learning,10,images/assets/success.jpg,images/assets/gameover.jpg,,,,,,,,,,,,,0,1,1,5,1,,,,,,,,,,,,,,,,,,,,,,,,,,,,,,,,
,,,,,,,,,,,,67e0977dda2e47eafce0f06a,001,3,2025-03-27_19h00.09.209,avatar_quest_3AFC_legacy,2022.1.3,Win32,46.72897196,67e0977dda2e47eafce0f06a,67e5c8c9bc10e40b86efc6fc,67e5d336e5b3671fcdff070d,,,,,,,,,,,,,,,,,,,,,,With Brainslug Difficult 2 No Money,12,images/assets/snowy_original.jpg,learning,20,images/assets/success.jpg,images/assets/gameover.jpg,,,,,,,,,,,,,0,2,2,3,1,,,,,,,,,,,,,,,,,,,,,,,,,,,,,,,,
,,,,,,,,,,,,67e0977dda2e47eafce0f06a,001,3,2025-03-27_19h00.09.209,avatar_quest_3AFC_legacy,2022.1.3,Win32,46.72897196,67e0977dda2e47eafce0f06a,67e5c8c9bc10e40b86efc6fc,67e5d336e5b3671fcdff070d,,,,,,,,,,,,,,,,,,,,,,No Brainslug Difficult 1 No Money,6,images/assets/snowy_original.jpg,learning,20,images/assets/success.jpg,images/assets/gameover.jpg,,,,,,,,,,,,,0,3,3,6,1,,,,,,,,,,,,,,,,,,,,,,,,,,,,,,,,
,,,,,,,,,,,,67e0977dda2e47eafce0f06a,001,3,2025-03-27_19h00.09.209,avatar_quest_3AFC_legacy,2022.1.3,Win32,46.72897196,67e0977dda2e47eafce0f06a,67e5c8c9bc10e40b86efc6fc,67e5d336e5b3671fcdff070d,"[""left"",""right"",""left"",""left"",""right"",""right"",""left"",""right"",""left"",""left"",""right"",""right""]","[0.9129000000953056,2.4916000001429666,3.240299999952299,4.091700000047581,4.572999999999979,4.9531000001429675,5.213400000095362,5.772900000095319,6.377200000047651,7.051299999952221,7.518499999999904,8.019600000142987]",,calibration,With Brainslug Difficult 2 With Money,7,8.29825,8.3273,5,4,0,FALSE,na,na,na,na,,,,,,,,,,,,,,,,,,,,,,,,,,,,,,,,,,0,0,0,0,1,,,,,,,,,,,,,,,,,,,,,,,
,,,,,,,,,,,,67e0977dda2e47eafce0f06a,001,3,2025-03-27_19h00.09.209,avatar_quest_3AFC_legacy,2022.1.3,Win32,46.72897196,67e0977dda2e47eafce0f06a,67e5c8c9bc10e40b86efc6fc,67e5d336e5b3671fcdff070d,,,,,,,,,,,,,,,,,,,,,,With Brainslug Difficult 2 With Money,12,images/assets/snowy_money.jpg,learning,20,images/assets/success_money.jpg,images/assets/gameover.jpg,,,,,,,,,,,,,0,4,4,2,1,,,,,,,,,,,,,,,,,,,,,,,,,,,,,,,,
,,,,,,,,,,,,67e0977dda2e47eafce0f06a,001,3,2025-03-27_19h00.09.209,avatar_quest_3AFC_legacy,2022.1.3,Win32,46.72897196,67e0977dda2e47eafce0f06a,67e5c8c9bc10e40b86efc6fc,67e5d336e5b3671fcdff070d,,,,,,,,,,,,,,,,,,,,,,No Brainslug Difficult 2 No Money,12,images/assets/snowy_original.jpg,learning,20,images/assets/success.jpg,images/assets/gameover.jpg,,,,,,,,,,,,,0,5,5,8,1,,,,,,,,,,,,,,,,,,,,,,,,,,,,,,,,
,,,,,,,,,,,,67e0977dda2e47eafce0f06a,001,3,2025-03-27_19h00.09.209,avatar_quest_3AFC_legacy,2022.1.3,Win32,46.72897196,67e0977dda2e47eafce0f06a,67e5c8c9bc10e40b86efc6fc,67e5d336e5b3671fcdff070d,,,,,,,,,,,,,,,,,,,,,,With Brainslug No Barriers With Money,0,images/assets/snowy_money.jpg,learning,10,images/assets/success_money.jpg,images/assets/gameover.jpg,,,,,,,,,,,,,0,6,6,4,1,,,,,,,,,,,,,,,,,,,,,,,,,,,,,,,,
,,,,,,,,,,,,67e0977dda2e47eafce0f06a,001,3,2025-03-27_19h00.09.209,avatar_quest_3AFC_legacy,2022.1.3,Win32,46.72897196,67e0977dda2e47eafce0f06a,67e5c8c9bc10e40b86efc6fc,67e5d336e5b3671fcdff070d,,,,,,,,,,,,,,,,,,,,,,No Brainslug Difficult 2 With Money,12,images/assets/snowy_money.jpg,learning,20,images/assets/success_money.jpg,images/assets/gameover.jpg,,,,,,,,,,,,,0,7,7,7,1,,,,,,,,,,,,,,,,,,,,,,,,,,,,,,,,
,,,,,,,,,,,,67e0977dda2e47eafce0f06a,001,3,2025-03-27_19h00.09.209,avatar_quest_3AFC_legacy,2022.1.3,Win32,46.72897196,67e0977dda2e47eafce0f06a,67e5c8c9bc10e40b86efc6fc,67e5d336e5b3671fcdff070d,,,,,,,,,,,,,,,,,,,,,,No Brainslug No Barriers No Money,0,images/assets/snowy_original.jpg,learning,10,images/assets/success.jpg,images/assets/gameover.jpg,,,,,,,,,,,,,0,8,8,10,1,,,,,,,,,,,,,,,,,,,,,,,,,,,,,,,,
,,,,,,,,,,,,67e0977dda2e47eafce0f06a,001,3,2025-03-27_19h00.09.209,avatar_quest_3AFC_legacy,2022.1.3,Win32,46.72897196,67e0977dda2e47eafce0f06a,67e5c8c9bc10e40b86efc6fc,67e5d336e5b3671fcdff070d,,,,,,,,,,,,,,,,,,,,,,With Brainslug Difficult 1 No Money,6,images/assets/snowy_original.jpg,learning,20,images/assets/success.jpg,images/assets/gameover.jpg,,,,,,,,,,,,,0,9,9,1,1,,,,,,,,,,,,,,,,,,,,,,,,,,,,,,,,
,,,,,,,,,,,,67e0977dda2e47eafce0f06a,001,3,2025-03-27_19h00.09.209,avatar_quest_3AFC_legacy,2022.1.3,Win32,46.72897196,67e0977dda2e47eafce0f06a,67e5c8c9bc10e40b86efc6fc,67e5d336e5b3671fcdff070d,,,,,,,,,,,,,,,,,,,,,,With Brainslug Difficult 1 With Money,6,images/assets/snowy_money.jpg,learning,20,images/assets/success_money.jpg,images/assets/gameover.jpg,,,,,,,,,,,,,0,10,10,0,1,,,,,,,,,,,,,,,,,,,,,,,,,,,,,,,,
,,,,,,,,,,,,67e0977dda2e47eafce0f06a,001,3,2025-03-27_19h00.09.209,avatar_quest_3AFC_legacy,2022.1.3,Win32,46.72897196,67e0977dda2e47eafce0f06a,67e5c8c9bc10e40b86efc6fc,67e5d336e5b3671fcdff070d,,,,,,,,,,,,,,,,,,,,,,,,,,,,,,,,,,,,,,,,,,,,,,,,,,,,,,,3,0,3,0,1,,,,,,,,,,,,,,,,,,
,,,,,,,,,,,,67e0977dda2e47eafce0f06a,001,3,2025-03-27_19h00.09.209,avatar_quest_3AFC_legacy,2022.1.3,Win32,46.72897196,67e0977dda2e47eafce0f06a,67e5c8c9bc10e40b86efc6fc,67e5d336e5b3671fcdff070d,,,,,,,,,,,,,,,,,,,,,,With Brainslug Difficult 1 With Money,6,images/assets/snowy_money.jpg,learning,20,images/assets/success_money.jpg,images/assets/gameover.jpg,,,,,,,,With Brainslug Difficult 2 With Money,With Brainslug Difficult 1 No Money,right,2.4111,"[""With Brainslug Difficult 1 No Money"",""With Brainslug Difficult 2 No Money""]",0,0,0,0,1,,,,,,,,,,,,,,,,,,,,,,,,,,,,,,,,
,,,,,,,,,,,,67e0977dda2e47eafce0f06a,001,3,2025-03-27_19h00.09.209,avatar_quest_3AFC_legacy,2022.1.3,Win32,46.72897196,67e0977dda2e47eafce0f06a,67e5c8c9bc10e40b86efc6fc,67e5d336e5b3671fcdff070d,,,,,,,,,,,,,,,,,,,,,,No Brainslug No Barriers With Money,0,images/assets/snowy_money.jpg,learning,10,images/assets/success_money.jpg,images/assets/gameover.jpg,,,,,,,,,,,,,0,1,1,9,1,,,,,,,,,,,,,,,,,,,,,,,,,,,,,,,,
,,,,,,,,,,,,67e0977dda2e47eafce0f06a,001,3,2025-03-27_19h00.09.209,avatar_quest_3AFC_legacy,2022.1.3,Win32,46.72897196,67e0977dda2e47eafce0f06a,67e5c8c9bc10e40b86efc6fc,67e5d336e5b3671fcdff070d,,,,,,,,,,,,,,,,,,,,,,With Brainslug No Barriers No Money,0,images/assets/snowy_original.jpg,learning,10,images/assets/success.jpg,images/assets/gameover.jpg,,,,,,,,,,,,,0,2,2,5,1,,,,,,,,,,,,,,,,,,,,,,,,,,,,,,,,
,,,,,,,,,,,,67e0977dda2e47eafce0f06a,001,3,2025-03-27_19h00.09.209,avatar_quest_3AFC_legacy,2022.1.3,Win32,46.72897196,67e0977dda2e47eafce0f06a,67e5c8c9bc10e40b86efc6fc,67e5d336e5b3671fcdff070d,,,,,,,,,,,,,,,,,,,,,,With Brainslug No Barriers With Money,0,images/assets/snowy_money.jpg,learning,10,images/assets/success_money.jpg,images/assets/gameover.jpg,,,,,,,,,,,,,0,3,3,4,1,,,,,,,,,,,,,,,,,,,,,,,,,,,,,,,,
,,,,,,,,,,,,67e0977dda2e47eafce0f06a,001,3,2025-03-27_19h00.09.209,avatar_quest_3AFC_legacy,2022.1.3,Win32,46.72897196,67e0977dda2e47eafce0f06a,67e5c8c9bc10e40b86efc6fc,67e5d336e5b3671fcdff070d,,,,,,,,,,,,,,,,,,,,,,With Brainslug Difficult 2 No Money,12,images/assets/snowy_original.jpg,learning,20,images/assets/success.jpg,images/assets/gameover.jpg,,,,,,,,,,,,,0,4,4,3,1,,,,,,,,,,,,,,,,,,,,,,,,,,,,,,,,
,,,,,,,,,,,,67e0977dda2e47eafce0f06a,001,3,2025-03-27_19h00.09.209,avatar_quest_3AFC_legacy,2022.1.3,Win32,46.72897196,67e0977dda2e47eafce0f06a,67e5c8c9bc10e40b86efc6fc,67e5d336e5b3671fcdff070d,"[""left"",""right"",""right"",""left"",""right"",""right"",""right"",""right"",""right"",""left"",""right"",""right"",""right"",""right"",""left"",""left"",""left"",""left"",""left"",""right"",""right"",""right"",""left"",""left"",""right"",""right"",""right"",""right"",""left""]","[0.763800000190713,1.2124000000953856,1.6375000000000455,1.7238000001907494,2.1734000000953984,2.4347000000476555,2.6101000001430066,2.8048000001907667,2.9843000001907285,3.197999999999979,3.5816000001429984,3.8337000000476564,4.030499999999961,4.262900000095328,4.410600000143063,4.74810000014304,5.021499999999946,5.300300000190759,5.580500000000029,5.932400000095413,6.213400000095362,6.45580000019072,6.890700000047673,7.217800000190778,7.323900000095364,7.494300000190719,7.669200000047681,7.8722000000476555,8.132400000095345]",,calibration,With Brainslug Difficult 2 With Money,8,8.29825,8.2994,18,7,0,FALSE,na,na,na,na,,,,,,,,,,,,,,,,,,,,,,,,,,,,,,,,,,0,0,0,0,1,,,,,,,,,,,,,,,,,,,,,,,
,,,,,,,,,,,,67e0977dda2e47eafce0f06a,001,3,2025-03-27_19h00.09.209,avatar_quest_3AFC_legacy,2022.1.3,Win32,46.72897196,67e0977dda2e47eafce0f06a,67e5c8c9bc10e40b86efc6fc,67e5d336e5b3671fcdff070d,,,,,,,,,,,,,,,,,,,,,,With Brainslug Difficult 2 With Money,12,images/assets/snowy_money.jpg,learning,20,images/assets/success_money.jpg,images/assets/gameover.jpg,,,,,,,,,,,,,0,5,5,2,1,,,,,,,,,,,,,,,,,,,,,,,,,,,,,,,,
,,,,,,,,,,,,67e0977dda2e47eafce0f06a,001,3,2025-03-27_19h00.09.209,avatar_quest_3AFC_legacy,2022.1.3,Win32,46.72897196,67e0977dda2e47eafce0f06a,67e5c8c9bc10e40b86efc6fc,67e5d336e5b3671fcdff070d,,,,,,,,,,,,,,,,,,,,,,No Brainslug Difficult 1 No Money,6,images/assets/snowy_original.jpg,learning,20,images/assets/success.jpg,images/assets/gameover.jpg,,,,,,,,,,,,,0,6,6,6,1,,,,,,,,,,,,,,,,,,,,,,,,,,,,,,,,
,,,,,,,,,,,,67e0977dda2e47eafce0f06a,001,3,2025-03-27_19h00.09.209,avatar_quest_3AFC_legacy,2022.1.3,Win32,46.72897196,67e0977dda2e47eafce0f06a,67e5c8c9bc10e40b86efc6fc,67e5d336e5b3671fcdff070d,,,,,,,,,,,,,,,,,,,,,,No Brainslug No Barriers No Money,0,images/assets/snowy_original.jpg,learning,10,images/assets/success.jpg,images/assets/gameover.jpg,,,,,,,,,,,,,0,7,7,10,1,,,,,,,,,,,,,,,,,,,,,,,,,,,,,,,,
,,,,,,,,,,,,67e0977dda2e47eafce0f06a,001,3,2025-03-27_19h00.09.209,avatar_quest_3AFC_legacy,2022.1.3,Win32,46.72897196,67e0977dda2e47eafce0f06a,67e5c8c9bc10e40b86efc6fc,67e5d336e5b3671fcdff070d,,,,,,,,,,,,,,,,,,,,,,With Brainslug Difficult 1 No Money,6,images/assets/snowy_original.jpg,learning,20,images/assets/success.jpg,images/assets/gameover.jpg,,,,,,,,,,,,,0,8,8,1,1,,,,,,,,,,,,,,,,,,,,,,,,,,,,,,,,
,,,,,,,,,,,,67e0977dda2e47eafce0f06a,001,3,2025-03-27_19h00.09.209,avatar_quest_3AFC_legacy,2022.1.3,Win32,46.72897196,67e0977dda2e47eafce0f06a,67e5c8c9bc10e40b86efc6fc,67e5d336e5b3671fcdff070d,,,,,,,,,,,,,,,,,,,,,,No Brainslug Difficult 2 With Money,12,images/assets/snowy_money.jpg,learning,20,images/assets/success_money.jpg,images/assets/gameover.jpg,,,,,,,,,,,,,0,9,9,7,1,,,,,,,,,,,,,,,,,,,,,,,,,,,,,,,,
,,,,,,,,,,,,67e0977dda2e47eafce0f06a,001,3,2025-03-27_19h00.09.209,avatar_quest_3AFC_legacy,2022.1.3,Win32,46.72897196,67e0977dda2e47eafce0f06a,67e5c8c9bc10e40b86efc6fc,67e5d336e5b3671fcdff070d,,,,,,,,,,,,,,,,,,,,,,No Brainslug Difficult 2 No Money,12,images/assets/snowy_original.jpg,learning,20,images/assets/success.jpg,images/assets/gameover.jpg,,,,,,,,,,,,,0,10,10,8,1,,,,,,,,,,,,,,,,,,,,,,,,,,,,,,,,
,,,,,,,,,,,,67e0977dda2e47eafce0f06a,001,3,2025-03-27_19h00.09.209,avatar_quest_3AFC_legacy,2022.1.3,Win32,46.72897196,67e0977dda2e47eafce0f06a,67e5c8c9bc10e40b86efc6fc,67e5d336e5b3671fcdff070d,,,,,,,,,,,,,,,,,,,,,,,,,,,,,,,,,,,,,,,,,,,,,,,,,,,,,,,4,0,4,0,1,,,,,,,,,,,,,,,,,,
,,,,,,,,,,,,67e0977dda2e47eafce0f06a,001,3,2025-03-27_19h00.09.209,avatar_quest_3AFC_legacy,2022.1.3,Win32,46.72897196,67e0977dda2e47eafce0f06a,67e5c8c9bc10e40b86efc6fc,67e5d336e5b3671fcdff070d,,,,,,,,,,,,,,,,,,,,,,No Brainslug Difficult 2 With Money,12,images/assets/snowy_money.jpg,learning,20,images/assets/success_money.jpg,images/assets/gameover.jpg,,,,,,,,With Brainslug Difficult 2 With Money,With Brainslug Difficult 1 No Money,right,1.7419,"[""With Brainslug Difficult 1 No Money"",""With Brainslug Difficult 2 No Money""]",0,0,0,7,1,,,,,,,,,,,,,,,,,,,,,,,,,,,,,,,,
,,,,,,,,,,,,67e0977dda2e47eafce0f06a,001,3,2025-03-27_19h00.09.209,avatar_quest_3AFC_legacy,2022.1.3,Win32,46.72897196,67e0977dda2e47eafce0f06a,67e5c8c9bc10e40b86efc6fc,67e5d336e5b3671fcdff070d,,,,,,,,,,,,,,,,,,,,,,With Brainslug No Barriers No Money,0,images/assets/snowy_original.jpg,learning,10,images/assets/success.jpg,images/assets/gameover.jpg,,,,,,,,,,,,,0,1,1,5,1,,,,,,,,,,,,,,,,,,,,,,,,,,,,,,,,
,,,,,,,,,,,,67e0977dda2e47eafce0f06a,001,3,2025-03-27_19h00.09.209,avatar_quest_3AFC_legacy,2022.1.3,Win32,46.72897196,67e0977dda2e47eafce0f06a,67e5c8c9bc10e40b86efc6fc,67e5d336e5b3671fcdff070d,,,,,,,,,,,,,,,,,,,,,,With Brainslug No Barriers With Money,0,images/assets/snowy_money.jpg,learning,10,images/assets/success_money.jpg,images/assets/gameover.jpg,,,,,,,,,,,,,0,2,2,4,1,,,,,,,,,,,,,,,,,,,,,,,,,,,,,,,,
,,,,,,,,,,,,67e0977dda2e47eafce0f06a,001,3,2025-03-27_19h00.09.209,avatar_quest_3AFC_legacy,2022.1.3,Win32,46.72897196,67e0977dda2e47eafce0f06a,67e5c8c9bc10e40b86efc6fc,67e5d336e5b3671fcdff070d,,,,,,,,,,,,,,,,,,,,,,With Brainslug Difficult 1 No Money,6,images/assets/snowy_original.jpg,learning,20,images/assets/success.jpg,images/assets/gameover.jpg,,,,,,,,,,,,,0,3,3,1,1,,,,,,,,,,,,,,,,,,,,,,,,,,,,,,,,
,,,,,,,,,,,,67e0977dda2e47eafce0f06a,001,3,2025-03-27_19h00.09.209,avatar_quest_3AFC_legacy,2022.1.3,Win32,46.72897196,67e0977dda2e47eafce0f06a,67e5c8c9bc10e40b86efc6fc,67e5d336e5b3671fcdff070d,,,,,,,,,,,,,,,,,,,,,,No Brainslug Difficult 1 No Money,6,images/assets/snowy_original.jpg,learning,20,images/assets/success.jpg,images/assets/gameover.jpg,,,,,,,,,,,,,0,4,4,6,1,,,,,,,,,,,,,,,,,,,,,,,,,,,,,,,,
,,,,,,,,,,,,67e0977dda2e47eafce0f06a,001,3,2025-03-27_19h00.09.209,avatar_quest_3AFC_legacy,2022.1.3,Win32,46.72897196,67e0977dda2e47eafce0f06a,67e5c8c9bc10e40b86efc6fc,67e5d336e5b3671fcdff070d,,,,,,,,,,,,,,,,,,,,,,With Brainslug Difficult 2 No Money,12,images/assets/snowy_original.jpg,learning,20,images/assets/success.jpg,images/assets/gameover.jpg,,,,,,,,,,,,,0,5,5,3,1,,,,,,,,,,,,,,,,,,,,,,,,,,,,,,,,
,,,,,,,,,,,,67e0977dda2e47eafce0f06a,001,3,2025-03-27_19h00.09.209,avatar_quest_3AFC_legacy,2022.1.3,Win32,46.72897196,67e0977dda2e47eafce0f06a,67e5c8c9bc10e40b86efc6fc,67e5d336e5b3671fcdff070d,,,,,,,,,,,,,,,,,,,,,,With Brainslug Difficult 1 With Money,6,images/assets/snowy_money.jpg,learning,20,images/assets/success_money.jpg,images/assets/gameover.jpg,,,,,,,,,,,,,0,6,6,0,1,,,,,,,,,,,,,,,,,,,,,,,,,,,,,,,,
,,,,,,,,,,,,67e0977dda2e47eafce0f06a,001,3,2025-03-27_19h00.09.209,avatar_quest_3AFC_legacy,2022.1.3,Win32,46.72897196,67e0977dda2e47eafce0f06a,67e5c8c9bc10e40b86efc6fc,67e5d336e5b3671fcdff070d,,,,,,,,,,,,,,,,,,,,,,No Brainslug No Barriers No Money,0,images/assets/snowy_original.jpg,learning,10,images/assets/success.jpg,images/assets/gameover.jpg,,,,,,,,,,,,,0,7,7,10,1,,,,,,,,,,,,,,,,,,,,,,,,,,,,,,,,
,,,,,,,,,,,,67e0977dda2e47eafce0f06a,001,3,2025-03-27_19h00.09.209,avatar_quest_3AFC_legacy,2022.1.3,Win32,46.72897196,67e0977dda2e47eafce0f06a,67e5c8c9bc10e40b86efc6fc,67e5d336e5b3671fcdff070d,"[""left"",""right"",""left"",""right"",""left"",""left"",""left"",""right"",""right"",""right"",""right"",""right"",""right"",""right"",""right"",""right"",""right"",""right"",""left"",""right"",""right"",""right"",""right"",""left""]","[0.8897999999522881,2.0867000000475855,2.377799999952231,2.4837999999522253,2.748499999999922,3.028500000000008,3.3223999998568843,3.4723999998568615,3.7680999999046207,4.600299999952313,4.9803999998569,5.393700000047602,5.665799999952242,5.873899999856917,6.092099999904576,6.372599999904537,6.593700000047647,6.8075000000000045,6.981599999904574,7.232299999952261,7.407099999904631,7.6493999998568825,7.859899999856907,7.997899999856941]",,calibration,With Brainslug Difficult 2 With Money,9,8.29825,8.3216,9,3,0,FALSE,na,na,na,na,,,,,,,,,,,,,,,,,,,,,,,,,,,,,,,,,,0,0,0,0,1,,,,,,,,,,,,,,,,,,,,,,,
,,,,,,,,,,,,67e0977dda2e47eafce0f06a,001,3,2025-03-27_19h00.09.209,avatar_quest_3AFC_legacy,2022.1.3,Win32,46.72897196,67e0977dda2e47eafce0f06a,67e5c8c9bc10e40b86efc6fc,67e5d336e5b3671fcdff070d,,,,,,,,,,,,,,,,,,,,,,With Brainslug Difficult 2 With Money,12,images/assets/snowy_money.jpg,learning,20,images/assets/success_money.jpg,images/assets/gameover.jpg,,,,,,,,,,,,,0,8,8,2,1,,,,,,,,,,,,,,,,,,,,,,,,,,,,,,,,
,,,,,,,,,,,,67e0977dda2e47eafce0f06a,001,3,2025-03-27_19h00.09.209,avatar_quest_3AFC_legacy,2022.1.3,Win32,46.72897196,67e0977dda2e47eafce0f06a,67e5c8c9bc10e40b86efc6fc,67e5d336e5b3671fcdff070d,,,,,,,,,,,,,,,,,,,,,,No Brainslug No Barriers With Money,0,images/assets/snowy_money.jpg,learning,10,images/assets/success_money.jpg,images/assets/gameover.jpg,,,,,,,,,,,,,0,9,9,9,1,,,,,,,,,,,,,,,,,,,,,,,,,,,,,,,,
,,,,,,,,,,,,67e0977dda2e47eafce0f06a,001,3,2025-03-27_19h00.09.209,avatar_quest_3AFC_legacy,2022.1.3,Win32,46.72897196,67e0977dda2e47eafce0f06a,67e5c8c9bc10e40b86efc6fc,67e5d336e5b3671fcdff070d,,,,,,,,,,,,,,,,,,,,,,No Brainslug Difficult 2 No Money,12,images/assets/snowy_original.jpg,learning,20,images/assets/success.jpg,images/assets/gameover.jpg,,,,,,,,,,,,,0,10,10,8,1,,,,,,,,,,,,,,,,,,,,,,,,,,,,,,,,
,,,,,,,,,,,,67e0977dda2e47eafce0f06a,001,3,2025-03-27_19h00.09.209,avatar_quest_3AFC_legacy,2022.1.3,Win32,46.72897196,67e0977dda2e47eafce0f06a,67e5c8c9bc10e40b86efc6fc,67e5d336e5b3671fcdff070d,,,,,,,,,,,,,,,,,,,,,,,,,,,,,,,,,,,,,,,,,,,,,,,,,,,,,,,5,0,5,0,1,,,,,,,,,,,,,,,,,,
,,,,,,,,,,,,67e0977dda2e47eafce0f06a,001,3,2025-03-27_19h00.09.209,avatar_quest_3AFC_legacy,2022.1.3,Win32,46.72897196,67e0977dda2e47eafce0f06a,67e5c8c9bc10e40b86efc6fc,67e5d336e5b3671fcdff070d,,,,,,,,,,,,,,,,,,,,,,No Brainslug Difficult 1 No Money,6,images/assets/snowy_original.jpg,learning,20,images/assets/success.jpg,images/assets/gameover.jpg,,,,,,,,With Brainslug Difficult 2 With Money,With Brainslug Difficult 1 No Money,right,0.9683,"[""With Brainslug Difficult 1 No Money"",""With Brainslug Difficult 2 No Money""]",0,0,0,6,1,,,,,,,,,,,,,,,,,,,,,,,,,,,,,,,,
,,,,,,,,,,,,67e0977dda2e47eafce0f06a,001,3,2025-03-27_19h00.09.209,avatar_quest_3AFC_legacy,2022.1.3,Win32,46.72897196,67e0977dda2e47eafce0f06a,67e5c8c9bc10e40b86efc6fc,67e5d336e5b3671fcdff070d,,,,,,,,,,,,,,,,,,,,,,No Brainslug No Barriers With Money,0,images/assets/snowy_money.jpg,learning,10,images/assets/success_money.jpg,images/assets/gameover.jpg,,,,,,,,,,,,,0,1,1,9,1,,,,,,,,,,,,,,,,,,,,,,,,,,,,,,,,
,,,,,,,,,,,,67e0977dda2e47eafce0f06a,001,3,2025-03-27_19h00.09.209,avatar_quest_3AFC_legacy,2022.1.3,Win32,46.72897196,67e0977dda2e47eafce0f06a,67e5c8c9bc10e40b86efc6fc,67e5d336e5b3671fcdff070d,,,,,,,,,,,,,,,,,,,,,,With Brainslug Difficult 1 No Money,6,images/assets/snowy_original.jpg,learning,20,images/assets/success.jpg,images/assets/gameover.jpg,,,,,,,,,,,,,0,2,2,1,1,,,,,,,,,,,,,,,,,,,,,,,,,,,,,,,,
,,,,,,,,,,,,67e0977dda2e47eafce0f06a,001,3,2025-03-27_19h00.09.209,avatar_quest_3AFC_legacy,2022.1.3,Win32,46.72897196,67e0977dda2e47eafce0f06a,67e5c8c9bc10e40b86efc6fc,67e5d336e5b3671fcdff070d,,,,,,,,,,,,,,,,,,,,,,With Brainslug No Barriers No Money,0,images/assets/snowy_original.jpg,learning,10,images/assets/success.jpg,images/assets/gameover.jpg,,,,,,,,,,,,,0,3,3,5,1,,,,,,,,,,,,,,,,,,,,,,,,,,,,,,,,
,,,,,,,,,,,,67e0977dda2e47eafce0f06a,001,3,2025-03-27_19h00.09.209,avatar_quest_3AFC_legacy,2022.1.3,Win32,46.72897196,67e0977dda2e47eafce0f06a,67e5c8c9bc10e40b86efc6fc,67e5d336e5b3671fcdff070d,"[""left"",""right"",""right"",""right"",""left"",""right"",""right"",""right"",""right"",""left"",""left"",""left"",""right"",""right"",""right"",""left"",""left"",""right"",""right"",""right"",""right"",""left"",""right"",""right"",""right"",""right"",""left"",""left"",""left""]","[0.8343999998569416,1.1245999999046035,1.3734999999999218,1.5927999999522626,1.75520000004758,1.9532000000476728,2.195099999904528,2.3684999999999263,2.5454999999999472,2.6487000000475973,2.9267000000476173,3.4150999999045553,3.597499999999968,3.8438999998569443,4.016099999904554,4.33299999999997,4.640299999952276,5.094299999952227,5.36909999990462,5.614599999904613,5.837999999999965,6.239099999904624,6.6392999999523,6.814999999999941,6.993499999999926,7.217399999856866,7.498799999952212,7.771599999904538,7.978999999999928]",,calibration,With Brainslug Difficult 2 With Money,10,8.29825,8.3112,14,7,0,FALSE,na,na,na,na,,,,,,,,,,,,,,,,,,,,,,,,,,,,,,,,,,0,0,0,0,1,,,,,,,,,,,,,,,,,,,,,,,
,,,,,,,,,,,,67e0977dda2e47eafce0f06a,001,3,2025-03-27_19h00.09.209,avatar_quest_3AFC_legacy,2022.1.3,Win32,46.72897196,67e0977dda2e47eafce0f06a,67e5c8c9bc10e40b86efc6fc,67e5d336e5b3671fcdff070d,,,,,,,,,,,,,,,,,,,,,,With Brainslug Difficult 2 With Money,12,images/assets/snowy_money.jpg,learning,20,images/assets/success_money.jpg,images/assets/gameover.jpg,,,,,,,,,,,,,0,4,4,2,1,,,,,,,,,,,,,,,,,,,,,,,,,,,,,,,,
,,,,,,,,,,,,67e0977dda2e47eafce0f06a,001,3,2025-03-27_19h00.09.209,avatar_quest_3AFC_legacy,2022.1.3,Win32,46.72897196,67e0977dda2e47eafce0f06a,67e5c8c9bc10e40b86efc6fc,67e5d336e5b3671fcdff070d,,,,,,,,,,,,,,,,,,,,,,No Brainslug No Barriers No Money,0,images/assets/snowy_original.jpg,learning,10,images/assets/success.jpg,images/assets/gameover.jpg,,,,,,,,,,,,,0,5,5,10,1,,,,,,,,,,,,,,,,,,,,,,,,,,,,,,,,
,,,,,,,,,,,,67e0977dda2e47eafce0f06a,001,3,2025-03-27_19h00.09.209,avatar_quest_3AFC_legacy,2022.1.3,Win32,46.72897196,67e0977dda2e47eafce0f06a,67e5c8c9bc10e40b86efc6fc,67e5d336e5b3671fcdff070d,,,,,,,,,,,,,,,,,,,,,,With Brainslug Difficult 1 With Money,6,images/assets/snowy_money.jpg,learning,20,images/assets/success_money.jpg,images/assets/gameover.jpg,,,,,,,,,,,,,0,6,6,0,1,,,,,,,,,,,,,,,,,,,,,,,,,,,,,,,,
,,,,,,,,,,,,67e0977dda2e47eafce0f06a,001,3,2025-03-27_19h00.09.209,avatar_quest_3AFC_legacy,2022.1.3,Win32,46.72897196,67e0977dda2e47eafce0f06a,67e5c8c9bc10e40b86efc6fc,67e5d336e5b3671fcdff070d,,,,,,,,,,,,,,,,,,,,,,No Brainslug Difficult 2 No Money,12,images/assets/snowy_original.jpg,learning,20,images/assets/success.jpg,images/assets/gameover.jpg,,,,,,,,,,,,,0,7,7,8,1,,,,,,,,,,,,,,,,,,,,,,,,,,,,,,,,
,,,,,,,,,,,,67e0977dda2e47eafce0f06a,001,3,2025-03-27_19h00.09.209,avatar_quest_3AFC_legacy,2022.1.3,Win32,46.72897196,67e0977dda2e47eafce0f06a,67e5c8c9bc10e40b86efc6fc,67e5d336e5b3671fcdff070d,,,,,,,,,,,,,,,,,,,,,,With Brainslug Difficult 2 No Money,12,images/assets/snowy_original.jpg,learning,20,images/assets/success.jpg,images/assets/gameover.jpg,,,,,,,,,,,,,0,8,8,3,1,,,,,,,,,,,,,,,,,,,,,,,,,,,,,,,,
,,,,,,,,,,,,67e0977dda2e47eafce0f06a,001,3,2025-03-27_19h00.09.209,avatar_quest_3AFC_legacy,2022.1.3,Win32,46.72897196,67e0977dda2e47eafce0f06a,67e5c8c9bc10e40b86efc6fc,67e5d336e5b3671fcdff070d,,,,,,,,,,,,,,,,,,,,,,No Brainslug Difficult 2 With Money,12,images/assets/snowy_money.jpg,learning,20,images/assets/success_money.jpg,images/assets/gameover.jpg,,,,,,,,,,,,,0,9,9,7,1,,,,,,,,,,,,,,,,,,,,,,,,,,,,,,,,
,,,,,,,,,,,,67e0977dda2e47eafce0f06a,001,3,2025-03-27_19h00.09.209,avatar_quest_3AFC_legacy,2022.1.3,Win32,46.72897196,67e0977dda2e47eafce0f06a,67e5c8c9bc10e40b86efc6fc,67e5d336e5b3671fcdff070d,,,,,,,,,,,,,,,,,,,,,,With Brainslug No Barriers With Money,0,images/assets/snowy_money.jpg,learning,10,images/assets/success_money.jpg,images/assets/gameover.jpg,,,,,,,,,,,,,0,10,10,4,1,,,,,,,,,,,,,,,,,,,,,,,,,,,,,,,,
,,,,,,,,,,,,67e0977dda2e47eafce0f06a,001,3,2025-03-27_19h00.09.209,avatar_quest_3AFC_legacy,2022.1.3,Win32,46.72897196,67e0977dda2e47eafce0f06a,67e5c8c9bc10e40b86efc6fc,67e5d336e5b3671fcdff070d,,,,,,,,,,,,,,,,,,,,,,,,,,,,,,,,,,,,,,,,,,,,,,,,,,,,,,,6,0,6,0,1,,,,,,,,,,,,,,,,,,
,,,,,,,,,,,,67e0977dda2e47eafce0f06a,001,3,2025-03-27_19h00.09.209,avatar_quest_3AFC_legacy,2022.1.3,Win32,46.72897196,67e0977dda2e47eafce0f06a,67e5c8c9bc10e40b86efc6fc,67e5d336e5b3671fcdff070d,,,,,,,,,,,,,,,,,,,,,,No Brainslug Difficult 2 No Money,12,images/assets/snowy_original.jpg,learning,20,images/assets/success.jpg,images/assets/gameover.jpg,,,,,,,,With Brainslug Difficult 1 No Money,With Brainslug Difficult 1 No Money,left,1.1701,"[""With Brainslug Difficult 2 No Money"",""With Brainslug Difficult 2 With Money""]",0,0,0,8,1,,,,,,,,,,,,,,,,,,,,,,,,,,,,,,,,
,,,,,,,,,,,,67e0977dda2e47eafce0f06a,001,3,2025-03-27_19h00.09.209,avatar_quest_3AFC_legacy,2022.1.3,Win32,46.72897196,67e0977dda2e47eafce0f06a,67e5c8c9bc10e40b86efc6fc,67e5d336e5b3671fcdff070d,,,,,,,,,,,,,,,,,,,,,,With Brainslug Difficult 2 No Money,12,images/assets/snowy_original.jpg,learning,20,images/assets/success.jpg,images/assets/gameover.jpg,,,,,,,,,,,,,0,1,1,3,1,,,,,,,,,,,,,,,,,,,,,,,,,,,,,,,,
,,,,,,,,,,,,67e0977dda2e47eafce0f06a,001,3,2025-03-27_19h00.09.209,avatar_quest_3AFC_legacy,2022.1.3,Win32,46.72897196,67e0977dda2e47eafce0f06a,67e5c8c9bc10e40b86efc6fc,67e5d336e5b3671fcdff070d,,,,,,,,,,,,,,,,,,,,,,No Brainslug No Barriers No Money,0,images/assets/snowy_original.jpg,learning,10,images/assets/success.jpg,images/assets/gameover.jpg,,,,,,,,,,,,,0,2,2,10,1,,,,,,,,,,,,,,,,,,,,,,,,,,,,,,,,
,,,,,,,,,,,,67e0977dda2e47eafce0f06a,001,3,2025-03-27_19h00.09.209,avatar_quest_3AFC_legacy,2022.1.3,Win32,46.72897196,67e0977dda2e47eafce0f06a,67e5c8c9bc10e40b86efc6fc,67e5d336e5b3671fcdff070d,,,,,,,,,,,,,,,,,,,,,,With Brainslug Difficult 2 With Money,12,images/assets/snowy_money.jpg,learning,20,images/assets/success_money.jpg,images/assets/gameover.jpg,,,,,,,,,,,,,0,3,3,2,1,,,,,,,,,,,,,,,,,,,,,,,,,,,,,,,,
,,,,,,,,,,,,67e0977dda2e47eafce0f06a,001,3,2025-03-27_19h00.09.209,avatar_quest_3AFC_legacy,2022.1.3,Win32,46.72897196,67e0977dda2e47eafce0f06a,67e5c8c9bc10e40b86efc6fc,67e5d336e5b3671fcdff070d,,,,,,,,,,,,,,,,,,,,,,With Brainslug No Barriers No Money,0,images/assets/snowy_original.jpg,learning,10,images/assets/success.jpg,images/assets/gameover.jpg,,,,,,,,,,,,,0,4,4,5,1,,,,,,,,,,,,,,,,,,,,,,,,,,,,,,,,
,,,,,,,,,,,,67e0977dda2e47eafce0f06a,001,3,2025-03-27_19h00.09.209,avatar_quest_3AFC_legacy,2022.1.3,Win32,46.72897196,67e0977dda2e47eafce0f06a,67e5c8c9bc10e40b86efc6fc,67e5d336e5b3671fcdff070d,,,,,,,,,,,,,,,,,,,,,,No Brainslug No Barriers With Money,0,images/assets/snowy_money.jpg,learning,10,images/assets/success_money.jpg,images/assets/gameover.jpg,,,,,,,,,,,,,0,5,5,9,1,,,,,,,,,,,,,,,,,,,,,,,,,,,,,,,,
,,,,,,,,,,,,67e0977dda2e47eafce0f06a,001,3,2025-03-27_19h00.09.209,avatar_quest_3AFC_legacy,2022.1.3,Win32,46.72897196,67e0977dda2e47eafce0f06a,67e5c8c9bc10e40b86efc6fc,67e5d336e5b3671fcdff070d,,,,,,,,,,,,,,,,,,,,,,With Brainslug No Barriers With Money,0,images/assets/snowy_money.jpg,learning,10,images/assets/success_money.jpg,images/assets/gameover.jpg,,,,,,,,,,,,,0,6,6,4,1,,,,,,,,,,,,,,,,,,,,,,,,,,,,,,,,
,,,,,,,,,,,,67e0977dda2e47eafce0f06a,001,3,2025-03-27_19h00.09.209,avatar_quest_3AFC_legacy,2022.1.3,Win32,46.72897196,67e0977dda2e47eafce0f06a,67e5c8c9bc10e40b86efc6fc,67e5d336e5b3671fcdff070d,,,,,,,,,,,,,,,,,,,,,,With Brainslug Difficult 1 With Money,6,images/assets/snowy_money.jpg,learning,20,images/assets/success_money.jpg,images/assets/gameover.jpg,,,,,,,,,,,,,0,7,7,0,1,,,,,,,,,,,,,,,,,,,,,,,,,,,,,,,,
,,,,,,,,,,,,67e0977dda2e47eafce0f06a,001,3,2025-03-27_19h00.09.209,avatar_quest_3AFC_legacy,2022.1.3,Win32,46.72897196,67e0977dda2e47eafce0f06a,67e5c8c9bc10e40b86efc6fc,67e5d336e5b3671fcdff070d,,,,,,,,,,,,,,,,,,,,,,No Brainslug Difficult 2 With Money,12,images/assets/snowy_money.jpg,learning,20,images/assets/success_money.jpg,images/assets/gameover.jpg,,,,,,,,,,,,,0,8,8,7,1,,,,,,,,,,,,,,,,,,,,,,,,,,,,,,,,
,,,,,,,,,,,,67e0977dda2e47eafce0f06a,001,3,2025-03-27_19h00.09.209,avatar_quest_3AFC_legacy,2022.1.3,Win32,46.72897196,67e0977dda2e47eafce0f06a,67e5c8c9bc10e40b86efc6fc,67e5d336e5b3671fcdff070d,"[""left"",""right"",""right"",""right"",""right"",""right"",""left"",""left"",""left"",""left"",""left"",""left"",""left"",""right"",""right"",""right"",""left""]","[0.5718999998570098,1.0207999999523736,1.694899999857057,2.38900000000001,3.0127000000477437,3.5585999999046862,3.9938999998570353,4.379799999952411,4.863399999857052,5.255799999952387,6.002000000000066,6.381200000047784,6.684099999904674,6.976599999904693,7.284700000047792,7.54200000000003,7.95309999990468]",,calibration,With Brainslug Difficult 1 No Money,11,8.29825,8.3218,8,3,0,FALSE,na,na,na,na,,,,,,,,,,,,,,,,,,,,,,,,,,,,,,,,,,0,0,0,0,1,,,,,,,,,,,,,,,,,,,,,,,
,,,,,,,,,,,,67e0977dda2e47eafce0f06a,001,3,2025-03-27_19h00.09.209,avatar_quest_3AFC_legacy,2022.1.3,Win32,46.72897196,67e0977dda2e47eafce0f06a,67e5c8c9bc10e40b86efc6fc,67e5d336e5b3671fcdff070d,,,,,,,,,,,,,,,,,,,,,,With Brainslug Difficult 1 No Money,6,images/assets/snowy_original.jpg,learning,20,images/assets/success.jpg,images/assets/gameover.jpg,,,,,,,,,,,,,0,9,9,1,1,,,,,,,,,,,,,,,,,,,,,,,,,,,,,,,,
,,,,,,,,,,,,67e0977dda2e47eafce0f06a,001,3,2025-03-27_19h00.09.209,avatar_quest_3AFC_legacy,2022.1.3,Win32,46.72897196,67e0977dda2e47eafce0f06a,67e5c8c9bc10e40b86efc6fc,67e5d336e5b3671fcdff070d,,,,,,,,,,,,,,,,,,,,,,No Brainslug Difficult 1 No Money,6,images/assets/snowy_original.jpg,learning,20,images/assets/success.jpg,images/assets/gameover.jpg,,,,,,,,,,,,,0,10,10,6,1,,,,,,,,,,,,,,,,,,,,,,,,,,,,,,,,
,,,,,,,,,,,,67e0977dda2e47eafce0f06a,001,3,2025-03-27_19h00.09.209,avatar_quest_3AFC_legacy,2022.1.3,Win32,46.72897196,67e0977dda2e47eafce0f06a,67e5c8c9bc10e40b86efc6fc,67e5d336e5b3671fcdff070d,,,,,,,,,,,,,,,,,,,,,,,,,,,,,,,,,,,,,,,,,,,,,,,,,,,,,,,7,0,7,0,1,,,,,,,,,,,,,,,,,,
,,,,,,,,,,,,67e0977dda2e47eafce0f06a,001,3,2025-03-27_19h00.09.209,avatar_quest_3AFC_legacy,2022.1.3,Win32,46.72897196,67e0977dda2e47eafce0f06a,67e5c8c9bc10e40b86efc6fc,67e5d336e5b3671fcdff070d,,,,,,,,,,,,,,,,,,,,,,No Brainslug Difficult 1 No Money,6,images/assets/snowy_original.jpg,learning,20,images/assets/success.jpg,images/assets/gameover.jpg,,,,,,,,With Brainslug Difficult 1 No Money,With Brainslug Difficult 1 No Money,left,2.4673,"[""With Brainslug Difficult 2 No Money"",""With Brainslug Difficult 2 With Money""]",0,0,0,6,1,,,,,,,,,,,,,,,,,,,,,,,,,,,,,,,,
,,,,,,,,,,,,67e0977dda2e47eafce0f06a,001,3,2025-03-27_19h00.09.209,avatar_quest_3AFC_legacy,2022.1.3,Win32,46.72897196,67e0977dda2e47eafce0f06a,67e5c8c9bc10e40b86efc6fc,67e5d336e5b3671fcdff070d,,,,,,,,,,,,,,,,,,,,,,With Brainslug No Barriers With Money,0,images/assets/snowy_money.jpg,learning,10,images/assets/success_money.jpg,images/assets/gameover.jpg,,,,,,,,,,,,,0,1,1,4,1,,,,,,,,,,,,,,,,,,,,,,,,,,,,,,,,
,,,,,,,,,,,,67e0977dda2e47eafce0f06a,001,3,2025-03-27_19h00.09.209,avatar_quest_3AFC_legacy,2022.1.3,Win32,46.72897196,67e0977dda2e47eafce0f06a,67e5c8c9bc10e40b86efc6fc,67e5d336e5b3671fcdff070d,,,,,,,,,,,,,,,,,,,,,,With Brainslug Difficult 2 With Money,12,images/assets/snowy_money.jpg,learning,20,images/assets/success_money.jpg,images/assets/gameover.jpg,,,,,,,,,,,,,0,2,2,2,1,,,,,,,,,,,,,,,,,,,,,,,,,,,,,,,,
,,,,,,,,,,,,67e0977dda2e47eafce0f06a,001,3,2025-03-27_19h00.09.209,avatar_quest_3AFC_legacy,2022.1.3,Win32,46.72897196,67e0977dda2e47eafce0f06a,67e5c8c9bc10e40b86efc6fc,67e5d336e5b3671fcdff070d,,,,,,,,,,,,,,,,,,,,,,With Brainslug Difficult 2 No Money,12,images/assets/snowy_original.jpg,learning,20,images/assets/success.jpg,images/assets/gameover.jpg,,,,,,,,,,,,,0,3,3,3,1,,,,,,,,,,,,,,,,,,,,,,,,,,,,,,,,
,,,,,,,,,,,,67e0977dda2e47eafce0f06a,001,3,2025-03-27_19h00.09.209,avatar_quest_3AFC_legacy,2022.1.3,Win32,46.72897196,67e0977dda2e47eafce0f06a,67e5c8c9bc10e40b86efc6fc,67e5d336e5b3671fcdff070d,,,,,,,,,,,,,,,,,,,,,,No Brainslug Difficult 2 No Money,12,images/assets/snowy_original.jpg,learning,20,images/assets/success.jpg,images/assets/gameover.jpg,,,,,,,,,,,,,0,4,4,8,1,,,,,,,,,,,,,,,,,,,,,,,,,,,,,,,,
,,,,,,,,,,,,67e0977dda2e47eafce0f06a,001,3,2025-03-27_19h00.09.209,avatar_quest_3AFC_legacy,2022.1.3,Win32,46.72897196,67e0977dda2e47eafce0f06a,67e5c8c9bc10e40b86efc6fc,67e5d336e5b3671fcdff070d,,,,,,,,,,,,,,,,,,,,,,No Brainslug No Barriers With Money,0,images/assets/snowy_money.jpg,learning,10,images/assets/success_money.jpg,images/assets/gameover.jpg,,,,,,,,,,,,,0,5,5,9,1,,,,,,,,,,,,,,,,,,,,,,,,,,,,,,,,
,,,,,,,,,,,,67e0977dda2e47eafce0f06a,001,3,2025-03-27_19h00.09.209,avatar_quest_3AFC_legacy,2022.1.3,Win32,46.72897196,67e0977dda2e47eafce0f06a,67e5c8c9bc10e40b86efc6fc,67e5d336e5b3671fcdff070d,,,,,,,,,,,,,,,,,,,,,,No Brainslug Difficult 2 With Money,12,images/assets/snowy_money.jpg,learning,20,images/assets/success_money.jpg,images/assets/gameover.jpg,,,,,,,,,,,,,0,6,6,7,1,,,,,,,,,,,,,,,,,,,,,,,,,,,,,,,,
,,,,,,,,,,,,67e0977dda2e47eafce0f06a,001,3,2025-03-27_19h00.09.209,avatar_quest_3AFC_legacy,2022.1.3,Win32,46.72897196,67e0977dda2e47eafce0f06a,67e5c8c9bc10e40b86efc6fc,67e5d336e5b3671fcdff070d,,,,,,,,,,,,,,,,,,,,,,With Brainslug Difficult 1 With Money,6,images/assets/snowy_money.jpg,learning,20,images/assets/success_money.jpg,images/assets/gameover.jpg,,,,,,,,,,,,,0,7,7,0,1,,,,,,,,,,,,,,,,,,,,,,,,,,,,,,,,
,,,,,,,,,,,,67e0977dda2e47eafce0f06a,001,3,2025-03-27_19h00.09.209,avatar_quest_3AFC_legacy,2022.1.3,Win32,46.72897196,67e0977dda2e47eafce0f06a,67e5c8c9bc10e40b86efc6fc,67e5d336e5b3671fcdff070d,"[""left"",""right"",""right"",""right"",""right"",""right"",""left"",""right"",""right"",""right"",""right"",""left"",""left"",""right"",""right"",""right"",""right""]","[0.7297999999523199,1.4109999999999445,2.2421999998092588,3.034199999809175,3.5771999998091815,3.9647999999523336,4.351199999809182,4.8516999998091705,5.127099999904544,5.357599999904551,5.62589999985687,6.292099999904622,6.6350999999045825,7.07709999990459,7.420599999904539,7.757599999904642,8.100199999809206]",,calibration,With Brainslug Difficult 1 No Money,12,8.29825,8.304,10,3,0,FALSE,na,na,na,na,,,,,,,,,,,,,,,,,,,,,,,,,,,,,,,,,,0,0,0,0,1,,,,,,,,,,,,,,,,,,,,,,,
,,,,,,,,,,,,67e0977dda2e47eafce0f06a,001,3,2025-03-27_19h00.09.209,avatar_quest_3AFC_legacy,2022.1.3,Win32,46.72897196,67e0977dda2e47eafce0f06a,67e5c8c9bc10e40b86efc6fc,67e5d336e5b3671fcdff070d,,,,,,,,,,,,,,,,,,,,,,With Brainslug Difficult 1 No Money,6,images/assets/snowy_original.jpg,learning,20,images/assets/success.jpg,images/assets/gameover.jpg,,,,,,,,,,,,,0,8,8,1,1,,,,,,,,,,,,,,,,,,,,,,,,,,,,,,,,
,,,,,,,,,,,,67e0977dda2e47eafce0f06a,001,3,2025-03-27_19h00.09.209,avatar_quest_3AFC_legacy,2022.1.3,Win32,46.72897196,67e0977dda2e47eafce0f06a,67e5c8c9bc10e40b86efc6fc,67e5d336e5b3671fcdff070d,,,,,,,,,,,,,,,,,,,,,,With Brainslug No Barriers No Money,0,images/assets/snowy_original.jpg,learning,10,images/assets/success.jpg,images/assets/gameover.jpg,,,,,,,,,,,,,0,9,9,5,1,,,,,,,,,,,,,,,,,,,,,,,,,,,,,,,,
,,,,,,,,,,,,67e0977dda2e47eafce0f06a,001,3,2025-03-27_19h00.09.209,avatar_quest_3AFC_legacy,2022.1.3,Win32,46.72897196,67e0977dda2e47eafce0f06a,67e5c8c9bc10e40b86efc6fc,67e5d336e5b3671fcdff070d,,,,,,,,,,,,,,,,,,,,,,No Brainslug No Barriers No Money,0,images/assets/snowy_original.jpg,learning,10,images/assets/success.jpg,images/assets/gameover.jpg,,,,,,,,,,,,,0,10,10,10,1,,,,,,,,,,,,,,,,,,,,,,,,,,,,,,,,
,,,,,,,,,,,,67e0977dda2e47eafce0f06a,001,3,2025-03-27_19h00.09.209,avatar_quest_3AFC_legacy,2022.1.3,Win32,46.72897196,67e0977dda2e47eafce0f06a,67e5c8c9bc10e40b86efc6fc,67e5d336e5b3671fcdff070d,,,,,,,,,,,,,,,,,,,,,,,,,,,,,,,,,,,,,,,,,,,,,,,,,,,,,,,8,0,8,0,1,,,,,,,,,,,,,,,,,,
,,,,,,,,,,,,67e0977dda2e47eafce0f06a,001,3,2025-03-27_19h00.09.209,avatar_quest_3AFC_legacy,2022.1.3,Win32,46.72897196,67e0977dda2e47eafce0f06a,67e5c8c9bc10e40b86efc6fc,67e5d336e5b3671fcdff070d,,,,,,,,,,,,,,,,,,,,,,No Brainslug No Barriers With Money,0,images/assets/snowy_money.jpg,learning,10,images/assets/success_money.jpg,images/assets/gameover.jpg,,,,,,,,With Brainslug Difficult 2 With Money,With Brainslug Difficult 1 No Money,right,0.1818,"[""With Brainslug Difficult 1 No Money"",""With Brainslug Difficult 2 No Money""]",0,0,0,9,1,,,,,,,,,,,,,,,,,,,,,,,,,,,,,,,,
,,,,,,,,,,,,67e0977dda2e47eafce0f06a,001,3,2025-03-27_19h00.09.209,avatar_quest_3AFC_legacy,2022.1.3,Win32,46.72897196,67e0977dda2e47eafce0f06a,67e5c8c9bc10e40b86efc6fc,67e5d336e5b3671fcdff070d,,,,,,,,,,,,,,,,,,,,,,No Brainslug No Barriers No Money,0,images/assets/snowy_original.jpg,learning,10,images/assets/success.jpg,images/assets/gameover.jpg,,,,,,,,,,,,,0,1,1,10,1,,,,,,,,,,,,,,,,,,,,,,,,,,,,,,,,
,,,,,,,,,,,,67e0977dda2e47eafce0f06a,001,3,2025-03-27_19h00.09.209,avatar_quest_3AFC_legacy,2022.1.3,Win32,46.72897196,67e0977dda2e47eafce0f06a,67e5c8c9bc10e40b86efc6fc,67e5d336e5b3671fcdff070d,,,,,,,,,,,,,,,,,,,,,,No Brainslug Difficult 1 No Money,6,images/assets/snowy_original.jpg,learning,20,images/assets/success.jpg,images/assets/gameover.jpg,,,,,,,,,,,,,0,2,2,6,1,,,,,,,,,,,,,,,,,,,,,,,,,,,,,,,,
,,,,,,,,,,,,67e0977dda2e47eafce0f06a,001,3,2025-03-27_19h00.09.209,avatar_quest_3AFC_legacy,2022.1.3,Win32,46.72897196,67e0977dda2e47eafce0f06a,67e5c8c9bc10e40b86efc6fc,67e5d336e5b3671fcdff070d,,,,,,,,,,,,,,,,,,,,,,With Brainslug No Barriers With Money,0,images/assets/snowy_money.jpg,learning,10,images/assets/success_money.jpg,images/assets/gameover.jpg,,,,,,,,,,,,,0,3,3,4,1,,,,,,,,,,,,,,,,,,,,,,,,,,,,,,,,
,,,,,,,,,,,,67e0977dda2e47eafce0f06a,001,3,2025-03-27_19h00.09.209,avatar_quest_3AFC_legacy,2022.1.3,Win32,46.72897196,67e0977dda2e47eafce0f06a,67e5c8c9bc10e40b86efc6fc,67e5d336e5b3671fcdff070d,,,,,,,,,,,,,,,,,,,,,,With Brainslug Difficult 1 No Money,6,images/assets/snowy_original.jpg,learning,20,images/assets/success.jpg,images/assets/gameover.jpg,,,,,,,,,,,,,0,4,4,1,1,,,,,,,,,,,,,,,,,,,,,,,,,,,,,,,,
,,,,,,,,,,,,67e0977dda2e47eafce0f06a,001,3,2025-03-27_19h00.09.209,avatar_quest_3AFC_legacy,2022.1.3,Win32,46.72897196,67e0977dda2e47eafce0f06a,67e5c8c9bc10e40b86efc6fc,67e5d336e5b3671fcdff070d,,,,,,,,,,,,,,,,,,,,,,With Brainslug No Barriers No Money,0,images/assets/snowy_original.jpg,learning,10,images/assets/success.jpg,images/assets/gameover.jpg,,,,,,,,,,,,,0,5,5,5,1,,,,,,,,,,,,,,,,,,,,,,,,,,,,,,,,
,,,,,,,,,,,,67e0977dda2e47eafce0f06a,001,3,2025-03-27_19h00.09.209,avatar_quest_3AFC_legacy,2022.1.3,Win32,46.72897196,67e0977dda2e47eafce0f06a,67e5c8c9bc10e40b86efc6fc,67e5d336e5b3671fcdff070d,"[""right"",""right"",""left"",""left"",""right"",""right"",""left"",""left"",""right"",""right"",""right"",""right"",""right"",""right"",""right"",""right"",""left""]","[0.6587000000477019,1.2597999999522926,1.7994000000953747,2.1989999999999554,2.7294000000953247,3.0934000000953574,3.3317999999522954,3.8179000000952783,4.334799999952224,4.855600000142999,5.3819000000953565,5.768799999952307,6.077799999952276,6.389200000047595,6.809900000095354,7.410299999952258,7.891299999952253]",,calibration,With Brainslug Difficult 2 With Money,13,8.29825,8.3195,6,3,0,FALSE,na,na,na,na,,,,,,,,,,,,,,,,,,,,,,,,,,,,,,,,,,0,0,0,0,1,,,,,,,,,,,,,,,,,,,,,,,
,,,,,,,,,,,,67e0977dda2e47eafce0f06a,001,3,2025-03-27_19h00.09.209,avatar_quest_3AFC_legacy,2022.1.3,Win32,46.72897196,67e0977dda2e47eafce0f06a,67e5c8c9bc10e40b86efc6fc,67e5d336e5b3671fcdff070d,,,,,,,,,,,,,,,,,,,,,,With Brainslug Difficult 2 With Money,12,images/assets/snowy_money.jpg,learning,20,images/assets/success_money.jpg,images/assets/gameover.jpg,,,,,,,,,,,,,0,6,6,2,1,,,,,,,,,,,,,,,,,,,,,,,,,,,,,,,,
,,,,,,,,,,,,67e0977dda2e47eafce0f06a,001,3,2025-03-27_19h00.09.209,avatar_quest_3AFC_legacy,2022.1.3,Win32,46.72897196,67e0977dda2e47eafce0f06a,67e5c8c9bc10e40b86efc6fc,67e5d336e5b3671fcdff070d,,,,,,,,,,,,,,,,,,,,,,With Brainslug Difficult 2 No Money,12,images/assets/snowy_original.jpg,learning,20,images/assets/success.jpg,images/assets/gameover.jpg,,,,,,,,,,,,,0,7,7,3,1,,,,,,,,,,,,,,,,,,,,,,,,,,,,,,,,
,,,,,,,,,,,,67e0977dda2e47eafce0f06a,001,3,2025-03-27_19h00.09.209,avatar_quest_3AFC_legacy,2022.1.3,Win32,46.72897196,67e0977dda2e47eafce0f06a,67e5c8c9bc10e40b86efc6fc,67e5d336e5b3671fcdff070d,,,,,,,,,,,,,,,,,,,,,,With Brainslug Difficult 1 With Money,6,images/assets/snowy_money.jpg,learning,20,images/assets/success_money.jpg,images/assets/gameover.jpg,,,,,,,,,,,,,0,8,8,0,1,,,,,,,,,,,,,,,,,,,,,,,,,,,,,,,,
,,,,,,,,,,,,67e0977dda2e47eafce0f06a,001,3,2025-03-27_19h00.09.209,avatar_quest_3AFC_legacy,2022.1.3,Win32,46.72897196,67e0977dda2e47eafce0f06a,67e5c8c9bc10e40b86efc6fc,67e5d336e5b3671fcdff070d,,,,,,,,,,,,,,,,,,,,,,No Brainslug Difficult 2 No Money,12,images/assets/snowy_original.jpg,learning,20,images/assets/success.jpg,images/assets/gameover.jpg,,,,,,,,,,,,,0,9,9,8,1,,,,,,,,,,,,,,,,,,,,,,,,,,,,,,,,
,,,,,,,,,,,,67e0977dda2e47eafce0f06a,001,3,2025-03-27_19h00.09.209,avatar_quest_3AFC_legacy,2022.1.3,Win32,46.72897196,67e0977dda2e47eafce0f06a,67e5c8c9bc10e40b86efc6fc,67e5d336e5b3671fcdff070d,,,,,,,,,,,,,,,,,,,,,,No Brainslug Difficult 2 With Money,12,images/assets/snowy_money.jpg,learning,20,images/assets/success_money.jpg,images/assets/gameover.jpg,,,,,,,,,,,,,0,10,10,7,1,,,,,,,,,,,,,,,,,,,,,,,,,,,,,,,,
,,,,,,,,,,,,67e0977dda2e47eafce0f06a,001,3,2025-03-27_19h00.09.209,avatar_quest_3AFC_legacy,2022.1.3,Win32,46.72897196,67e0977dda2e47eafce0f06a,67e5c8c9bc10e40b86efc6fc,67e5d336e5b3671fcdff070d,,,,,,,,,,,,,,,,,,,,,,,,,,,,,,,,,,,,,,,,,,,,,,,,,,,,,,,9,0,9,0,1,,,,,,,,,,,,,,,,,,
,,,,,,,,,,,,67e0977dda2e47eafce0f06a,001,3,2025-03-27_19h00.09.209,avatar_quest_3AFC_legacy,2022.1.3,Win32,46.72897196,67e0977dda2e47eafce0f06a,67e5c8c9bc10e40b86efc6fc,67e5d336e5b3671fcdff070d,,,,,,,,,,,,,,,,,,,,,,No Brainslug Difficult 2 With Money,12,images/assets/snowy_money.jpg,learning,20,images/assets/success_money.jpg,images/assets/gameover.jpg,,,,,,,,With Brainslug Difficult 2 No Money,With Brainslug Difficult 1 No Money,down,1.2959,"[""With Brainslug Difficult 1 No Money"",""With Brainslug Difficult 2 With Money""]",0,0,0,7,1,,,,,,,,,,,,,,,,,,,,,,,,,,,,,,,,
,,,,,,,,,,,,67e0977dda2e47eafce0f06a,001,3,2025-03-27_19h00.09.209,avatar_quest_3AFC_legacy,2022.1.3,Win32,46.72897196,67e0977dda2e47eafce0f06a,67e5c8c9bc10e40b86efc6fc,67e5d336e5b3671fcdff070d,,,,,,,,,,,,,,,,,,,,,,No Brainslug Difficult 2 No Money,12,images/assets/snowy_original.jpg,learning,20,images/assets/success.jpg,images/assets/gameover.jpg,,,,,,,,,,,,,0,1,1,8,1,,,,,,,,,,,,,,,,,,,,,,,,,,,,,,,,
,,,,,,,,,,,,67e0977dda2e47eafce0f06a,001,3,2025-03-27_19h00.09.209,avatar_quest_3AFC_legacy,2022.1.3,Win32,46.72897196,67e0977dda2e47eafce0f06a,67e5c8c9bc10e40b86efc6fc,67e5d336e5b3671fcdff070d,,,,,,,,,,,,,,,,,,,,,,With Brainslug No Barriers No Money,0,images/assets/snowy_original.jpg,learning,10,images/assets/success.jpg,images/assets/gameover.jpg,,,,,,,,,,,,,0,2,2,5,1,,,,,,,,,,,,,,,,,,,,,,,,,,,,,,,,
,,,,,,,,,,,,67e0977dda2e47eafce0f06a,001,3,2025-03-27_19h00.09.209,avatar_quest_3AFC_legacy,2022.1.3,Win32,46.72897196,67e0977dda2e47eafce0f06a,67e5c8c9bc10e40b86efc6fc,67e5d336e5b3671fcdff070d,,,,,,,,,,,,,,,,,,,,,,No Brainslug No Barriers No Money,0,images/assets/snowy_original.jpg,learning,10,images/assets/success.jpg,images/assets/gameover.jpg,,,,,,,,,,,,,0,3,3,10,1,,,,,,,,,,,,,,,,,,,,,,,,,,,,,,,,
,,,,,,,,,,,,67e0977dda2e47eafce0f06a,001,3,2025-03-27_19h00.09.209,avatar_quest_3AFC_legacy,2022.1.3,Win32,46.72897196,67e0977dda2e47eafce0f06a,67e5c8c9bc10e40b86efc6fc,67e5d336e5b3671fcdff070d,,,,,,,,,,,,,,,,,,,,,,No Brainslug Difficult 1 No Money,6,images/assets/snowy_original.jpg,learning,20,images/assets/success.jpg,images/assets/gameover.jpg,,,,,,,,,,,,,0,4,4,6,1,,,,,,,,,,,,,,,,,,,,,,,,,,,,,,,,
,,,,,,,,,,,,67e0977dda2e47eafce0f06a,001,3,2025-03-27_19h00.09.209,avatar_quest_3AFC_legacy,2022.1.3,Win32,46.72897196,67e0977dda2e47eafce0f06a,67e5c8c9bc10e40b86efc6fc,67e5d336e5b3671fcdff070d,,,,,,,,,,,,,,,,,,,,,,With Brainslug No Barriers With Money,0,images/assets/snowy_money.jpg,learning,10,images/assets/success_money.jpg,images/assets/gameover.jpg,,,,,,,,,,,,,0,5,5,4,1,,,,,,,,,,,,,,,,,,,,,,,,,,,,,,,,
,,,,,,,,,,,,67e0977dda2e47eafce0f06a,001,3,2025-03-27_19h00.09.209,avatar_quest_3AFC_legacy,2022.1.3,Win32,46.72897196,67e0977dda2e47eafce0f06a,67e5c8c9bc10e40b86efc6fc,67e5d336e5b3671fcdff070d,,,,,,,,,,,,,,,,,,,,,,With Brainslug Difficult 1 No Money,6,images/assets/snowy_original.jpg,learning,20,images/assets/success.jpg,images/assets/gameover.jpg,,,,,,,,,,,,,0,6,6,1,1,,,,,,,,,,,,,,,,,,,,,,,,,,,,,,,,
,,,,,,,,,,,,67e0977dda2e47eafce0f06a,001,3,2025-03-27_19h00.09.209,avatar_quest_3AFC_legacy,2022.1.3,Win32,46.72897196,67e0977dda2e47eafce0f06a,67e5c8c9bc10e40b86efc6fc,67e5d336e5b3671fcdff070d,,,,,,,,,,,,,,,,,,,,,,With Brainslug Difficult 2 With Money,12,images/assets/snowy_money.jpg,learning,20,images/assets/success_money.jpg,images/assets/gameover.jpg,,,,,,,,,,,,,0,7,7,2,1,,,,,,,,,,,,,,,,,,,,,,,,,,,,,,,,
,,,,,,,,,,,,67e0977dda2e47eafce0f06a,001,3,2025-03-27_19h00.09.209,avatar_quest_3AFC_legacy,2022.1.3,Win32,46.72897196,67e0977dda2e47eafce0f06a,67e5c8c9bc10e40b86efc6fc,67e5d336e5b3671fcdff070d,,,,,,,,,,,,,,,,,,,,,,With Brainslug Difficult 1 With Money,6,images/assets/snowy_money.jpg,learning,20,images/assets/success_money.jpg,images/assets/gameover.jpg,,,,,,,,,,,,,0,8,8,0,1,,,,,,,,,,,,,,,,,,,,,,,,,,,,,,,,
,,,,,,,,,,,,67e0977dda2e47eafce0f06a,001,3,2025-03-27_19h00.09.209,avatar_quest_3AFC_legacy,2022.1.3,Win32,46.72897196,67e0977dda2e47eafce0f06a,67e5c8c9bc10e40b86efc6fc,67e5d336e5b3671fcdff070d,,,,,,,,,,,,,,,,,,,,,,No Brainslug No Barriers With Money,0,images/assets/snowy_money.jpg,learning,10,images/assets/success_money.jpg,images/assets/gameover.jpg,,,,,,,,,,,,,0,9,9,9,1,,,,,,,,,,,,,,,,,,,,,,,,,,,,,,,,
,,,,,,,,,,,,67e0977dda2e47eafce0f06a,001,3,2025-03-27_19h00.09.209,avatar_quest_3AFC_legacy,2022.1.3,Win32,46.72897196,67e0977dda2e47eafce0f06a,67e5c8c9bc10e40b86efc6fc,67e5d336e5b3671fcdff070d,"[""left"",""right"",""left"",""right"",""left"",""left"",""right"",""right"",""left"",""right"",""right"",""left"",""right"",""right""]","[0.7980000000000018,1.7479999999999336,2.4198999998568524,3.1329999999999245,3.7861999998092415,4.495399999856886,5.084799999952224,5.617699999809247,5.914299999952277,6.439899999856948,6.797199999809209,7.16629999995223,7.6310999999045634,8.025499999999965]",,calibration,With Brainslug Difficult 2 No Money,14,8.29825,8.3046,9,9,0,FALSE,na,na,na,na,,,,,,,,,,,,,,,,,,,,,,,,,,,,,,,,,,0,0,0,0,1,,,,,,,,,,,,,,,,,,,,,,,
,,,,,,,,,,,,67e0977dda2e47eafce0f06a,001,3,2025-03-27_19h00.09.209,avatar_quest_3AFC_legacy,2022.1.3,Win32,46.72897196,67e0977dda2e47eafce0f06a,67e5c8c9bc10e40b86efc6fc,67e5d336e5b3671fcdff070d,,,,,,,,,,,,,,,,,,,,,,With Brainslug Difficult 2 No Money,12,images/assets/snowy_original.jpg,learning,20,images/assets/success.jpg,images/assets/gameover.jpg,,,,,,,,,,,,,0,10,10,3,1,,,,,,,,,,,,,,,,,,,,,,,,,,,,,,,,
,,,,,,,,,,,,67e0977dda2e47eafce0f06a,001,3,2025-03-27_19h00.09.209,avatar_quest_3AFC_legacy,2022.1.3,Win32,46.72897196,67e0977dda2e47eafce0f06a,67e5c8c9bc10e40b86efc6fc,67e5d336e5b3671fcdff070d,,,,,,,,,,,,,,,,,,,,,,,,,,,,,,,,,,,,,,,,,,,,,,,,,,,,,,,10,0,10,0,1,,,,,,,,,,,,,,,,,,
,,,,,,,,,,,,67e0977dda2e47eafce0f06a,001,3,2025-03-27_19h00.09.209,avatar_quest_3AFC_legacy,2022.1.3,Win32,46.72897196,67e0977dda2e47eafce0f06a,67e5c8c9bc10e40b86efc6fc,67e5d336e5b3671fcdff070d,,,,,,,,,,,,,,,,,,,,,,No Brainslug Difficult 2 No Money,12,images/assets/snowy_original.jpg,learning,20,images/assets/success.jpg,images/assets/gameover.jpg,,,,,,,,With Brainslug Difficult 1 No Money,With Brainslug Difficult 1 No Money,left,1.5368,"[""With Brainslug Difficult 2 No Money"",""With Brainslug Difficult 2 With Money""]",0,0,0,8,1,,,,,,,,,,,,,,,,,,,,,,,,,,,,,,,,
,,,,,,,,,,,,67e0977dda2e47eafce0f06a,001,3,2025-03-27_19h00.09.209,avatar_quest_3AFC_legacy,2022.1.3,Win32,46.72897196,67e0977dda2e47eafce0f06a,67e5c8c9bc10e40b86efc6fc,67e5d336e5b3671fcdff070d,,,,,,,,,,,,,,,,,,,,,,With Brainslug Difficult 2 No Money,12,images/assets/snowy_original.jpg,learning,20,images/assets/success.jpg,images/assets/gameover.jpg,,,,,,,,,,,,,0,1,1,3,1,,,,,,,,,,,,,,,,,,,,,,,,,,,,,,,,
,,,,,,,,,,,,67e0977dda2e47eafce0f06a,001,3,2025-03-27_19h00.09.209,avatar_quest_3AFC_legacy,2022.1.3,Win32,46.72897196,67e0977dda2e47eafce0f06a,67e5c8c9bc10e40b86efc6fc,67e5d336e5b3671fcdff070d,"[""right"",""left"",""right"",""left"",""left"",""right"",""right"",""left""]","[1.0536999998092824,1.7995999999046717,2.7438999998569216,3.5997999999523245,4.13900000000001,4.701000000000022,5.241999999999962,6.211399999856894]",,calibration,With Brainslug Difficult 1 No Money,15,8.29825,6.964,5,4,0,TRUE,na,na,na,na,,,,,,,,,,,,,,,,,,,,,,,,,,,,,,,,,,0,0,0,0,1,,,,,,,,,,,,,,,,,,,,,,,
,,,,,,,,,,,,67e0977dda2e47eafce0f06a,001,3,2025-03-27_19h00.09.209,avatar_quest_3AFC_legacy,2022.1.3,Win32,46.72897196,67e0977dda2e47eafce0f06a,67e5c8c9bc10e40b86efc6fc,67e5d336e5b3671fcdff070d,,,,,,,,,,,,,,,,,,,,,,With Brainslug Difficult 1 No Money,6,images/assets/snowy_original.jpg,learning,20,images/assets/success.jpg,images/assets/gameover.jpg,,,,,,,,,,,,,0,2,2,1,1,,,,,,,,,,,,,,,,,,,,,,,,,,,,,,,,
,,,,,,,,,,,,67e0977dda2e47eafce0f06a,001,3,2025-03-27_19h00.09.209,avatar_quest_3AFC_legacy,2022.1.3,Win32,46.72897196,67e0977dda2e47eafce0f06a,67e5c8c9bc10e40b86efc6fc,67e5d336e5b3671fcdff070d,,,,,,,,,,,,,,,,,,,,,,No Brainslug No Barriers No Money,0,images/assets/snowy_original.jpg,learning,10,images/assets/success.jpg,images/assets/gameover.jpg,,,,,,,,,,,,,0,3,3,10,1,,,,,,,,,,,,,,,,,,,,,,,,,,,,,,,,
,,,,,,,,,,,,67e0977dda2e47eafce0f06a,001,3,2025-03-27_19h00.09.209,avatar_quest_3AFC_legacy,2022.1.3,Win32,46.72897196,67e0977dda2e47eafce0f06a,67e5c8c9bc10e40b86efc6fc,67e5d336e5b3671fcdff070d,,,,,,,,,,,,,,,,,,,,,,No Brainslug No Barriers With Money,0,images/assets/snowy_money.jpg,learning,10,images/assets/success_money.jpg,images/assets/gameover.jpg,,,,,,,,,,,,,0,4,4,9,1,,,,,,,,,,,,,,,,,,,,,,,,,,,,,,,,
,,,,,,,,,,,,67e0977dda2e47eafce0f06a,001,3,2025-03-27_19h00.09.209,avatar_quest_3AFC_legacy,2022.1.3,Win32,46.72897196,67e0977dda2e47eafce0f06a,67e5c8c9bc10e40b86efc6fc,67e5d336e5b3671fcdff070d,,,,,,,,,,,,,,,,,,,,,,With Brainslug No Barriers No Money,0,images/assets/snowy_original.jpg,learning,10,images/assets/success.jpg,images/assets/gameover.jpg,,,,,,,,,,,,,0,5,5,5,1,,,,,,,,,,,,,,,,,,,,,,,,,,,,,,,,
,,,,,,,,,,,,67e0977dda2e47eafce0f06a,001,3,2025-03-27_19h00.09.209,avatar_quest_3AFC_legacy,2022.1.3,Win32,46.72897196,67e0977dda2e47eafce0f06a,67e5c8c9bc10e40b86efc6fc,67e5d336e5b3671fcdff070d,,,,,,,,,,,,,,,,,,,,,,No Brainslug Difficult 2 With Money,12,images/assets/snowy_money.jpg,learning,20,images/assets/success_money.jpg,images/assets/gameover.jpg,,,,,,,,,,,,,0,6,6,7,1,,,,,,,,,,,,,,,,,,,,,,,,,,,,,,,,
,,,,,,,,,,,,67e0977dda2e47eafce0f06a,001,3,2025-03-27_19h00.09.209,avatar_quest_3AFC_legacy,2022.1.3,Win32,46.72897196,67e0977dda2e47eafce0f06a,67e5c8c9bc10e40b86efc6fc,67e5d336e5b3671fcdff070d,,,,,,,,,,,,,,,,,,,,,,With Brainslug Difficult 2 With Money,12,images/assets/snowy_money.jpg,learning,20,images/assets/success_money.jpg,images/assets/gameover.jpg,,,,,,,,,,,,,0,7,7,2,1,,,,,,,,,,,,,,,,,,,,,,,,,,,,,,,,
,,,,,,,,,,,,67e0977dda2e47eafce0f06a,001,3,2025-03-27_19h00.09.209,avatar_quest_3AFC_legacy,2022.1.3,Win32,46.72897196,67e0977dda2e47eafce0f06a,67e5c8c9bc10e40b86efc6fc,67e5d336e5b3671fcdff070d,,,,,,,,,,,,,,,,,,,,,,No Brainslug Difficult 1 No Money,6,images/assets/snowy_original.jpg,learning,20,images/assets/success.jpg,images/assets/gameover.jpg,,,,,,,,,,,,,0,8,8,6,1,,,,,,,,,,,,,,,,,,,,,,,,,,,,,,,,
,,,,,,,,,,,,67e0977dda2e47eafce0f06a,001,3,2025-03-27_19h00.09.209,avatar_quest_3AFC_legacy,2022.1.3,Win32,46.72897196,67e0977dda2e47eafce0f06a,67e5c8c9bc10e40b86efc6fc,67e5d336e5b3671fcdff070d,,,,,,,,,,,,,,,,,,,,,,With Brainslug Difficult 1 With Money,6,images/assets/snowy_money.jpg,learning,20,images/assets/success_money.jpg,images/assets/gameover.jpg,,,,,,,,,,,,,0,9,9,0,1,,,,,,,,,,,,,,,,,,,,,,,,,,,,,,,,
,,,,,,,,,,,,67e0977dda2e47eafce0f06a,001,3,2025-03-27_19h00.09.209,avatar_quest_3AFC_legacy,2022.1.3,Win32,46.72897196,67e0977dda2e47eafce0f06a,67e5c8c9bc10e40b86efc6fc,67e5d336e5b3671fcdff070d,,,,,,,,,,,,,,,,,,,,,,With Brainslug No Barriers With Money,0,images/assets/snowy_money.jpg,learning,10,images/assets/success_money.jpg,images/assets/gameover.jpg,,,,,,,,,,,,,0,10,10,4,1,,,,,,,,,,,,,,,,,,,,,,,,,,,,,,,,
,,,,,,,,,,,,67e0977dda2e47eafce0f06a,001,3,2025-03-27_19h00.09.209,avatar_quest_3AFC_legacy,2022.1.3,Win32,46.72897196,67e0977dda2e47eafce0f06a,67e5c8c9bc10e40b86efc6fc,67e5d336e5b3671fcdff070d,,,,,,,,,,,,,,,,,,,,,,,,,,,,,,,,,,,,,,,,,,,,,,,,,,,,,,,11,0,11,0,1,,,,,,,,,,,,,,,,,,
,,,,,,,,,,,,67e0977dda2e47eafce0f06a,001,3,2025-03-27_19h00.09.209,avatar_quest_3AFC_legacy,2022.1.3,Win32,46.72897196,67e0977dda2e47eafce0f06a,67e5c8c9bc10e40b86efc6fc,67e5d336e5b3671fcdff070d,,,,,,,,,,,,,,,,,,,,,,,,,,,,,,,,,,,,,,,,,,,,,,,,,,,,,,,,,,,,0,0,0,0,1,1,With Brainslug Difficult 1 No Money,images/assets/With Brainslug Difficult 1 No Money.png,With Brainslug Difficult 2 No Money,images/assets/With Brainslug Difficult 2 No Money.png,With Brainslug Difficult 2 With Money,images/assets/With Brainslug Difficult 2 With Money.png,Achievement vs. money,,,,,
,,,,,,,,,,,,67e0977dda2e47eafce0f06a,001,3,2025-03-27_19h00.09.209,avatar_quest_3AFC_legacy,2022.1.3,Win32,46.72897196,67e0977dda2e47eafce0f06a,67e5c8c9bc10e40b86efc6fc,67e5d336e5b3671fcdff070d,,,,,,,,,,,,,,,,,,,,,,No Brainslug Difficult 2 No Money,12,images/assets/snowy_original.jpg,learning,20,images/assets/success.jpg,images/assets/gameover.jpg,,,,,,,,No Brainslug No Barriers No Money,No Brainslug No Barriers No Money,left,0.9034,"[""No Brainslug Difficult 1 No Money"",""No Brainslug No Barriers With Money""]",0,0,0,8,1,,,,,,,,,,,,,,,,,,,,,,,,,,,,,,,,
,,,,,,,,,,,,67e0977dda2e47eafce0f06a,001,3,2025-03-27_19h00.09.209,avatar_quest_3AFC_legacy,2022.1.3,Win32,46.72897196,67e0977dda2e47eafce0f06a,67e5c8c9bc10e40b86efc6fc,67e5d336e5b3671fcdff070d,,,,,,,,,,,,,,,,,,,,,,With Brainslug No Barriers With Money,0,images/assets/snowy_money.jpg,learning,10,images/assets/success_money.jpg,images/assets/gameover.jpg,,,,,,,,,,,,,0,1,1,4,1,,,,,,,,,,,,,,,,,,,,,,,,,,,,,,,,
,,,,,,,,,,,,67e0977dda2e47eafce0f06a,001,3,2025-03-27_19h00.09.209,avatar_quest_3AFC_legacy,2022.1.3,Win32,46.72897196,67e0977dda2e47eafce0f06a,67e5c8c9bc10e40b86efc6fc,67e5d336e5b3671fcdff070d,,,,,,,,,,,,,,,,,,,,,,With Brainslug Difficult 2 No Money,12,images/assets/snowy_original.jpg,learning,20,images/assets/success.jpg,images/assets/gameover.jpg,,,,,,,,,,,,,0,2,2,3,1,,,,,,,,,,,,,,,,,,,,,,,,,,,,,,,,
,,,,,,,,,,,,67e0977dda2e47eafce0f06a,001,3,2025-03-27_19h00.09.209,avatar_quest_3AFC_legacy,2022.1.3,Win32,46.72897196,67e0977dda2e47eafce0f06a,67e5c8c9bc10e40b86efc6fc,67e5d336e5b3671fcdff070d,,,,,,,,,,,,,,,,,,,,,,With Brainslug No Barriers No Money,0,images/assets/snowy_original.jpg,learning,10,images/assets/success.jpg,images/assets/gameover.jpg,,,,,,,,,,,,,0,3,3,5,1,,,,,,,,,,,,,,,,,,,,,,,,,,,,,,,,
,,,,,,,,,,,,67e0977dda2e47eafce0f06a,001,3,2025-03-27_19h00.09.209,avatar_quest_3AFC_legacy,2022.1.3,Win32,46.72897196,67e0977dda2e47eafce0f06a,67e5c8c9bc10e40b86efc6fc,67e5d336e5b3671fcdff070d,,,,,,,,,,,,,,,,,,,,,,With Brainslug Difficult 2 With Money,12,images/assets/snowy_money.jpg,learning,20,images/assets/success_money.jpg,images/assets/gameover.jpg,,,,,,,,,,,,,0,4,4,2,1,,,,,,,,,,,,,,,,,,,,,,,,,,,,,,,,
,,,,,,,,,,,,67e0977dda2e47eafce0f06a,001,3,2025-03-27_19h00.09.209,avatar_quest_3AFC_legacy,2022.1.3,Win32,46.72897196,67e0977dda2e47eafce0f06a,67e5c8c9bc10e40b86efc6fc,67e5d336e5b3671fcdff070d,,,,,,,,,,,,,,,,,,,,,,No Brainslug No Barriers With Money,0,images/assets/snowy_money.jpg,learning,10,images/assets/success_money.jpg,images/assets/gameover.jpg,,,,,,,,,,,,,0,5,5,9,1,,,,,,,,,,,,,,,,,,,,,,,,,,,,,,,,
,,,,,,,,,,,,67e0977dda2e47eafce0f06a,001,3,2025-03-27_19h00.09.209,avatar_quest_3AFC_legacy,2022.1.3,Win32,46.72897196,67e0977dda2e47eafce0f06a,67e5c8c9bc10e40b86efc6fc,67e5d336e5b3671fcdff070d,,,,,,,,,,,,,,,,,,,,,,No Brainslug Difficult 1 No Money,6,images/assets/snowy_original.jpg,learning,20,images/assets/success.jpg,images/assets/gameover.jpg,,,,,,,,,,,,,0,6,6,6,1,,,,,,,,,,,,,,,,,,,,,,,,,,,,,,,,
,,,,,,,,,,,,67e0977dda2e47eafce0f06a,001,3,2025-03-27_19h00.09.209,avatar_quest_3AFC_legacy,2022.1.3,Win32,46.72897196,67e0977dda2e47eafce0f06a,67e5c8c9bc10e40b86efc6fc,67e5d336e5b3671fcdff070d,,,,,,,,,,,,,,,,,,,,,,With Brainslug Difficult 1 With Money,6,images/assets/snowy_money.jpg,learning,20,images/assets/success_money.jpg,images/assets/gameover.jpg,,,,,,,,,,,,,0,7,7,0,1,,,,,,,,,,,,,,,,,,,,,,,,,,,,,,,,
,,,,,,,,,,,,67e0977dda2e47eafce0f06a,001,3,2025-03-27_19h00.09.209,avatar_quest_3AFC_legacy,2022.1.3,Win32,46.72897196,67e0977dda2e47eafce0f06a,67e5c8c9bc10e40b86efc6fc,67e5d336e5b3671fcdff070d,,,,,,,,,,,,,,,,,,,,,,No Brainslug Difficult 2 With Money,12,images/assets/snowy_money.jpg,learning,20,images/assets/success_money.jpg,images/assets/gameover.jpg,,,,,,,,,,,,,0,8,8,7,1,,,,,,,,,,,,,,,,,,,,,,,,,,,,,,,,
,,,,,,,,,,,,67e0977dda2e47eafce0f06a,001,3,2025-03-27_19h00.09.209,avatar_quest_3AFC_legacy,2022.1.3,Win32,46.72897196,67e0977dda2e47eafce0f06a,67e5c8c9bc10e40b86efc6fc,67e5d336e5b3671fcdff070d,"[""left"",""right""]","[2.6465999999046517,3.988599999904636]",,calibration,No Brainslug No Barriers No Money,16,6.6386,5.4988,2,0,0,TRUE,na,na,na,na,,,,,,,,,,,,,,,,,,,,,,,,,,,,,,,,,,0,0,0,0,1,,,,,,,,,,,,,,,,,,,,,,,
,,,,,,,,,,,,67e0977dda2e47eafce0f06a,001,3,2025-03-27_19h00.09.209,avatar_quest_3AFC_legacy,2022.1.3,Win32,46.72897196,67e0977dda2e47eafce0f06a,67e5c8c9bc10e40b86efc6fc,67e5d336e5b3671fcdff070d,,,,,,,,,,,,,,,,,,,,,,No Brainslug No Barriers No Money,0,images/assets/snowy_original.jpg,learning,10,images/assets/success.jpg,images/assets/gameover.jpg,,,,,,,,,,,,,0,9,9,10,1,,,,,,,,,,,,,,,,,,,,,,,,,,,,,,,,
,,,,,,,,,,,,67e0977dda2e47eafce0f06a,001,3,2025-03-27_19h00.09.209,avatar_quest_3AFC_legacy,2022.1.3,Win32,46.72897196,67e0977dda2e47eafce0f06a,67e5c8c9bc10e40b86efc6fc,67e5d336e5b3671fcdff070d,,,,,,,,,,,,,,,,,,,,,,With Brainslug Difficult 1 No Money,6,images/assets/snowy_original.jpg,learning,20,images/assets/success.jpg,images/assets/gameover.jpg,,,,,,,,,,,,,0,10,10,1,1,,,,,,,,,,,,,,,,,,,,,,,,,,,,,,,,
,,,,,,,,,,,,67e0977dda2e47eafce0f06a,001,3,2025-03-27_19h00.09.209,avatar_quest_3AFC_legacy,2022.1.3,Win32,46.72897196,67e0977dda2e47eafce0f06a,67e5c8c9bc10e40b86efc6fc,67e5d336e5b3671fcdff070d,,,,,,,,,,,,,,,,,,,,,,,,,,,,,,,,,,,,,,,,,,,,,,,,,,,,,,,0,0,0,0,1,,,,,,,,,,,,,,,,,,
,,,,,,,,,,,,67e0977dda2e47eafce0f06a,001,3,2025-03-27_19h00.09.209,avatar_quest_3AFC_legacy,2022.1.3,Win32,46.72897196,67e0977dda2e47eafce0f06a,67e5c8c9bc10e40b86efc6fc,67e5d336e5b3671fcdff070d,,,,,,,,,,,,,,,,,,,,,,With Brainslug No Barriers No Money,0,images/assets/snowy_original.jpg,learning,10,images/assets/success.jpg,images/assets/gameover.jpg,,,,,,,,No Brainslug No Barriers With Money,No Brainslug No Barriers No Money,right,0.9555,"[""No Brainslug No Barriers No Money"",""No Brainslug Difficult 1 No Money""]",0,0,0,5,1,,,,,,,,,,,,,,,,,,,,,,,,,,,,,,,,
,,,,,,,,,,,,67e0977dda2e47eafce0f06a,001,3,2025-03-27_19h00.09.209,avatar_quest_3AFC_legacy,2022.1.3,Win32,46.72897196,67e0977dda2e47eafce0f06a,67e5c8c9bc10e40b86efc6fc,67e5d336e5b3671fcdff070d,"[""left"",""right""]","[2.384200000047713,4.01210000014305]",,calibration,No Brainslug No Barriers With Money,17,6.6386,5.5905,2,0,0,TRUE,na,na,na,na,,,,,,,,,,,,,,,,,,,,,,,,,,,,,,,,,,0,0,0,0,1,,,,,,,,,,,,,,,,,,,,,,,
,,,,,,,,,,,,67e0977dda2e47eafce0f06a,001,3,2025-03-27_19h00.09.209,avatar_quest_3AFC_legacy,2022.1.3,Win32,46.72897196,67e0977dda2e47eafce0f06a,67e5c8c9bc10e40b86efc6fc,67e5d336e5b3671fcdff070d,,,,,,,,,,,,,,,,,,,,,,No Brainslug No Barriers With Money,0,images/assets/snowy_money.jpg,learning,10,images/assets/success_money.jpg,images/assets/gameover.jpg,,,,,,,,,,,,,0,1,1,9,1,,,,,,,,,,,,,,,,,,,,,,,,,,,,,,,,
,,,,,,,,,,,,67e0977dda2e47eafce0f06a,001,3,2025-03-27_19h00.09.209,avatar_quest_3AFC_legacy,2022.1.3,Win32,46.72897196,67e0977dda2e47eafce0f06a,67e5c8c9bc10e40b86efc6fc,67e5d336e5b3671fcdff070d,,,,,,,,,,,,,,,,,,,,,,With Brainslug No Barriers With Money,0,images/assets/snowy_money.jpg,learning,10,images/assets/success_money.jpg,images/assets/gameover.jpg,,,,,,,,,,,,,0,2,2,4,1,,,,,,,,,,,,,,,,,,,,,,,,,,,,,,,,
,,,,,,,,,,,,67e0977dda2e47eafce0f06a,001,3,2025-03-27_19h00.09.209,avatar_quest_3AFC_legacy,2022.1.3,Win32,46.72897196,67e0977dda2e47eafce0f06a,67e5c8c9bc10e40b86efc6fc,67e5d336e5b3671fcdff070d,,,,,,,,,,,,,,,,,,,,,,No Brainslug Difficult 1 No Money,6,images/assets/snowy_original.jpg,learning,20,images/assets/success.jpg,images/assets/gameover.jpg,,,,,,,,,,,,,0,3,3,6,1,,,,,,,,,,,,,,,,,,,,,,,,,,,,,,,,
,,,,,,,,,,,,67e0977dda2e47eafce0f06a,001,3,2025-03-27_19h00.09.209,avatar_quest_3AFC_legacy,2022.1.3,Win32,46.72897196,67e0977dda2e47eafce0f06a,67e5c8c9bc10e40b86efc6fc,67e5d336e5b3671fcdff070d,,,,,,,,,,,,,,,,,,,,,,No Brainslug No Barriers No Money,0,images/assets/snowy_original.jpg,learning,10,images/assets/success.jpg,images/assets/gameover.jpg,,,,,,,,,,,,,0,4,4,10,1,,,,,,,,,,,,,,,,,,,,,,,,,,,,,,,,
,,,,,,,,,,,,67e0977dda2e47eafce0f06a,001,3,2025-03-27_19h00.09.209,avatar_quest_3AFC_legacy,2022.1.3,Win32,46.72897196,67e0977dda2e47eafce0f06a,67e5c8c9bc10e40b86efc6fc,67e5d336e5b3671fcdff070d,,,,,,,,,,,,,,,,,,,,,,With Brainslug Difficult 1 With Money,6,images/assets/snowy_money.jpg,learning,20,images/assets/success_money.jpg,images/assets/gameover.jpg,,,,,,,,,,,,,0,5,5,0,1,,,,,,,,,,,,,,,,,,,,,,,,,,,,,,,,
,,,,,,,,,,,,67e0977dda2e47eafce0f06a,001,3,2025-03-27_19h00.09.209,avatar_quest_3AFC_legacy,2022.1.3,Win32,46.72897196,67e0977dda2e47eafce0f06a,67e5c8c9bc10e40b86efc6fc,67e5d336e5b3671fcdff070d,,,,,,,,,,,,,,,,,,,,,,With Brainslug Difficult 1 No Money,6,images/assets/snowy_original.jpg,learning,20,images/assets/success.jpg,images/assets/gameover.jpg,,,,,,,,,,,,,0,6,6,1,1,,,,,,,,,,,,,,,,,,,,,,,,,,,,,,,,
,,,,,,,,,,,,67e0977dda2e47eafce0f06a,001,3,2025-03-27_19h00.09.209,avatar_quest_3AFC_legacy,2022.1.3,Win32,46.72897196,67e0977dda2e47eafce0f06a,67e5c8c9bc10e40b86efc6fc,67e5d336e5b3671fcdff070d,,,,,,,,,,,,,,,,,,,,,,With Brainslug Difficult 2 No Money,12,images/assets/snowy_original.jpg,learning,20,images/assets/success.jpg,images/assets/gameover.jpg,,,,,,,,,,,,,0,7,7,3,1,,,,,,,,,,,,,,,,,,,,,,,,,,,,,,,,
,,,,,,,,,,,,67e0977dda2e47eafce0f06a,001,3,2025-03-27_19h00.09.209,avatar_quest_3AFC_legacy,2022.1.3,Win32,46.72897196,67e0977dda2e47eafce0f06a,67e5c8c9bc10e40b86efc6fc,67e5d336e5b3671fcdff070d,,,,,,,,,,,,,,,,,,,,,,With Brainslug Difficult 2 With Money,12,images/assets/snowy_money.jpg,learning,20,images/assets/success_money.jpg,images/assets/gameover.jpg,,,,,,,,,,,,,0,8,8,2,1,,,,,,,,,,,,,,,,,,,,,,,,,,,,,,,,
,,,,,,,,,,,,67e0977dda2e47eafce0f06a,001,3,2025-03-27_19h00.09.209,avatar_quest_3AFC_legacy,2022.1.3,Win32,46.72897196,67e0977dda2e47eafce0f06a,67e5c8c9bc10e40b86efc6fc,67e5d336e5b3671fcdff070d,,,,,,,,,,,,,,,,,,,,,,No Brainslug Difficult 2 No Money,12,images/assets/snowy_original.jpg,learning,20,images/assets/success.jpg,images/assets/gameover.jpg,,,,,,,,,,,,,0,9,9,8,1,,,,,,,,,,,,,,,,,,,,,,,,,,,,,,,,
,,,,,,,,,,,,67e0977dda2e47eafce0f06a,001,3,2025-03-27_19h00.09.209,avatar_quest_3AFC_legacy,2022.1.3,Win32,46.72897196,67e0977dda2e47eafce0f06a,67e5c8c9bc10e40b86efc6fc,67e5d336e5b3671fcdff070d,,,,,,,,,,,,,,,,,,,,,,No Brainslug Difficult 2 With Money,12,images/assets/snowy_money.jpg,learning,20,images/assets/success_money.jpg,images/assets/gameover.jpg,,,,,,,,,,,,,0,10,10,7,1,,,,,,,,,,,,,,,,,,,,,,,,,,,,,,,,
,,,,,,,,,,,,67e0977dda2e47eafce0f06a,001,3,2025-03-27_19h00.09.209,avatar_quest_3AFC_legacy,2022.1.3,Win32,46.72897196,67e0977dda2e47eafce0f06a,67e5c8c9bc10e40b86efc6fc,67e5d336e5b3671fcdff070d,,,,,,,,,,,,,,,,,,,,,,,,,,,,,,,,,,,,,,,,,,,,,,,,,,,,,,,1,0,1,0,1,,,,,,,,,,,,,,,,,,
,,,,,,,,,,,,67e0977dda2e47eafce0f06a,001,3,2025-03-27_19h00.09.209,avatar_quest_3AFC_legacy,2022.1.3,Win32,46.72897196,67e0977dda2e47eafce0f06a,67e5c8c9bc10e40b86efc6fc,67e5d336e5b3671fcdff070d,,,,,,,,,,,,,,,,,,,,,,With Brainslug No Barriers No Money,0,images/assets/snowy_original.jpg,learning,10,images/assets/success.jpg,images/assets/gameover.jpg,,,,,,,,No Brainslug No Barriers With Money,No Brainslug No Barriers No Money,right,1.3557,"[""No Brainslug No Barriers No Money"",""No Brainslug Difficult 1 No Money""]",0,0,0,5,1,,,,,,,,,,,,,,,,,,,,,,,,,,,,,,,,
,,,,,,,,,,,,67e0977dda2e47eafce0f06a,001,3,2025-03-27_19h00.09.209,avatar_quest_3AFC_legacy,2022.1.3,Win32,46.72897196,67e0977dda2e47eafce0f06a,67e5c8c9bc10e40b86efc6fc,67e5d336e5b3671fcdff070d,,,,,,,,,,,,,,,,,,,,,,No Brainslug Difficult 1 No Money,6,images/assets/snowy_original.jpg,learning,20,images/assets/success.jpg,images/assets/gameover.jpg,,,,,,,,,,,,,0,1,1,6,1,,,,,,,,,,,,,,,,,,,,,,,,,,,,,,,,
,,,,,,,,,,,,67e0977dda2e47eafce0f06a,001,3,2025-03-27_19h00.09.209,avatar_quest_3AFC_legacy,2022.1.3,Win32,46.72897196,67e0977dda2e47eafce0f06a,67e5c8c9bc10e40b86efc6fc,67e5d336e5b3671fcdff070d,,,,,,,,,,,,,,,,,,,,,,No Brainslug No Barriers No Money,0,images/assets/snowy_original.jpg,learning,10,images/assets/success.jpg,images/assets/gameover.jpg,,,,,,,,,,,,,0,2,2,10,1,,,,,,,,,,,,,,,,,,,,,,,,,,,,,,,,
,,,,,,,,,,,,67e0977dda2e47eafce0f06a,001,3,2025-03-27_19h00.09.209,avatar_quest_3AFC_legacy,2022.1.3,Win32,46.72897196,67e0977dda2e47eafce0f06a,67e5c8c9bc10e40b86efc6fc,67e5d336e5b3671fcdff070d,,,,,,,,,,,,,,,,,,,,,,No Brainslug Difficult 2 No Money,12,images/assets/snowy_original.jpg,learning,20,images/assets/success.jpg,images/assets/gameover.jpg,,,,,,,,,,,,,0,3,3,8,1,,,,,,,,,,,,,,,,,,,,,,,,,,,,,,,,
,,,,,,,,,,,,67e0977dda2e47eafce0f06a,001,3,2025-03-27_19h00.09.209,avatar_quest_3AFC_legacy,2022.1.3,Win32,46.72897196,67e0977dda2e47eafce0f06a,67e5c8c9bc10e40b86efc6fc,67e5d336e5b3671fcdff070d,,,,,,,,,,,,,,,,,,,,,,With Brainslug Difficult 2 With Money,12,images/assets/snowy_money.jpg,learning,20,images/assets/success_money.jpg,images/assets/gameover.jpg,,,,,,,,,,,,,0,4,4,2,1,,,,,,,,,,,,,,,,,,,,,,,,,,,,,,,,
,,,,,,,,,,,,67e0977dda2e47eafce0f06a,001,3,2025-03-27_19h00.09.209,avatar_quest_3AFC_legacy,2022.1.3,Win32,46.72897196,67e0977dda2e47eafce0f06a,67e5c8c9bc10e40b86efc6fc,67e5d336e5b3671fcdff070d,,,,,,,,,,,,,,,,,,,,,,With Brainslug No Barriers With Money,0,images/assets/snowy_money.jpg,learning,10,images/assets/success_money.jpg,images/assets/gameover.jpg,,,,,,,,,,,,,0,5,5,4,1,,,,,,,,,,,,,,,,,,,,,,,,,,,,,,,,
,,,,,,,,,,,,67e0977dda2e47eafce0f06a,001,3,2025-03-27_19h00.09.209,avatar_quest_3AFC_legacy,2022.1.3,Win32,46.72897196,67e0977dda2e47eafce0f06a,67e5c8c9bc10e40b86efc6fc,67e5d336e5b3671fcdff070d,,,,,,,,,,,,,,,,,,,,,,With Brainslug Difficult 1 No Money,6,images/assets/snowy_original.jpg,learning,20,images/assets/success.jpg,images/assets/gameover.jpg,,,,,,,,,,,,,0,6,6,1,1,,,,,,,,,,,,,,,,,,,,,,,,,,,,,,,,
,,,,,,,,,,,,67e0977dda2e47eafce0f06a,001,3,2025-03-27_19h00.09.209,avatar_quest_3AFC_legacy,2022.1.3,Win32,46.72897196,67e0977dda2e47eafce0f06a,67e5c8c9bc10e40b86efc6fc,67e5d336e5b3671fcdff070d,,,,,,,,,,,,,,,,,,,,,,With Brainslug Difficult 1 With Money,6,images/assets/snowy_money.jpg,learning,20,images/assets/success_money.jpg,images/assets/gameover.jpg,,,,,,,,,,,,,0,7,7,0,1,,,,,,,,,,,,,,,,,,,,,,,,,,,,,,,,
,,,,,,,,,,,,67e0977dda2e47eafce0f06a,001,3,2025-03-27_19h00.09.209,avatar_quest_3AFC_legacy,2022.1.3,Win32,46.72897196,67e0977dda2e47eafce0f06a,67e5c8c9bc10e40b86efc6fc,67e5d336e5b3671fcdff070d,"[""left"",""right""]","[2.935999999999922,3.915499999999952]",,calibration,No Brainslug No Barriers With Money,18,6.6386,5.5267,2,0,4,TRUE,na,na,na,na,,,,,,,,,,,,,,,,,,,,,,,,,,,,,,,,,,0,0,0,0,1,,,,,,,,,,,,,,,,,,,,,,,
,,,,,,,,,,,,67e0977dda2e47eafce0f06a,001,3,2025-03-27_19h00.09.209,avatar_quest_3AFC_legacy,2022.1.3,Win32,46.72897196,67e0977dda2e47eafce0f06a,67e5c8c9bc10e40b86efc6fc,67e5d336e5b3671fcdff070d,,,,,,,,,,,,,,,,,,,,,,No Brainslug No Barriers With Money,0,images/assets/snowy_money.jpg,learning,10,images/assets/success_money.jpg,images/assets/gameover.jpg,,,,,,,,,,,,,0,8,8,9,1,,,,,,,,,,,,,,,,,,,,,,,,,,,,,,,,
,,,,,,,,,,,,67e0977dda2e47eafce0f06a,001,3,2025-03-27_19h00.09.209,avatar_quest_3AFC_legacy,2022.1.3,Win32,46.72897196,67e0977dda2e47eafce0f06a,67e5c8c9bc10e40b86efc6fc,67e5d336e5b3671fcdff070d,,,,,,,,,,,,,,,,,,,,,,No Brainslug Difficult 2 With Money,12,images/assets/snowy_money.jpg,learning,20,images/assets/success_money.jpg,images/assets/gameover.jpg,,,,,,,,,,,,,0,9,9,7,1,,,,,,,,,,,,,,,,,,,,,,,,,,,,,,,,
,,,,,,,,,,,,67e0977dda2e47eafce0f06a,001,3,2025-03-27_19h00.09.209,avatar_quest_3AFC_legacy,2022.1.3,Win32,46.72897196,67e0977dda2e47eafce0f06a,67e5c8c9bc10e40b86efc6fc,67e5d336e5b3671fcdff070d,,,,,,,,,,,,,,,,,,,,,,With Brainslug Difficult 2 No Money,12,images/assets/snowy_original.jpg,learning,20,images/assets/success.jpg,images/assets/gameover.jpg,,,,,,,,,,,,,0,10,10,3,1,,,,,,,,,,,,,,,,,,,,,,,,,,,,,,,,
,,,,,,,,,,,,67e0977dda2e47eafce0f06a,001,3,2025-03-27_19h00.09.209,avatar_quest_3AFC_legacy,2022.1.3,Win32,46.72897196,67e0977dda2e47eafce0f06a,67e5c8c9bc10e40b86efc6fc,67e5d336e5b3671fcdff070d,,,,,,,,,,,,,,,,,,,,,,,,,,,,,,,,,,,,,,,,,,,,,,,,,,,,,,,2,0,2,0,1,,,,,,,,,,,,,,,,,,
,,,,,,,,,,,,67e0977dda2e47eafce0f06a,001,3,2025-03-27_19h00.09.209,avatar_quest_3AFC_legacy,2022.1.3,Win32,46.72897196,67e0977dda2e47eafce0f06a,67e5c8c9bc10e40b86efc6fc,67e5d336e5b3671fcdff070d,,,,,,,,,,,,,,,,,,,,,,With Brainslug No Barriers No Money,0,images/assets/snowy_original.jpg,learning,10,images/assets/success.jpg,images/assets/gameover.jpg,,,,,,,,No Brainslug No Barriers With Money,No Brainslug No Barriers No Money,right,1.5919,"[""No Brainslug No Barriers No Money"",""No Brainslug Difficult 1 No Money""]",0,0,0,5,1,,,,,,,,,,,,,,,,,,,,,,,,,,,,,,,,
,,,,,,,,,,,,67e0977dda2e47eafce0f06a,001,3,2025-03-27_19h00.09.209,avatar_quest_3AFC_legacy,2022.1.3,Win32,46.72897196,67e0977dda2e47eafce0f06a,67e5c8c9bc10e40b86efc6fc,67e5d336e5b3671fcdff070d,,,,,,,,,,,,,,,,,,,,,,No Brainslug No Barriers No Money,0,images/assets/snowy_original.jpg,learning,10,images/assets/success.jpg,images/assets/gameover.jpg,,,,,,,,,,,,,0,1,1,10,1,,,,,,,,,,,,,,,,,,,,,,,,,,,,,,,,
,,,,,,,,,,,,67e0977dda2e47eafce0f06a,001,3,2025-03-27_19h00.09.209,avatar_quest_3AFC_legacy,2022.1.3,Win32,46.72897196,67e0977dda2e47eafce0f06a,67e5c8c9bc10e40b86efc6fc,67e5d336e5b3671fcdff070d,,,,,,,,,,,,,,,,,,,,,,With Brainslug Difficult 1 With Money,6,images/assets/snowy_money.jpg,learning,20,images/assets/success_money.jpg,images/assets/gameover.jpg,,,,,,,,,,,,,0,2,2,0,1,,,,,,,,,,,,,,,,,,,,,,,,,,,,,,,,
,,,,,,,,,,,,67e0977dda2e47eafce0f06a,001,3,2025-03-27_19h00.09.209,avatar_quest_3AFC_legacy,2022.1.3,Win32,46.72897196,67e0977dda2e47eafce0f06a,67e5c8c9bc10e40b86efc6fc,67e5d336e5b3671fcdff070d,,,,,,,,,,,,,,,,,,,,,,With Brainslug Difficult 1 No Money,6,images/assets/snowy_original.jpg,learning,20,images/assets/success.jpg,images/assets/gameover.jpg,,,,,,,,,,,,,0,3,3,1,1,,,,,,,,,,,,,,,,,,,,,,,,,,,,,,,,
,,,,,,,,,,,,67e0977dda2e47eafce0f06a,001,3,2025-03-27_19h00.09.209,avatar_quest_3AFC_legacy,2022.1.3,Win32,46.72897196,67e0977dda2e47eafce0f06a,67e5c8c9bc10e40b86efc6fc,67e5d336e5b3671fcdff070d,,,,,,,,,,,,,,,,,,,,,,With Brainslug Difficult 2 No Money,12,images/assets/snowy_original.jpg,learning,20,images/assets/success.jpg,images/assets/gameover.jpg,,,,,,,,,,,,,0,4,4,3,1,,,,,,,,,,,,,,,,,,,,,,,,,,,,,,,,
,,,,,,,,,,,,67e0977dda2e47eafce0f06a,001,3,2025-03-27_19h00.09.209,avatar_quest_3AFC_legacy,2022.1.3,Win32,46.72897196,67e0977dda2e47eafce0f06a,67e5c8c9bc10e40b86efc6fc,67e5d336e5b3671fcdff070d,"[""left"",""right"",""left"",""right""]","[2.6233000001907385,3.5616000001431303,4.62310000014304,5.22760000014307]",,calibration,No Brainslug No Barriers With Money,19,6.6386,6.5478,4,0,1,TRUE,na,na,na,na,,,,,,,,,,,,,,,,,,,,,,,,,,,,,,,,,,0,0,0,0,1,,,,,,,,,,,,,,,,,,,,,,,
,,,,,,,,,,,,67e0977dda2e47eafce0f06a,001,3,2025-03-27_19h00.09.209,avatar_quest_3AFC_legacy,2022.1.3,Win32,46.72897196,67e0977dda2e47eafce0f06a,67e5c8c9bc10e40b86efc6fc,67e5d336e5b3671fcdff070d,,,,,,,,,,,,,,,,,,,,,,No Brainslug No Barriers With Money,0,images/assets/snowy_money.jpg,learning,10,images/assets/success_money.jpg,images/assets/gameover.jpg,,,,,,,,,,,,,0,5,5,9,1,,,,,,,,,,,,,,,,,,,,,,,,,,,,,,,,
,,,,,,,,,,,,67e0977dda2e47eafce0f06a,001,3,2025-03-27_19h00.09.209,avatar_quest_3AFC_legacy,2022.1.3,Win32,46.72897196,67e0977dda2e47eafce0f06a,67e5c8c9bc10e40b86efc6fc,67e5d336e5b3671fcdff070d,,,,,,,,,,,,,,,,,,,,,,With Brainslug No Barriers With Money,0,images/assets/snowy_money.jpg,learning,10,images/assets/success_money.jpg,images/assets/gameover.jpg,,,,,,,,,,,,,0,6,6,4,1,,,,,,,,,,,,,,,,,,,,,,,,,,,,,,,,
,,,,,,,,,,,,67e0977dda2e47eafce0f06a,001,3,2025-03-27_19h00.09.209,avatar_quest_3AFC_legacy,2022.1.3,Win32,46.72897196,67e0977dda2e47eafce0f06a,67e5c8c9bc10e40b86efc6fc,67e5d336e5b3671fcdff070d,,,,,,,,,,,,,,,,,,,,,,No Brainslug Difficult 2 No Money,12,images/assets/snowy_original.jpg,learning,20,images/assets/success.jpg,images/assets/gameover.jpg,,,,,,,,,,,,,0,7,7,8,1,,,,,,,,,,,,,,,,,,,,,,,,,,,,,,,,
,,,,,,,,,,,,67e0977dda2e47eafce0f06a,001,3,2025-03-27_19h00.09.209,avatar_quest_3AFC_legacy,2022.1.3,Win32,46.72897196,67e0977dda2e47eafce0f06a,67e5c8c9bc10e40b86efc6fc,67e5d336e5b3671fcdff070d,,,,,,,,,,,,,,,,,,,,,,With Brainslug Difficult 2 With Money,12,images/assets/snowy_money.jpg,learning,20,images/assets/success_money.jpg,images/assets/gameover.jpg,,,,,,,,,,,,,0,8,8,2,1,,,,,,,,,,,,,,,,,,,,,,,,,,,,,,,,
,,,,,,,,,,,,67e0977dda2e47eafce0f06a,001,3,2025-03-27_19h00.09.209,avatar_quest_3AFC_legacy,2022.1.3,Win32,46.72897196,67e0977dda2e47eafce0f06a,67e5c8c9bc10e40b86efc6fc,67e5d336e5b3671fcdff070d,,,,,,,,,,,,,,,,,,,,,,No Brainslug Difficult 1 No Money,6,images/assets/snowy_original.jpg,learning,20,images/assets/success.jpg,images/assets/gameover.jpg,,,,,,,,,,,,,0,9,9,6,1,,,,,,,,,,,,,,,,,,,,,,,,,,,,,,,,
,,,,,,,,,,,,67e0977dda2e47eafce0f06a,001,3,2025-03-27_19h00.09.209,avatar_quest_3AFC_legacy,2022.1.3,Win32,46.72897196,67e0977dda2e47eafce0f06a,67e5c8c9bc10e40b86efc6fc,67e5d336e5b3671fcdff070d,,,,,,,,,,,,,,,,,,,,,,No Brainslug Difficult 2 With Money,12,images/assets/snowy_money.jpg,learning,20,images/assets/success_money.jpg,images/assets/gameover.jpg,,,,,,,,,,,,,0,10,10,7,1,,,,,,,,,,,,,,,,,,,,,,,,,,,,,,,,
,,,,,,,,,,,,67e0977dda2e47eafce0f06a,001,3,2025-03-27_19h00.09.209,avatar_quest_3AFC_legacy,2022.1.3,Win32,46.72897196,67e0977dda2e47eafce0f06a,67e5c8c9bc10e40b86efc6fc,67e5d336e5b3671fcdff070d,,,,,,,,,,,,,,,,,,,,,,,,,,,,,,,,,,,,,,,,,,,,,,,,,,,,,,,3,0,3,0,1,,,,,,,,,,,,,,,,,,
,,,,,,,,,,,,67e0977dda2e47eafce0f06a,001,3,2025-03-27_19h00.09.209,avatar_quest_3AFC_legacy,2022.1.3,Win32,46.72897196,67e0977dda2e47eafce0f06a,67e5c8c9bc10e40b86efc6fc,67e5d336e5b3671fcdff070d,,,,,,,,,,,,,,,,,,,,,,No Brainslug Difficult 1 No Money,6,images/assets/snowy_original.jpg,learning,20,images/assets/success.jpg,images/assets/gameover.jpg,,,,,,,,No Brainslug No Barriers With Money,No Brainslug No Barriers No Money,right,1.0432,"[""No Brainslug No Barriers No Money"",""No Brainslug Difficult 1 No Money""]",0,0,0,6,1,,,,,,,,,,,,,,,,,,,,,,,,,,,,,,,,
,,,,,,,,,,,,67e0977dda2e47eafce0f06a,001,3,2025-03-27_19h00.09.209,avatar_quest_3AFC_legacy,2022.1.3,Win32,46.72897196,67e0977dda2e47eafce0f06a,67e5c8c9bc10e40b86efc6fc,67e5d336e5b3671fcdff070d,,,,,,,,,,,,,,,,,,,,,,No Brainslug Difficult 2 No Money,12,images/assets/snowy_original.jpg,learning,20,images/assets/success.jpg,images/assets/gameover.jpg,,,,,,,,,,,,,0,1,1,8,1,,,,,,,,,,,,,,,,,,,,,,,,,,,,,,,,
,,,,,,,,,,,,67e0977dda2e47eafce0f06a,001,3,2025-03-27_19h00.09.209,avatar_quest_3AFC_legacy,2022.1.3,Win32,46.72897196,67e0977dda2e47eafce0f06a,67e5c8c9bc10e40b86efc6fc,67e5d336e5b3671fcdff070d,"[""left"",""right"",""right"",""left"",""left""]","[2.5385999999045907,3.808999999999969,5.225399999856904,5.765999999999963,6.454799999952229]",,calibration,No Brainslug No Barriers With Money,20,6.6386,6.6451,5,0,127,FALSE,na,na,na,na,,,,,,,,,,,,,,,,,,,,,,,,,,,,,,,,,,0,0,0,0,1,,,,,,,,,,,,,,,,,,,,,,,
,,,,,,,,,,,,67e0977dda2e47eafce0f06a,001,3,2025-03-27_19h00.09.209,avatar_quest_3AFC_legacy,2022.1.3,Win32,46.72897196,67e0977dda2e47eafce0f06a,67e5c8c9bc10e40b86efc6fc,67e5d336e5b3671fcdff070d,,,,,,,,,,,,,,,,,,,,,,No Brainslug No Barriers With Money,0,images/assets/snowy_money.jpg,learning,10,images/assets/success_money.jpg,images/assets/gameover.jpg,,,,,,,,,,,,,0,2,2,9,1,,,,,,,,,,,,,,,,,,,,,,,,,,,,,,,,
,,,,,,,,,,,,67e0977dda2e47eafce0f06a,001,3,2025-03-27_19h00.09.209,avatar_quest_3AFC_legacy,2022.1.3,Win32,46.72897196,67e0977dda2e47eafce0f06a,67e5c8c9bc10e40b86efc6fc,67e5d336e5b3671fcdff070d,,,,,,,,,,,,,,,,,,,,,,With Brainslug Difficult 1 No Money,6,images/assets/snowy_original.jpg,learning,20,images/assets/success.jpg,images/assets/gameover.jpg,,,,,,,,,,,,,0,3,3,1,1,,,,,,,,,,,,,,,,,,,,,,,,,,,,,,,,
,,,,,,,,,,,,67e0977dda2e47eafce0f06a,001,3,2025-03-27_19h00.09.209,avatar_quest_3AFC_legacy,2022.1.3,Win32,46.72897196,67e0977dda2e47eafce0f06a,67e5c8c9bc10e40b86efc6fc,67e5d336e5b3671fcdff070d,,,,,,,,,,,,,,,,,,,,,,With Brainslug Difficult 2 With Money,12,images/assets/snowy_money.jpg,learning,20,images/assets/success_money.jpg,images/assets/gameover.jpg,,,,,,,,,,,,,0,4,4,2,1,,,,,,,,,,,,,,,,,,,,,,,,,,,,,,,,
