instruction_mouse.x,instruction_mouse.y,instruction_mouse.leftButton,instruction_mouse.midButton,instruction_mouse.rightButton,instruction_mouse.clicked_name,introduce_general.thisRepN,introduce_general.thisTrialN,introduce_general.thisN,introduce_general.thisIndex,introduce_general.ran,thisInstruction,participant,session,game version,date,expName,psychopyVersion,OS,frameRate,PROLIFIC PID,STUDY ID,SESSION ID,move_resp.keys,move_resp.rt,end_resp.keys,phase,condition,trial_num,time_limit,completion_time,left_right_steps,number_of_obsticle_blocks,number_of_tree_blocks,quest_complete,responsivity_summary,av_inter_brainslug_intervals,proportion_jitter,jitter_direction_proportion_right,calibration_phase.thisRepN,calibration_phase.thisTrialN,calibration_phase.thisN,calibration_phase.thisIndex,calibration_phase.ran,BlockLabel,nObsticles,backgroundImage,phaseLabel,n_side_steps,success_im,gameover_im,success_condition,introduce_learning_or_choice.thisRepN,introduce_learning_or_choice.thisTrialN,introduce_learning_or_choice.thisN,introduce_learning_or_choice.thisIndex,introduce_learning_or_choice.ran,choice_resp.keys,chosen_quest,unchosen_quest,choice_resp_3afc.keys,choice_resp_3afc.rt,unchosen_quests,forced_choice_trial.thisRepN,forced_choice_trial.thisTrialN,forced_choice_trial.thisN,forced_choice_trial.thisIndex,forced_choice_trial.ran,enjoyment_slider.response,enjoyment_slider.rt,effort_slider.response,effort_slider.rt,show_loop2.thisRepN,show_loop2.thisTrialN,show_loop2.thisN,show_loop2.thisIndex,show_loop2.ran,trials_per_block.thisRepN,trials_per_block.thisTrialN,trials_per_block.thisN,trials_per_block.thisIndex,trials_per_block.ran,decision_phase_AFC.thisRepN,decision_phase_AFC.thisTrialN,decision_phase_AFC.thisN,decision_phase_AFC.thisIndex,decision_phase_AFC.ran,blockN,BlockLabel1,questIm1,BlockLabel2,questIm2,BlockLabel3,questIm3,quest_condition,showForcedChoice.thisRepN,showForcedChoice.thisTrialN,showForcedChoice.thisN,showForcedChoice.thisIndex,showForcedChoice.ran
0.410185213,-0.401851866,1,0,0,instruction_button,0,0,0,0,1,images/instructions_part1_LSM_taskversion1/Slide1.JPG,67e48a4418f934bfb160fbc2,001,3,2025-03-27_18h40.55.132,avatar_quest_3AFC_legacy,2022.1.3,Win32,61.34969325,67e48a4418f934bfb160fbc2,67e5c8c9bc10e40b86efc6fc,67e5d22468e090a160b596df,,,,,,,,,,,,,,,,,,,,,,,,,,,,,,,,,,,,,,,,,,,,,,,,,,,,,,,,,,,,,,,,,,,,,,,,,,,,,
0.372222194,-0.410185213,1,0,0,instruction_button,0,1,1,1,1,images/instructions_part1_LSM_taskversion1/Slide2.JPG,67e48a4418f934bfb160fbc2,001,3,2025-03-27_18h40.55.132,avatar_quest_3AFC_legacy,2022.1.3,Win32,61.34969325,67e48a4418f934bfb160fbc2,67e5c8c9bc10e40b86efc6fc,67e5d22468e090a160b596df,,,,,,,,,,,,,,,,,,,,,,,,,,,,,,,,,,,,,,,,,,,,,,,,,,,,,,,,,,,,,,,,,,,,,,,,,,,,,
0.385185242,-0.418518561,1,0,0,instruction_button,0,2,2,2,1,images/instructions_part1_LSM_taskversion1/Slide3.JPG,67e48a4418f934bfb160fbc2,001,3,2025-03-27_18h40.55.132,avatar_quest_3AFC_legacy,2022.1.3,Win32,61.34969325,67e48a4418f934bfb160fbc2,67e5c8c9bc10e40b86efc6fc,67e5d22468e090a160b596df,,,,,,,,,,,,,,,,,,,,,,,,,,,,,,,,,,,,,,,,,,,,,,,,,,,,,,,,,,,,,,,,,,,,,,,,,,,,,
0.394444501,-0.417592578,1,0,0,instruction_button,0,3,3,3,1,images/instructions_part1_LSM_taskversion1/Slide3.5.JPG,67e48a4418f934bfb160fbc2,001,3,2025-03-27_18h40.55.132,avatar_quest_3AFC_legacy,2022.1.3,Win32,61.34969325,67e48a4418f934bfb160fbc2,67e5c8c9bc10e40b86efc6fc,67e5d22468e090a160b596df,,,,,,,,,,,,,,,,,,,,,,,,,,,,,,,,,,,,,,,,,,,,,,,,,,,,,,,,,,,,,,,,,,,,,,,,,,,,,
0.402777778,-0.420370384,1,0,0,instruction_button,0,4,4,4,1,images/instructions_part1_LSM_taskversion1/Slide4.JPG,67e48a4418f934bfb160fbc2,001,3,2025-03-27_18h40.55.132,avatar_quest_3AFC_legacy,2022.1.3,Win32,61.34969325,67e48a4418f934bfb160fbc2,67e5c8c9bc10e40b86efc6fc,67e5d22468e090a160b596df,,,,,,,,,,,,,,,,,,,,,,,,,,,,,,,,,,,,,,,,,,,,,,,,,,,,,,,,,,,,,,,,,,,,,,,,,,,,,
0.412963019,-0.408333319,1,0,0,instruction_button,0,5,5,5,1,images/instructions_part1_LSM_taskversion1/Slide6.5.JPG,67e48a4418f934bfb160fbc2,001,3,2025-03-27_18h40.55.132,avatar_quest_3AFC_legacy,2022.1.3,Win32,61.34969325,67e48a4418f934bfb160fbc2,67e5c8c9bc10e40b86efc6fc,67e5d22468e090a160b596df,,,,,,,,,,,,,,,,,,,,,,,,,,,,,,,,,,,,,,,,,,,,,,,,,,,,,,,,,,,,,,,,,,,,,,,,,,,,,
,,,,,,,,,,,,67e48a4418f934bfb160fbc2,001,3,2025-03-27_18h40.55.132,avatar_quest_3AFC_legacy,2022.1.3,Win32,61.34969325,67e48a4418f934bfb160fbc2,67e5c8c9bc10e40b86efc6fc,67e5d22468e090a160b596df,"[""left"",""left"",""left"",""left""]","[2.837099999427778,3.55209999942781,4.132599999427839,4.396799999237032]",,calibration,No Brainslug No Barriers No Money,1,100,5.594099999,3,0,0,TRUE,na,na,na,na,0,0,0,1,1,No Brainslug No Barriers No Money,0,images/assets/snowy_original.jpg,calibration,10,images/assets/success.jpg,images/assets/gameover.jpg,never,,,,,,,,,,,,,,,,,,,,,,,,,,,,,,,,,,,,,,,,,,,,,,,,
,,,,,,,,,,,,67e48a4418f934bfb160fbc2,001,3,2025-03-27_18h40.55.132,avatar_quest_3AFC_legacy,2022.1.3,Win32,61.34969325,67e48a4418f934bfb160fbc2,67e5c8c9bc10e40b86efc6fc,67e5d22468e090a160b596df,"[""right"",""left"",""left"",""right"",""left"",""right""]","[0.07910000038145881,1.6441999998093024,2.4771999998092724,3.7598000001908076,6.263199999809331,6.761900000572268]",,calibration,No Brainslug No Barriers No Money,2,100,7.9037,6,0,150,TRUE,na,na,na,na,0,1,1,0,1,No Brainslug No Barriers No Money,0,images/assets/snowy_original.jpg,calibration,10,images/assets/success.jpg,images/assets/gameover.jpg,never,,,,,,,,,,,,,,,,,,,,,,,,,,,,,,,,,,,,,,,,,,,,,,,,
,,,,,,,,,,,,67e48a4418f934bfb160fbc2,001,3,2025-03-27_18h40.55.132,avatar_quest_3AFC_legacy,2022.1.3,Win32,61.34969325,67e48a4418f934bfb160fbc2,67e5c8c9bc10e40b86efc6fc,67e5d22468e090a160b596df,"[""left"",""right"",""left"",""left"",""left"",""right"",""right"",""right""]","[0.9290000000000873,1.4265000000000327,2.591399999618602,3.125299999237086,3.4745999994278236,4.057199999809313,4.936500000000024,5.294699999809268]",,calibration,No Brainslug No Barriers No Money,3,100,5.5555,8,0,0,TRUE,na,na,na,na,0,2,2,2,1,No Brainslug No Barriers No Money,0,images/assets/snowy_original.jpg,calibration,10,images/assets/success.jpg,images/assets/gameover.jpg,never,,,,,,,,,,,,,,,,,,,,,,,,,,,,,,,,,,,,,,,,,,,,,,,,
0.356481481,-0.409259302,1,0,0,instruction_button,,,,,,images/instructions_part2_LSM_taskversion3.jpg,67e48a4418f934bfb160fbc2,001,3,2025-03-27_18h40.55.132,avatar_quest_3AFC_legacy,2022.1.3,Win32,61.34969325,67e48a4418f934bfb160fbc2,67e5c8c9bc10e40b86efc6fc,67e5d22468e090a160b596df,,,,,,,,,,,,,,,,,,,,,,,,,,,,,,0,0,0,0,1,,,,,,,,,,,,,,,,,,,,,,,,,,,,,,,,,,,,,,,,,,,
,,,,,,,,,,,,67e48a4418f934bfb160fbc2,001,3,2025-03-27_18h40.55.132,avatar_quest_3AFC_legacy,2022.1.3,Win32,61.34969325,67e48a4418f934bfb160fbc2,67e5c8c9bc10e40b86efc6fc,67e5d22468e090a160b596df,,,,,,,,,,,,,,,,,,,,,,With Brainslug No Barriers No Money,0,images/assets/snowy_original.jpg,learning,10,images/assets/success.jpg,images/assets/gameover.jpg,,,,,,,,With Brainslug Difficult 2 With Money,With Brainslug Difficult 1 No Money,right,2.2309,"[""With Brainslug Difficult 1 No Money"",""With Brainslug Difficult 2 No Money""]",0,0,0,5,1,,,,,,,,,,,,,,,,,,,,,,,,,,,,,,,,
,,,,,,,,,,,,67e48a4418f934bfb160fbc2,001,3,2025-03-27_18h40.55.132,avatar_quest_3AFC_legacy,2022.1.3,Win32,61.34969325,67e48a4418f934bfb160fbc2,67e5c8c9bc10e40b86efc6fc,67e5d22468e090a160b596df,,,,,,,,,,,,,,,,,,,,,,With Brainslug Difficult 1 With Money,6,images/assets/snowy_money.jpg,learning,20,images/assets/success_money.jpg,images/assets/gameover.jpg,,,,,,,,,,,,,0,1,1,0,1,,,,,,,,,,,,,,,,,,,,,,,,,,,,,,,,
,,,,,,,,,,,,67e48a4418f934bfb160fbc2,001,3,2025-03-27_18h40.55.132,avatar_quest_3AFC_legacy,2022.1.3,Win32,61.34969325,67e48a4418f934bfb160fbc2,67e5c8c9bc10e40b86efc6fc,67e5d22468e090a160b596df,,,,,,,,,,,,,,,,,,,,,,With Brainslug No Barriers With Money,0,images/assets/snowy_money.jpg,learning,10,images/assets/success_money.jpg,images/assets/gameover.jpg,,,,,,,,,,,,,0,2,2,4,1,,,,,,,,,,,,,,,,,,,,,,,,,,,,,,,,
,,,,,,,,,,,,67e48a4418f934bfb160fbc2,001,3,2025-03-27_18h40.55.132,avatar_quest_3AFC_legacy,2022.1.3,Win32,61.34969325,67e48a4418f934bfb160fbc2,67e5c8c9bc10e40b86efc6fc,67e5d22468e090a160b596df,,,,,,,,,,,,,,,,,,,,,,No Brainslug No Barriers With Money,0,images/assets/snowy_money.jpg,learning,10,images/assets/success_money.jpg,images/assets/gameover.jpg,,,,,,,,,,,,,0,3,3,9,1,,,,,,,,,,,,,,,,,,,,,,,,,,,,,,,,
,,,,,,,,,,,,67e48a4418f934bfb160fbc2,001,3,2025-03-27_18h40.55.132,avatar_quest_3AFC_legacy,2022.1.3,Win32,61.34969325,67e48a4418f934bfb160fbc2,67e5c8c9bc10e40b86efc6fc,67e5d22468e090a160b596df,,,,,,,,,,,,,,,,,,,,,,No Brainslug No Barriers No Money,0,images/assets/snowy_original.jpg,learning,10,images/assets/success.jpg,images/assets/gameover.jpg,,,,,,,,,,,,,0,4,4,10,1,,,,,,,,,,,,,,,,,,,,,,,,,,,,,,,,
,,,,,,,,,,,,67e48a4418f934bfb160fbc2,001,3,2025-03-27_18h40.55.132,avatar_quest_3AFC_legacy,2022.1.3,Win32,61.34969325,67e48a4418f934bfb160fbc2,67e5c8c9bc10e40b86efc6fc,67e5d22468e090a160b596df,,,,,,,,,,,,,,,,,,,,,,No Brainslug Difficult 1 No Money,6,images/assets/snowy_original.jpg,learning,20,images/assets/success.jpg,images/assets/gameover.jpg,,,,,,,,,,,,,0,5,5,6,1,,,,,,,,,,,,,,,,,,,,,,,,,,,,,,,,
,,,,,,,,,,,,67e48a4418f934bfb160fbc2,001,3,2025-03-27_18h40.55.132,avatar_quest_3AFC_legacy,2022.1.3,Win32,61.34969325,67e48a4418f934bfb160fbc2,67e5c8c9bc10e40b86efc6fc,67e5d22468e090a160b596df,,,,,,,,,,,,,,,,,,,,,,With Brainslug Difficult 2 No Money,12,images/assets/snowy_original.jpg,learning,20,images/assets/success.jpg,images/assets/gameover.jpg,,,,,,,,,,,,,0,6,6,3,1,,,,,,,,,,,,,,,,,,,,,,,,,,,,,,,,
,,,,,,,,,,,,67e48a4418f934bfb160fbc2,001,3,2025-03-27_18h40.55.132,avatar_quest_3AFC_legacy,2022.1.3,Win32,61.34969325,67e48a4418f934bfb160fbc2,67e5c8c9bc10e40b86efc6fc,67e5d22468e090a160b596df,,,,,,,,,,,,,,,,,,,,,,With Brainslug Difficult 1 No Money,6,images/assets/snowy_original.jpg,learning,20,images/assets/success.jpg,images/assets/gameover.jpg,,,,,,,,,,,,,0,7,7,1,1,,,,,,,,,,,,,,,,,,,,,,,,,,,,,,,,
,,,,,,,,,,,,67e48a4418f934bfb160fbc2,001,3,2025-03-27_18h40.55.132,avatar_quest_3AFC_legacy,2022.1.3,Win32,61.34969325,67e48a4418f934bfb160fbc2,67e5c8c9bc10e40b86efc6fc,67e5d22468e090a160b596df,,,,,,,,,,,,,,,,,,,,,,No Brainslug Difficult 2 No Money,12,images/assets/snowy_original.jpg,learning,20,images/assets/success.jpg,images/assets/gameover.jpg,,,,,,,,,,,,,0,8,8,8,1,,,,,,,,,,,,,,,,,,,,,,,,,,,,,,,,
,,,,,,,,,,,,67e48a4418f934bfb160fbc2,001,3,2025-03-27_18h40.55.132,avatar_quest_3AFC_legacy,2022.1.3,Win32,61.34969325,67e48a4418f934bfb160fbc2,67e5c8c9bc10e40b86efc6fc,67e5d22468e090a160b596df,"[""right"",""right"",""left"",""right"",""left"",""left""]","[1.5506000003815643,3.1893000001907694,3.7698999996185876,4.580600000381537,6.528800000190813,8.970699999809312]",,calibration,With Brainslug Difficult 2 With Money,4,9.52665,9.529900001,4,7,0,FALSE,na,na,na,na,,,,,,,,,,,,,,,,,,,,,,,,,,,,,,,,,,0,0,0,0,1,,,,,,,,,,,,,,,,,,,,,,,
,,,,,,,,,,,,67e48a4418f934bfb160fbc2,001,3,2025-03-27_18h40.55.132,avatar_quest_3AFC_legacy,2022.1.3,Win32,61.34969325,67e48a4418f934bfb160fbc2,67e5c8c9bc10e40b86efc6fc,67e5d22468e090a160b596df,,,,,,,,,,,,,,,,,,,,,,With Brainslug Difficult 2 With Money,12,images/assets/snowy_money.jpg,learning,20,images/assets/success_money.jpg,images/assets/gameover.jpg,,,,,,,,,,,,,0,9,9,2,1,,,,,,,,,,,,,,,,,,,,,,,,,,,,,,,,
,,,,,,,,,,,,67e48a4418f934bfb160fbc2,001,3,2025-03-27_18h40.55.132,avatar_quest_3AFC_legacy,2022.1.3,Win32,61.34969325,67e48a4418f934bfb160fbc2,67e5c8c9bc10e40b86efc6fc,67e5d22468e090a160b596df,,,,,,,,,,,,,,,,,,,,,,No Brainslug Difficult 2 With Money,12,images/assets/snowy_money.jpg,learning,20,images/assets/success_money.jpg,images/assets/gameover.jpg,,,,,,,,,,,,,0,10,10,7,1,,,,,,,,,,,,,,,,,,,,,,,,,,,,,,,,
,,,,,,,,,,,,67e48a4418f934bfb160fbc2,001,3,2025-03-27_18h40.55.132,avatar_quest_3AFC_legacy,2022.1.3,Win32,61.34969325,67e48a4418f934bfb160fbc2,67e5c8c9bc10e40b86efc6fc,67e5d22468e090a160b596df,,,,,,,,,,,,,,,,,,,,,,,,,,,,,,,,,,,,,,,,,,,,,,,,,,,,,,,0,0,0,0,1,,,,,,,,,,,,,,,,,,
,,,,,,,,,,,,67e48a4418f934bfb160fbc2,001,3,2025-03-27_18h40.55.132,avatar_quest_3AFC_legacy,2022.1.3,Win32,61.34969325,67e48a4418f934bfb160fbc2,67e5c8c9bc10e40b86efc6fc,67e5d22468e090a160b596df,,,,,,,,,,,,,,,,,,,,,,No Brainslug Difficult 2 No Money,12,images/assets/snowy_original.jpg,learning,20,images/assets/success.jpg,images/assets/gameover.jpg,,,,,,,,With Brainslug Difficult 2 With Money,With Brainslug Difficult 1 No Money,right,3.0295,"[""With Brainslug Difficult 1 No Money"",""With Brainslug Difficult 2 No Money""]",0,0,0,8,1,,,,,,,,,,,,,,,,,,,,,,,,,,,,,,,,
,,,,,,,,,,,,67e48a4418f934bfb160fbc2,001,3,2025-03-27_18h40.55.132,avatar_quest_3AFC_legacy,2022.1.3,Win32,61.34969325,67e48a4418f934bfb160fbc2,67e5c8c9bc10e40b86efc6fc,67e5d22468e090a160b596df,"[""right"",""right"",""right""]","[4.109699999809322,7.419300000190788,9.098099999427859]",,calibration,With Brainslug Difficult 2 With Money,5,9.52665,9.5303,2,4,0,FALSE,na,na,na,na,,,,,,,,,,,,,,,,,,,,,,,,,,,,,,,,,,0,0,0,0,1,,,,,,,,,,,,,,,,,,,,,,,
,,,,,,,,,,,,67e48a4418f934bfb160fbc2,001,3,2025-03-27_18h40.55.132,avatar_quest_3AFC_legacy,2022.1.3,Win32,61.34969325,67e48a4418f934bfb160fbc2,67e5c8c9bc10e40b86efc6fc,67e5d22468e090a160b596df,,,,,,,,,,,,,,,,,,,,,,With Brainslug Difficult 2 With Money,12,images/assets/snowy_money.jpg,learning,20,images/assets/success_money.jpg,images/assets/gameover.jpg,,,,,,,,,,,,,0,1,1,2,1,,,,,,,,,,,,,,,,,,,,,,,,,,,,,,,,
,,,,,,,,,,,,67e48a4418f934bfb160fbc2,001,3,2025-03-27_18h40.55.132,avatar_quest_3AFC_legacy,2022.1.3,Win32,61.34969325,67e48a4418f934bfb160fbc2,67e5c8c9bc10e40b86efc6fc,67e5d22468e090a160b596df,,,,,,,,,,,,,,,,,,,,,,With Brainslug Difficult 2 No Money,12,images/assets/snowy_original.jpg,learning,20,images/assets/success.jpg,images/assets/gameover.jpg,,,,,,,,,,,,,0,2,2,3,1,,,,,,,,,,,,,,,,,,,,,,,,,,,,,,,,
,,,,,,,,,,,,67e48a4418f934bfb160fbc2,001,3,2025-03-27_18h40.55.132,avatar_quest_3AFC_legacy,2022.1.3,Win32,61.34969325,67e48a4418f934bfb160fbc2,67e5c8c9bc10e40b86efc6fc,67e5d22468e090a160b596df,,,,,,,,,,,,,,,,,,,,,,No Brainslug Difficult 2 With Money,12,images/assets/snowy_money.jpg,learning,20,images/assets/success_money.jpg,images/assets/gameover.jpg,,,,,,,,,,,,,0,3,3,7,1,,,,,,,,,,,,,,,,,,,,,,,,,,,,,,,,
,,,,,,,,,,,,67e48a4418f934bfb160fbc2,001,3,2025-03-27_18h40.55.132,avatar_quest_3AFC_legacy,2022.1.3,Win32,61.34969325,67e48a4418f934bfb160fbc2,67e5c8c9bc10e40b86efc6fc,67e5d22468e090a160b596df,,,,,,,,,,,,,,,,,,,,,,With Brainslug No Barriers No Money,0,images/assets/snowy_original.jpg,learning,10,images/assets/success.jpg,images/assets/gameover.jpg,,,,,,,,,,,,,0,4,4,5,1,,,,,,,,,,,,,,,,,,,,,,,,,,,,,,,,
,,,,,,,,,,,,67e48a4418f934bfb160fbc2,001,3,2025-03-27_18h40.55.132,avatar_quest_3AFC_legacy,2022.1.3,Win32,61.34969325,67e48a4418f934bfb160fbc2,67e5c8c9bc10e40b86efc6fc,67e5d22468e090a160b596df,,,,,,,,,,,,,,,,,,,,,,No Brainslug No Barriers With Money,0,images/assets/snowy_money.jpg,learning,10,images/assets/success_money.jpg,images/assets/gameover.jpg,,,,,,,,,,,,,0,5,5,9,1,,,,,,,,,,,,,,,,,,,,,,,,,,,,,,,,
,,,,,,,,,,,,67e48a4418f934bfb160fbc2,001,3,2025-03-27_18h40.55.132,avatar_quest_3AFC_legacy,2022.1.3,Win32,61.34969325,67e48a4418f934bfb160fbc2,67e5c8c9bc10e40b86efc6fc,67e5d22468e090a160b596df,,,,,,,,,,,,,,,,,,,,,,With Brainslug Difficult 1 With Money,6,images/assets/snowy_money.jpg,learning,20,images/assets/success_money.jpg,images/assets/gameover.jpg,,,,,,,,,,,,,0,6,6,0,1,,,,,,,,,,,,,,,,,,,,,,,,,,,,,,,,
,,,,,,,,,,,,67e48a4418f934bfb160fbc2,001,3,2025-03-27_18h40.55.132,avatar_quest_3AFC_legacy,2022.1.3,Win32,61.34969325,67e48a4418f934bfb160fbc2,67e5c8c9bc10e40b86efc6fc,67e5d22468e090a160b596df,,,,,,,,,,,,,,,,,,,,,,With Brainslug Difficult 1 No Money,6,images/assets/snowy_original.jpg,learning,20,images/assets/success.jpg,images/assets/gameover.jpg,,,,,,,,,,,,,0,7,7,1,1,,,,,,,,,,,,,,,,,,,,,,,,,,,,,,,,
,,,,,,,,,,,,67e48a4418f934bfb160fbc2,001,3,2025-03-27_18h40.55.132,avatar_quest_3AFC_legacy,2022.1.3,Win32,61.34969325,67e48a4418f934bfb160fbc2,67e5c8c9bc10e40b86efc6fc,67e5d22468e090a160b596df,,,,,,,,,,,,,,,,,,,,,,With Brainslug No Barriers With Money,0,images/assets/snowy_money.jpg,learning,10,images/assets/success_money.jpg,images/assets/gameover.jpg,,,,,,,,,,,,,0,8,8,4,1,,,,,,,,,,,,,,,,,,,,,,,,,,,,,,,,
,,,,,,,,,,,,67e48a4418f934bfb160fbc2,001,3,2025-03-27_18h40.55.132,avatar_quest_3AFC_legacy,2022.1.3,Win32,61.34969325,67e48a4418f934bfb160fbc2,67e5c8c9bc10e40b86efc6fc,67e5d22468e090a160b596df,,,,,,,,,,,,,,,,,,,,,,No Brainslug Difficult 1 No Money,6,images/assets/snowy_original.jpg,learning,20,images/assets/success.jpg,images/assets/gameover.jpg,,,,,,,,,,,,,0,9,9,6,1,,,,,,,,,,,,,,,,,,,,,,,,,,,,,,,,
,,,,,,,,,,,,67e48a4418f934bfb160fbc2,001,3,2025-03-27_18h40.55.132,avatar_quest_3AFC_legacy,2022.1.3,Win32,61.34969325,67e48a4418f934bfb160fbc2,67e5c8c9bc10e40b86efc6fc,67e5d22468e090a160b596df,,,,,,,,,,,,,,,,,,,,,,No Brainslug No Barriers No Money,0,images/assets/snowy_original.jpg,learning,10,images/assets/success.jpg,images/assets/gameover.jpg,,,,,,,,,,,,,0,10,10,10,1,,,,,,,,,,,,,,,,,,,,,,,,,,,,,,,,
,,,,,,,,,,,,67e48a4418f934bfb160fbc2,001,3,2025-03-27_18h40.55.132,avatar_quest_3AFC_legacy,2022.1.3,Win32,61.34969325,67e48a4418f934bfb160fbc2,67e5c8c9bc10e40b86efc6fc,67e5d22468e090a160b596df,,,,,,,,,,,,,,,,,,,,,,,,,,,,,,,,,,,,,,,,,,,,,,,,,,,,,,,1,0,1,0,1,,,,,,,,,,,,,,,,,,
,,,,,,,,,,,,67e48a4418f934bfb160fbc2,001,3,2025-03-27_18h40.55.132,avatar_quest_3AFC_legacy,2022.1.3,Win32,61.34969325,67e48a4418f934bfb160fbc2,67e5c8c9bc10e40b86efc6fc,67e5d22468e090a160b596df,,,,,,,,,,,,,,,,,,,,,,With Brainslug Difficult 2 No Money,12,images/assets/snowy_original.jpg,learning,20,images/assets/success.jpg,images/assets/gameover.jpg,,,,,,,,With Brainslug Difficult 2 With Money,With Brainslug Difficult 1 No Money,right,4.2765,"[""With Brainslug Difficult 1 No Money"",""With Brainslug Difficult 2 No Money""]",0,0,0,3,1,,,,,,,,,,,,,,,,,,,,,,,,,,,,,,,,
,,,,,,,,,,,,67e48a4418f934bfb160fbc2,001,3,2025-03-27_18h40.55.132,avatar_quest_3AFC_legacy,2022.1.3,Win32,61.34969325,67e48a4418f934bfb160fbc2,67e5c8c9bc10e40b86efc6fc,67e5d22468e090a160b596df,"[""left"",""right"",""left"",""right"",""left"",""right"",""right"",""left"",""right""]","[1.9428000001906867,2.694800000190753,3.3579999999999472,4.1406000003814825,5.410800000190761,6.100100000381417,7.288700000762901,8.453100000381482,9.240000000000009]",,calibration,With Brainslug Difficult 2 With Money,6,9.52665,9.5317,7,8,0,FALSE,na,na,na,na,,,,,,,,,,,,,,,,,,,,,,,,,,,,,,,,,,0,0,0,0,1,,,,,,,,,,,,,,,,,,,,,,,
,,,,,,,,,,,,67e48a4418f934bfb160fbc2,001,3,2025-03-27_18h40.55.132,avatar_quest_3AFC_legacy,2022.1.3,Win32,61.34969325,67e48a4418f934bfb160fbc2,67e5c8c9bc10e40b86efc6fc,67e5d22468e090a160b596df,,,,,,,,,,,,,,,,,,,,,,With Brainslug Difficult 2 With Money,12,images/assets/snowy_money.jpg,learning,20,images/assets/success_money.jpg,images/assets/gameover.jpg,,,,,,,,,,,,,0,1,1,2,1,,,,,,,,,,,,,,,,,,,,,,,,,,,,,,,,
,,,,,,,,,,,,67e48a4418f934bfb160fbc2,001,3,2025-03-27_18h40.55.132,avatar_quest_3AFC_legacy,2022.1.3,Win32,61.34969325,67e48a4418f934bfb160fbc2,67e5c8c9bc10e40b86efc6fc,67e5d22468e090a160b596df,,,,,,,,,,,,,,,,,,,,,,No Brainslug Difficult 2 No Money,12,images/assets/snowy_original.jpg,learning,20,images/assets/success.jpg,images/assets/gameover.jpg,,,,,,,,,,,,,0,2,2,8,1,,,,,,,,,,,,,,,,,,,,,,,,,,,,,,,,
,,,,,,,,,,,,67e48a4418f934bfb160fbc2,001,3,2025-03-27_18h40.55.132,avatar_quest_3AFC_legacy,2022.1.3,Win32,61.34969325,67e48a4418f934bfb160fbc2,67e5c8c9bc10e40b86efc6fc,67e5d22468e090a160b596df,,,,,,,,,,,,,,,,,,,,,,No Brainslug Difficult 2 With Money,12,images/assets/snowy_money.jpg,learning,20,images/assets/success_money.jpg,images/assets/gameover.jpg,,,,,,,,,,,,,0,3,3,7,1,,,,,,,,,,,,,,,,,,,,,,,,,,,,,,,,
,,,,,,,,,,,,67e48a4418f934bfb160fbc2,001,3,2025-03-27_18h40.55.132,avatar_quest_3AFC_legacy,2022.1.3,Win32,61.34969325,67e48a4418f934bfb160fbc2,67e5c8c9bc10e40b86efc6fc,67e5d22468e090a160b596df,,,,,,,,,,,,,,,,,,,,,,No Brainslug No Barriers With Money,0,images/assets/snowy_money.jpg,learning,10,images/assets/success_money.jpg,images/assets/gameover.jpg,,,,,,,,,,,,,0,4,4,9,1,,,,,,,,,,,,,,,,,,,,,,,,,,,,,,,,
,,,,,,,,,,,,67e48a4418f934bfb160fbc2,001,3,2025-03-27_18h40.55.132,avatar_quest_3AFC_legacy,2022.1.3,Win32,61.34969325,67e48a4418f934bfb160fbc2,67e5c8c9bc10e40b86efc6fc,67e5d22468e090a160b596df,,,,,,,,,,,,,,,,,,,,,,No Brainslug No Barriers No Money,0,images/assets/snowy_original.jpg,learning,10,images/assets/success.jpg,images/assets/gameover.jpg,,,,,,,,,,,,,0,5,5,10,1,,,,,,,,,,,,,,,,,,,,,,,,,,,,,,,,
,,,,,,,,,,,,67e48a4418f934bfb160fbc2,001,3,2025-03-27_18h40.55.132,avatar_quest_3AFC_legacy,2022.1.3,Win32,61.34969325,67e48a4418f934bfb160fbc2,67e5c8c9bc10e40b86efc6fc,67e5d22468e090a160b596df,,,,,,,,,,,,,,,,,,,,,,With Brainslug Difficult 1 No Money,6,images/assets/snowy_original.jpg,learning,20,images/assets/success.jpg,images/assets/gameover.jpg,,,,,,,,,,,,,0,6,6,1,1,,,,,,,,,,,,,,,,,,,,,,,,,,,,,,,,
,,,,,,,,,,,,67e48a4418f934bfb160fbc2,001,3,2025-03-27_18h40.55.132,avatar_quest_3AFC_legacy,2022.1.3,Win32,61.34969325,67e48a4418f934bfb160fbc2,67e5c8c9bc10e40b86efc6fc,67e5d22468e090a160b596df,,,,,,,,,,,,,,,,,,,,,,No Brainslug Difficult 1 No Money,6,images/assets/snowy_original.jpg,learning,20,images/assets/success.jpg,images/assets/gameover.jpg,,,,,,,,,,,,,0,7,7,6,1,,,,,,,,,,,,,,,,,,,,,,,,,,,,,,,,
,,,,,,,,,,,,67e48a4418f934bfb160fbc2,001,3,2025-03-27_18h40.55.132,avatar_quest_3AFC_legacy,2022.1.3,Win32,61.34969325,67e48a4418f934bfb160fbc2,67e5c8c9bc10e40b86efc6fc,67e5d22468e090a160b596df,,,,,,,,,,,,,,,,,,,,,,With Brainslug Difficult 1 With Money,6,images/assets/snowy_money.jpg,learning,20,images/assets/success_money.jpg,images/assets/gameover.jpg,,,,,,,,,,,,,0,8,8,0,1,,,,,,,,,,,,,,,,,,,,,,,,,,,,,,,,
,,,,,,,,,,,,67e48a4418f934bfb160fbc2,001,3,2025-03-27_18h40.55.132,avatar_quest_3AFC_legacy,2022.1.3,Win32,61.34969325,67e48a4418f934bfb160fbc2,67e5c8c9bc10e40b86efc6fc,67e5d22468e090a160b596df,,,,,,,,,,,,,,,,,,,,,,With Brainslug No Barriers No Money,0,images/assets/snowy_original.jpg,learning,10,images/assets/success.jpg,images/assets/gameover.jpg,,,,,,,,,,,,,0,9,9,5,1,,,,,,,,,,,,,,,,,,,,,,,,,,,,,,,,
,,,,,,,,,,,,67e48a4418f934bfb160fbc2,001,3,2025-03-27_18h40.55.132,avatar_quest_3AFC_legacy,2022.1.3,Win32,61.34969325,67e48a4418f934bfb160fbc2,67e5c8c9bc10e40b86efc6fc,67e5d22468e090a160b596df,,,,,,,,,,,,,,,,,,,,,,With Brainslug No Barriers With Money,0,images/assets/snowy_money.jpg,learning,10,images/assets/success_money.jpg,images/assets/gameover.jpg,,,,,,,,,,,,,0,10,10,4,1,,,,,,,,,,,,,,,,,,,,,,,,,,,,,,,,
,,,,,,,,,,,,67e48a4418f934bfb160fbc2,001,3,2025-03-27_18h40.55.132,avatar_quest_3AFC_legacy,2022.1.3,Win32,61.34969325,67e48a4418f934bfb160fbc2,67e5c8c9bc10e40b86efc6fc,67e5d22468e090a160b596df,,,,,,,,,,,,,,,,,,,,,,,,,,,,,,,,,,,,,,,,,,,,,,,,,,,,,,,2,0,2,0,1,,,,,,,,,,,,,,,,,,
,,,,,,,,,,,,67e48a4418f934bfb160fbc2,001,3,2025-03-27_18h40.55.132,avatar_quest_3AFC_legacy,2022.1.3,Win32,61.34969325,67e48a4418f934bfb160fbc2,67e5c8c9bc10e40b86efc6fc,67e5d22468e090a160b596df,"[""left"",""right"",""right"",""left"",""up""]","[2.2687000007629194,3.4627000007628794,5.727900000572163,6.676300000190736,8.879600000381402]",,calibration,With Brainslug Difficult 1 No Money,7,9.52665,9.5296,1,2,0,FALSE,na,na,na,na,,,,,,,,,,,,,,,,,,,,With Brainslug Difficult 1 No Money,With Brainslug Difficult 1 No Money,left,3.0934,"[""With Brainslug Difficult 2 No Money"",""With Brainslug Difficult 2 With Money""]",,,,,,,,,,0,0,0,0,1,,,,,,,,,,,,,,,,,,,,,,,
,,,,,,,,,,,,67e48a4418f934bfb160fbc2,001,3,2025-03-27_18h40.55.132,avatar_quest_3AFC_legacy,2022.1.3,Win32,61.34969325,67e48a4418f934bfb160fbc2,67e5c8c9bc10e40b86efc6fc,67e5d22468e090a160b596df,,,,,,,,,,,,,,,,,,,,,,With Brainslug Difficult 1 No Money,6,images/assets/snowy_original.jpg,learning,20,images/assets/success.jpg,images/assets/gameover.jpg,,,,,,,,,,,,,0,0,0,1,1,,,,,,,,,,,,,,,,,,,,,,,,,,,,,,,,
,,,,,,,,,,,,67e48a4418f934bfb160fbc2,001,3,2025-03-27_18h40.55.132,avatar_quest_3AFC_legacy,2022.1.3,Win32,61.34969325,67e48a4418f934bfb160fbc2,67e5c8c9bc10e40b86efc6fc,67e5d22468e090a160b596df,,,,,,,,,,,,,,,,,,,,,,With Brainslug No Barriers No Money,0,images/assets/snowy_original.jpg,learning,10,images/assets/success.jpg,images/assets/gameover.jpg,,,,,,,,,,,,,0,1,1,5,1,,,,,,,,,,,,,,,,,,,,,,,,,,,,,,,,
,,,,,,,,,,,,67e48a4418f934bfb160fbc2,001,3,2025-03-27_18h40.55.132,avatar_quest_3AFC_legacy,2022.1.3,Win32,61.34969325,67e48a4418f934bfb160fbc2,67e5c8c9bc10e40b86efc6fc,67e5d22468e090a160b596df,,,,,,,,,,,,,,,,,,,,,,No Brainslug No Barriers No Money,0,images/assets/snowy_original.jpg,learning,10,images/assets/success.jpg,images/assets/gameover.jpg,,,,,,,,,,,,,0,2,2,10,1,,,,,,,,,,,,,,,,,,,,,,,,,,,,,,,,
,,,,,,,,,,,,67e48a4418f934bfb160fbc2,001,3,2025-03-27_18h40.55.132,avatar_quest_3AFC_legacy,2022.1.3,Win32,61.34969325,67e48a4418f934bfb160fbc2,67e5c8c9bc10e40b86efc6fc,67e5d22468e090a160b596df,,,,,,,,,,,,,,,,,,,,,,No Brainslug Difficult 2 No Money,12,images/assets/snowy_original.jpg,learning,20,images/assets/success.jpg,images/assets/gameover.jpg,,,,,,,,,,,,,0,3,3,8,1,,,,,,,,,,,,,,,,,,,,,,,,,,,,,,,,
,,,,,,,,,,,,67e48a4418f934bfb160fbc2,001,3,2025-03-27_18h40.55.132,avatar_quest_3AFC_legacy,2022.1.3,Win32,61.34969325,67e48a4418f934bfb160fbc2,67e5c8c9bc10e40b86efc6fc,67e5d22468e090a160b596df,,,,,,,,,,,,,,,,,,,,,,With Brainslug No Barriers With Money,0,images/assets/snowy_money.jpg,learning,10,images/assets/success_money.jpg,images/assets/gameover.jpg,,,,,,,,,,,,,0,4,4,4,1,,,,,,,,,,,,,,,,,,,,,,,,,,,,,,,,
,,,,,,,,,,,,67e48a4418f934bfb160fbc2,001,3,2025-03-27_18h40.55.132,avatar_quest_3AFC_legacy,2022.1.3,Win32,61.34969325,67e48a4418f934bfb160fbc2,67e5c8c9bc10e40b86efc6fc,67e5d22468e090a160b596df,,,,,,,,,,,,,,,,,,,,,,No Brainslug Difficult 2 With Money,12,images/assets/snowy_money.jpg,learning,20,images/assets/success_money.jpg,images/assets/gameover.jpg,,,,,,,,,,,,,0,5,5,7,1,,,,,,,,,,,,,,,,,,,,,,,,,,,,,,,,
,,,,,,,,,,,,67e48a4418f934bfb160fbc2,001,3,2025-03-27_18h40.55.132,avatar_quest_3AFC_legacy,2022.1.3,Win32,61.34969325,67e48a4418f934bfb160fbc2,67e5c8c9bc10e40b86efc6fc,67e5d22468e090a160b596df,,,,,,,,,,,,,,,,,,,,,,With Brainslug Difficult 2 With Money,12,images/assets/snowy_money.jpg,learning,20,images/assets/success_money.jpg,images/assets/gameover.jpg,,,,,,,,,,,,,0,6,6,2,1,,,,,,,,,,,,,,,,,,,,,,,,,,,,,,,,
,,,,,,,,,,,,67e48a4418f934bfb160fbc2,001,3,2025-03-27_18h40.55.132,avatar_quest_3AFC_legacy,2022.1.3,Win32,61.34969325,67e48a4418f934bfb160fbc2,67e5c8c9bc10e40b86efc6fc,67e5d22468e090a160b596df,,,,,,,,,,,,,,,,,,,,,,No Brainslug No Barriers With Money,0,images/assets/snowy_money.jpg,learning,10,images/assets/success_money.jpg,images/assets/gameover.jpg,,,,,,,,,,,,,0,7,7,9,1,,,,,,,,,,,,,,,,,,,,,,,,,,,,,,,,
,,,,,,,,,,,,67e48a4418f934bfb160fbc2,001,3,2025-03-27_18h40.55.132,avatar_quest_3AFC_legacy,2022.1.3,Win32,61.34969325,67e48a4418f934bfb160fbc2,67e5c8c9bc10e40b86efc6fc,67e5d22468e090a160b596df,,,,,,,,,,,,,,,,,,,,,,With Brainslug Difficult 1 With Money,6,images/assets/snowy_money.jpg,learning,20,images/assets/success_money.jpg,images/assets/gameover.jpg,,,,,,,,,,,,,0,8,8,0,1,,,,,,,,,,,,,,,,,,,,,,,,,,,,,,,,
,,,,,,,,,,,,67e48a4418f934bfb160fbc2,001,3,2025-03-27_18h40.55.132,avatar_quest_3AFC_legacy,2022.1.3,Win32,61.34969325,67e48a4418f934bfb160fbc2,67e5c8c9bc10e40b86efc6fc,67e5d22468e090a160b596df,,,,,,,,,,,,,,,,,,,,,,No Brainslug Difficult 1 No Money,6,images/assets/snowy_original.jpg,learning,20,images/assets/success.jpg,images/assets/gameover.jpg,,,,,,,,,,,,,0,9,9,6,1,,,,,,,,,,,,,,,,,,,,,,,,,,,,,,,,
,,,,,,,,,,,,67e48a4418f934bfb160fbc2,001,3,2025-03-27_18h40.55.132,avatar_quest_3AFC_legacy,2022.1.3,Win32,61.34969325,67e48a4418f934bfb160fbc2,67e5c8c9bc10e40b86efc6fc,67e5d22468e090a160b596df,,,,,,,,,,,,,,,,,,,,,,With Brainslug Difficult 2 No Money,12,images/assets/snowy_original.jpg,learning,20,images/assets/success.jpg,images/assets/gameover.jpg,,,,,,,,,,,,,0,10,10,3,1,,,,,,,,,,,,,,,,,,,,,,,,,,,,,,,,
,,,,,,,,,,,,67e48a4418f934bfb160fbc2,001,3,2025-03-27_18h40.55.132,avatar_quest_3AFC_legacy,2022.1.3,Win32,61.34969325,67e48a4418f934bfb160fbc2,67e5c8c9bc10e40b86efc6fc,67e5d22468e090a160b596df,,,,,,,,,,,,,,,,,,,,,,,,,,,,,,,,,,,,,,,,,,,,,,,,,,,,,,,3,0,3,0,1,,,,,,,,,,,,,,,,,,
,,,,,,,,,,,,67e48a4418f934bfb160fbc2,001,3,2025-03-27_18h40.55.132,avatar_quest_3AFC_legacy,2022.1.3,Win32,61.34969325,67e48a4418f934bfb160fbc2,67e5c8c9bc10e40b86efc6fc,67e5d22468e090a160b596df,,,,,,,,,,,,,,,,,,,,,,No Brainslug No Barriers No Money,0,images/assets/snowy_original.jpg,learning,10,images/assets/success.jpg,images/assets/gameover.jpg,,,,,,,,With Brainslug Difficult 2 With Money,With Brainslug Difficult 1 No Money,right,3.6024,"[""With Brainslug Difficult 1 No Money"",""With Brainslug Difficult 2 No Money""]",0,0,0,10,1,,,,,,,,,,,,,,,,,,,,,,,,,,,,,,,,
,,,,,,,,,,,,67e48a4418f934bfb160fbc2,001,3,2025-03-27_18h40.55.132,avatar_quest_3AFC_legacy,2022.1.3,Win32,61.34969325,67e48a4418f934bfb160fbc2,67e5c8c9bc10e40b86efc6fc,67e5d22468e090a160b596df,,,,,,,,,,,,,,,,,,,,,,With Brainslug Difficult 1 With Money,6,images/assets/snowy_money.jpg,learning,20,images/assets/success_money.jpg,images/assets/gameover.jpg,,,,,,,,,,,,,0,1,1,0,1,,,,,,,,,,,,,,,,,,,,,,,,,,,,,,,,
,,,,,,,,,,,,67e48a4418f934bfb160fbc2,001,3,2025-03-27_18h40.55.132,avatar_quest_3AFC_legacy,2022.1.3,Win32,61.34969325,67e48a4418f934bfb160fbc2,67e5c8c9bc10e40b86efc6fc,67e5d22468e090a160b596df,,,,,,,,,,,,,,,,,,,,,,With Brainslug Difficult 1 No Money,6,images/assets/snowy_original.jpg,learning,20,images/assets/success.jpg,images/assets/gameover.jpg,,,,,,,,,,,,,0,2,2,1,1,,,,,,,,,,,,,,,,,,,,,,,,,,,,,,,,
,,,,,,,,,,,,67e48a4418f934bfb160fbc2,001,3,2025-03-27_18h40.55.132,avatar_quest_3AFC_legacy,2022.1.3,Win32,61.34969325,67e48a4418f934bfb160fbc2,67e5c8c9bc10e40b86efc6fc,67e5d22468e090a160b596df,,,,,,,,,,,,,,,,,,,,,,With Brainslug Difficult 2 No Money,12,images/assets/snowy_original.jpg,learning,20,images/assets/success.jpg,images/assets/gameover.jpg,,,,,,,,,,,,,0,3,3,3,1,,,,,,,,,,,,,,,,,,,,,,,,,,,,,,,,
,,,,,,,,,,,,67e48a4418f934bfb160fbc2,001,3,2025-03-27_18h40.55.132,avatar_quest_3AFC_legacy,2022.1.3,Win32,61.34969325,67e48a4418f934bfb160fbc2,67e5c8c9bc10e40b86efc6fc,67e5d22468e090a160b596df,"[""right"",""left"",""right"",""right"",""right"",""right"",""left"",""left"",""left"",""right""]","[2.06899999999996,3.7026999998092833,4.684600000381465,5.50290000057214,6.264900000572197,6.583600000381466,7.42349999999999,8.021400000572157,8.464199999809239,9.227600000381472]",,calibration,With Brainslug Difficult 2 With Money,8,9.52665,9.537400001,9,6,0,FALSE,na,na,na,na,,,,,,,,,,,,,,,,,,,,,,,,,,,,,,,,,,0,0,0,0,1,,,,,,,,,,,,,,,,,,,,,,,
,,,,,,,,,,,,67e48a4418f934bfb160fbc2,001,3,2025-03-27_18h40.55.132,avatar_quest_3AFC_legacy,2022.1.3,Win32,61.34969325,67e48a4418f934bfb160fbc2,67e5c8c9bc10e40b86efc6fc,67e5d22468e090a160b596df,,,,,,,,,,,,,,,,,,,,,,With Brainslug Difficult 2 With Money,12,images/assets/snowy_money.jpg,learning,20,images/assets/success_money.jpg,images/assets/gameover.jpg,,,,,,,,,,,,,0,4,4,2,1,,,,,,,,,,,,,,,,,,,,,,,,,,,,,,,,
,,,,,,,,,,,,67e48a4418f934bfb160fbc2,001,3,2025-03-27_18h40.55.132,avatar_quest_3AFC_legacy,2022.1.3,Win32,61.34969325,67e48a4418f934bfb160fbc2,67e5c8c9bc10e40b86efc6fc,67e5d22468e090a160b596df,,,,,,,,,,,,,,,,,,,,,,No Brainslug Difficult 2 With Money,12,images/assets/snowy_money.jpg,learning,20,images/assets/success_money.jpg,images/assets/gameover.jpg,,,,,,,,,,,,,0,5,5,7,1,,,,,,,,,,,,,,,,,,,,,,,,,,,,,,,,
,,,,,,,,,,,,67e48a4418f934bfb160fbc2,001,3,2025-03-27_18h40.55.132,avatar_quest_3AFC_legacy,2022.1.3,Win32,61.34969325,67e48a4418f934bfb160fbc2,67e5c8c9bc10e40b86efc6fc,67e5d22468e090a160b596df,,,,,,,,,,,,,,,,,,,,,,No Brainslug Difficult 1 No Money,6,images/assets/snowy_original.jpg,learning,20,images/assets/success.jpg,images/assets/gameover.jpg,,,,,,,,,,,,,0,6,6,6,1,,,,,,,,,,,,,,,,,,,,,,,,,,,,,,,,
,,,,,,,,,,,,67e48a4418f934bfb160fbc2,001,3,2025-03-27_18h40.55.132,avatar_quest_3AFC_legacy,2022.1.3,Win32,61.34969325,67e48a4418f934bfb160fbc2,67e5c8c9bc10e40b86efc6fc,67e5d22468e090a160b596df,,,,,,,,,,,,,,,,,,,,,,With Brainslug No Barriers With Money,0,images/assets/snowy_money.jpg,learning,10,images/assets/success_money.jpg,images/assets/gameover.jpg,,,,,,,,,,,,,0,7,7,4,1,,,,,,,,,,,,,,,,,,,,,,,,,,,,,,,,
,,,,,,,,,,,,67e48a4418f934bfb160fbc2,001,3,2025-03-27_18h40.55.132,avatar_quest_3AFC_legacy,2022.1.3,Win32,61.34969325,67e48a4418f934bfb160fbc2,67e5c8c9bc10e40b86efc6fc,67e5d22468e090a160b596df,,,,,,,,,,,,,,,,,,,,,,With Brainslug No Barriers No Money,0,images/assets/snowy_original.jpg,learning,10,images/assets/success.jpg,images/assets/gameover.jpg,,,,,,,,,,,,,0,8,8,5,1,,,,,,,,,,,,,,,,,,,,,,,,,,,,,,,,
,,,,,,,,,,,,67e48a4418f934bfb160fbc2,001,3,2025-03-27_18h40.55.132,avatar_quest_3AFC_legacy,2022.1.3,Win32,61.34969325,67e48a4418f934bfb160fbc2,67e5c8c9bc10e40b86efc6fc,67e5d22468e090a160b596df,,,,,,,,,,,,,,,,,,,,,,No Brainslug Difficult 2 No Money,12,images/assets/snowy_original.jpg,learning,20,images/assets/success.jpg,images/assets/gameover.jpg,,,,,,,,,,,,,0,9,9,8,1,,,,,,,,,,,,,,,,,,,,,,,,,,,,,,,,
,,,,,,,,,,,,67e48a4418f934bfb160fbc2,001,3,2025-03-27_18h40.55.132,avatar_quest_3AFC_legacy,2022.1.3,Win32,61.34969325,67e48a4418f934bfb160fbc2,67e5c8c9bc10e40b86efc6fc,67e5d22468e090a160b596df,,,,,,,,,,,,,,,,,,,,,,No Brainslug No Barriers With Money,0,images/assets/snowy_money.jpg,learning,10,images/assets/success_money.jpg,images/assets/gameover.jpg,,,,,,,,,,,,,0,10,10,9,1,,,,,,,,,,,,,,,,,,,,,,,,,,,,,,,,
,,,,,,,,,,,,67e48a4418f934bfb160fbc2,001,3,2025-03-27_18h40.55.132,avatar_quest_3AFC_legacy,2022.1.3,Win32,61.34969325,67e48a4418f934bfb160fbc2,67e5c8c9bc10e40b86efc6fc,67e5d22468e090a160b596df,,,,,,,,,,,,,,,,,,,,,,,,,,,,,,,,,,,,,,,,,,,,,,,,,,,,,,,4,0,4,0,1,,,,,,,,,,,,,,,,,,
,,,,,,,,,,,,67e48a4418f934bfb160fbc2,001,3,2025-03-27_18h40.55.132,avatar_quest_3AFC_legacy,2022.1.3,Win32,61.34969325,67e48a4418f934bfb160fbc2,67e5c8c9bc10e40b86efc6fc,67e5d22468e090a160b596df,,,,,,,,,,,,,,,,,,,,,,No Brainslug Difficult 1 No Money,6,images/assets/snowy_original.jpg,learning,20,images/assets/success.jpg,images/assets/gameover.jpg,,,,,,,,With Brainslug Difficult 2 With Money,With Brainslug Difficult 1 No Money,right,3.6627,"[""With Brainslug Difficult 1 No Money"",""With Brainslug Difficult 2 No Money""]",0,0,0,6,1,,,,,,,,,,,,,,,,,,,,,,,,,,,,,,,,
,,,,,,,,,,,,67e48a4418f934bfb160fbc2,001,3,2025-03-27_18h40.55.132,avatar_quest_3AFC_legacy,2022.1.3,Win32,61.34969325,67e48a4418f934bfb160fbc2,67e5c8c9bc10e40b86efc6fc,67e5d22468e090a160b596df,,,,,,,,,,,,,,,,,,,,,,No Brainslug Difficult 2 No Money,12,images/assets/snowy_original.jpg,learning,20,images/assets/success.jpg,images/assets/gameover.jpg,,,,,,,,,,,,,0,1,1,8,1,,,,,,,,,,,,,,,,,,,,,,,,,,,,,,,,
,,,,,,,,,,,,67e48a4418f934bfb160fbc2,001,3,2025-03-27_18h40.55.132,avatar_quest_3AFC_legacy,2022.1.3,Win32,61.34969325,67e48a4418f934bfb160fbc2,67e5c8c9bc10e40b86efc6fc,67e5d22468e090a160b596df,,,,,,,,,,,,,,,,,,,,,,With Brainslug Difficult 1 With Money,6,images/assets/snowy_money.jpg,learning,20,images/assets/success_money.jpg,images/assets/gameover.jpg,,,,,,,,,,,,,0,2,2,0,1,,,,,,,,,,,,,,,,,,,,,,,,,,,,,,,,
,,,,,,,,,,,,67e48a4418f934bfb160fbc2,001,3,2025-03-27_18h40.55.132,avatar_quest_3AFC_legacy,2022.1.3,Win32,61.34969325,67e48a4418f934bfb160fbc2,67e5c8c9bc10e40b86efc6fc,67e5d22468e090a160b596df,,,,calibration,With Brainslug Difficult 2 With Money,9,9.52665,9.5418,0,2,0,FALSE,na,na,na,na,,,,,,,,,,,,,,,,,,,,,,,,,,,,,,,,,,0,0,0,0,1,,,,,,,,,,,,,,,,,,,,,,,
,,,,,,,,,,,,67e48a4418f934bfb160fbc2,001,3,2025-03-27_18h40.55.132,avatar_quest_3AFC_legacy,2022.1.3,Win32,61.34969325,67e48a4418f934bfb160fbc2,67e5c8c9bc10e40b86efc6fc,67e5d22468e090a160b596df,,,,,,,,,,,,,,,,,,,,,,With Brainslug Difficult 2 With Money,12,images/assets/snowy_money.jpg,learning,20,images/assets/success_money.jpg,images/assets/gameover.jpg,,,,,,,,,,,,,0,3,3,2,1,,,,,,,,,,,,,,,,,,,,,,,,,,,,,,,,
,,,,,,,,,,,,67e48a4418f934bfb160fbc2,001,3,2025-03-27_18h40.55.132,avatar_quest_3AFC_legacy,2022.1.3,Win32,61.34969325,67e48a4418f934bfb160fbc2,67e5c8c9bc10e40b86efc6fc,67e5d22468e090a160b596df,,,,,,,,,,,,,,,,,,,,,,With Brainslug Difficult 1 No Money,6,images/assets/snowy_original.jpg,learning,20,images/assets/success.jpg,images/assets/gameover.jpg,,,,,,,,,,,,,0,4,4,1,1,,,,,,,,,,,,,,,,,,,,,,,,,,,,,,,,
,,,,,,,,,,,,67e48a4418f934bfb160fbc2,001,3,2025-03-27_18h40.55.132,avatar_quest_3AFC_legacy,2022.1.3,Win32,61.34969325,67e48a4418f934bfb160fbc2,67e5c8c9bc10e40b86efc6fc,67e5d22468e090a160b596df,,,,,,,,,,,,,,,,,,,,,,With Brainslug Difficult 2 No Money,12,images/assets/snowy_original.jpg,learning,20,images/assets/success.jpg,images/assets/gameover.jpg,,,,,,,,,,,,,0,5,5,3,1,,,,,,,,,,,,,,,,,,,,,,,,,,,,,,,,
,,,,,,,,,,,,67e48a4418f934bfb160fbc2,001,3,2025-03-27_18h40.55.132,avatar_quest_3AFC_legacy,2022.1.3,Win32,61.34969325,67e48a4418f934bfb160fbc2,67e5c8c9bc10e40b86efc6fc,67e5d22468e090a160b596df,,,,,,,,,,,,,,,,,,,,,,No Brainslug No Barriers No Money,0,images/assets/snowy_original.jpg,learning,10,images/assets/success.jpg,images/assets/gameover.jpg,,,,,,,,,,,,,0,6,6,10,1,,,,,,,,,,,,,,,,,,,,,,,,,,,,,,,,
,,,,,,,,,,,,67e48a4418f934bfb160fbc2,001,3,2025-03-27_18h40.55.132,avatar_quest_3AFC_legacy,2022.1.3,Win32,61.34969325,67e48a4418f934bfb160fbc2,67e5c8c9bc10e40b86efc6fc,67e5d22468e090a160b596df,,,,,,,,,,,,,,,,,,,,,,No Brainslug No Barriers With Money,0,images/assets/snowy_money.jpg,learning,10,images/assets/success_money.jpg,images/assets/gameover.jpg,,,,,,,,,,,,,0,7,7,9,1,,,,,,,,,,,,,,,,,,,,,,,,,,,,,,,,
,,,,,,,,,,,,67e48a4418f934bfb160fbc2,001,3,2025-03-27_18h40.55.132,avatar_quest_3AFC_legacy,2022.1.3,Win32,61.34969325,67e48a4418f934bfb160fbc2,67e5c8c9bc10e40b86efc6fc,67e5d22468e090a160b596df,,,,,,,,,,,,,,,,,,,,,,With Brainslug No Barriers With Money,0,images/assets/snowy_money.jpg,learning,10,images/assets/success_money.jpg,images/assets/gameover.jpg,,,,,,,,,,,,,0,8,8,4,1,,,,,,,,,,,,,,,,,,,,,,,,,,,,,,,,
,,,,,,,,,,,,67e48a4418f934bfb160fbc2,001,3,2025-03-27_18h40.55.132,avatar_quest_3AFC_legacy,2022.1.3,Win32,61.34969325,67e48a4418f934bfb160fbc2,67e5c8c9bc10e40b86efc6fc,67e5d22468e090a160b596df,,,,,,,,,,,,,,,,,,,,,,No Brainslug Difficult 2 With Money,12,images/assets/snowy_money.jpg,learning,20,images/assets/success_money.jpg,images/assets/gameover.jpg,,,,,,,,,,,,,0,9,9,7,1,,,,,,,,,,,,,,,,,,,,,,,,,,,,,,,,
,,,,,,,,,,,,67e48a4418f934bfb160fbc2,001,3,2025-03-27_18h40.55.132,avatar_quest_3AFC_legacy,2022.1.3,Win32,61.34969325,67e48a4418f934bfb160fbc2,67e5c8c9bc10e40b86efc6fc,67e5d22468e090a160b596df,,,,,,,,,,,,,,,,,,,,,,With Brainslug No Barriers No Money,0,images/assets/snowy_original.jpg,learning,10,images/assets/success.jpg,images/assets/gameover.jpg,,,,,,,,,,,,,0,10,10,5,1,,,,,,,,,,,,,,,,,,,,,,,,,,,,,,,,
,,,,,,,,,,,,67e48a4418f934bfb160fbc2,001,3,2025-03-27_18h40.55.132,avatar_quest_3AFC_legacy,2022.1.3,Win32,61.34969325,67e48a4418f934bfb160fbc2,67e5c8c9bc10e40b86efc6fc,67e5d22468e090a160b596df,,,,,,,,,,,,,,,,,,,,,,,,,,,,,,,,,,,,,,,,,,,,,,,,,,,,,,,5,0,5,0,1,,,,,,,,,,,,,,,,,,
,,,,,,,,,,,,67e48a4418f934bfb160fbc2,001,3,2025-03-27_18h40.55.132,avatar_quest_3AFC_legacy,2022.1.3,Win32,61.34969325,67e48a4418f934bfb160fbc2,67e5c8c9bc10e40b86efc6fc,67e5d22468e090a160b596df,,,,,,,,,,,,,,,,,,,,,,No Brainslug No Barriers With Money,0,images/assets/snowy_money.jpg,learning,10,images/assets/success_money.jpg,images/assets/gameover.jpg,,,,,,,,With Brainslug Difficult 2 With Money,With Brainslug Difficult 1 No Money,right,15.3494,"[""With Brainslug Difficult 1 No Money"",""With Brainslug Difficult 2 No Money""]",0,0,0,9,1,,,,,,,,,,,,,,,,,,,,,,,,,,,,,,,,
,,,,,,,,,,,,67e48a4418f934bfb160fbc2,001,3,2025-03-27_18h40.55.132,avatar_quest_3AFC_legacy,2022.1.3,Win32,61.34969325,67e48a4418f934bfb160fbc2,67e5c8c9bc10e40b86efc6fc,67e5d22468e090a160b596df,,,,,,,,,,,,,,,,,,,,,,With Brainslug No Barriers With Money,0,images/assets/snowy_money.jpg,learning,10,images/assets/success_money.jpg,images/assets/gameover.jpg,,,,,,,,,,,,,0,1,1,4,1,,,,,,,,,,,,,,,,,,,,,,,,,,,,,,,,
,,,,,,,,,,,,67e48a4418f934bfb160fbc2,001,3,2025-03-27_18h40.55.132,avatar_quest_3AFC_legacy,2022.1.3,Win32,61.34969325,67e48a4418f934bfb160fbc2,67e5c8c9bc10e40b86efc6fc,67e5d22468e090a160b596df,,,,,,,,,,,,,,,,,,,,,,No Brainslug Difficult 2 No Money,12,images/assets/snowy_original.jpg,learning,20,images/assets/success.jpg,images/assets/gameover.jpg,,,,,,,,,,,,,0,2,2,8,1,,,,,,,,,,,,,,,,,,,,,,,,,,,,,,,,
,,,,,,,,,,,,67e48a4418f934bfb160fbc2,001,3,2025-03-27_18h40.55.132,avatar_quest_3AFC_legacy,2022.1.3,Win32,61.34969325,67e48a4418f934bfb160fbc2,67e5c8c9bc10e40b86efc6fc,67e5d22468e090a160b596df,,,,,,,,,,,,,,,,,,,,,,With Brainslug Difficult 1 With Money,6,images/assets/snowy_money.jpg,learning,20,images/assets/success_money.jpg,images/assets/gameover.jpg,,,,,,,,,,,,,0,3,3,0,1,,,,,,,,,,,,,,,,,,,,,,,,,,,,,,,,
,,,,,,,,,,,,67e48a4418f934bfb160fbc2,001,3,2025-03-27_18h40.55.132,avatar_quest_3AFC_legacy,2022.1.3,Win32,61.34969325,67e48a4418f934bfb160fbc2,67e5c8c9bc10e40b86efc6fc,67e5d22468e090a160b596df,,,,,,,,,,,,,,,,,,,,,,No Brainslug Difficult 1 No Money,6,images/assets/snowy_original.jpg,learning,20,images/assets/success.jpg,images/assets/gameover.jpg,,,,,,,,,,,,,0,4,4,6,1,,,,,,,,,,,,,,,,,,,,,,,,,,,,,,,,
,,,,,,,,,,,,67e48a4418f934bfb160fbc2,001,3,2025-03-27_18h40.55.132,avatar_quest_3AFC_legacy,2022.1.3,Win32,61.34969325,67e48a4418f934bfb160fbc2,67e5c8c9bc10e40b86efc6fc,67e5d22468e090a160b596df,,,,,,,,,,,,,,,,,,,,,,No Brainslug No Barriers No Money,0,images/assets/snowy_original.jpg,learning,10,images/assets/success.jpg,images/assets/gameover.jpg,,,,,,,,,,,,,0,5,5,10,1,,,,,,,,,,,,,,,,,,,,,,,,,,,,,,,,
,,,,,,,,,,,,67e48a4418f934bfb160fbc2,001,3,2025-03-27_18h40.55.132,avatar_quest_3AFC_legacy,2022.1.3,Win32,61.34969325,67e48a4418f934bfb160fbc2,67e5c8c9bc10e40b86efc6fc,67e5d22468e090a160b596df,,,,,,,,,,,,,,,,,,,,,,With Brainslug Difficult 1 No Money,6,images/assets/snowy_original.jpg,learning,20,images/assets/success.jpg,images/assets/gameover.jpg,,,,,,,,,,,,,0,6,6,1,1,,,,,,,,,,,,,,,,,,,,,,,,,,,,,,,,
,,,,,,,,,,,,67e48a4418f934bfb160fbc2,001,3,2025-03-27_18h40.55.132,avatar_quest_3AFC_legacy,2022.1.3,Win32,61.34969325,67e48a4418f934bfb160fbc2,67e5c8c9bc10e40b86efc6fc,67e5d22468e090a160b596df,,,,,,,,,,,,,,,,,,,,,,With Brainslug Difficult 2 No Money,12,images/assets/snowy_original.jpg,learning,20,images/assets/success.jpg,images/assets/gameover.jpg,,,,,,,,,,,,,0,7,7,3,1,,,,,,,,,,,,,,,,,,,,,,,,,,,,,,,,
,,,,,,,,,,,,67e48a4418f934bfb160fbc2,001,3,2025-03-27_18h40.55.132,avatar_quest_3AFC_legacy,2022.1.3,Win32,61.34969325,67e48a4418f934bfb160fbc2,67e5c8c9bc10e40b86efc6fc,67e5d22468e090a160b596df,,,,,,,,,,,,,,,,,,,,,,With Brainslug No Barriers No Money,0,images/assets/snowy_original.jpg,learning,10,images/assets/success.jpg,images/assets/gameover.jpg,,,,,,,,,,,,,0,8,8,5,1,,,,,,,,,,,,,,,,,,,,,,,,,,,,,,,,
,,,,,,,,,,,,67e48a4418f934bfb160fbc2,001,3,2025-03-27_18h40.55.132,avatar_quest_3AFC_legacy,2022.1.3,Win32,61.34969325,67e48a4418f934bfb160fbc2,67e5c8c9bc10e40b86efc6fc,67e5d22468e090a160b596df,"[""left"",""right"",""left"",""left"",""up"",""up"",""left"",""left""]","[1.1476999998092197,3.500400000572199,4.434800000190762,5.483000000000061,6.323600000381475,7.246999999999957,7.979800000190721,8.446199999809323]",,calibration,With Brainslug Difficult 2 With Money,10,9.52665,9.530099999,1,2,0,FALSE,na,na,na,na,,,,,,,,,,,,,,,,,,,,,,,,,,,,,,,,,,0,0,0,0,1,,,,,,,,,,,,,,,,,,,,,,,
,,,,,,,,,,,,67e48a4418f934bfb160fbc2,001,3,2025-03-27_18h40.55.132,avatar_quest_3AFC_legacy,2022.1.3,Win32,61.34969325,67e48a4418f934bfb160fbc2,67e5c8c9bc10e40b86efc6fc,67e5d22468e090a160b596df,,,,,,,,,,,,,,,,,,,,,,With Brainslug Difficult 2 With Money,12,images/assets/snowy_money.jpg,learning,20,images/assets/success_money.jpg,images/assets/gameover.jpg,,,,,,,,,,,,,0,9,9,2,1,,,,,,,,,,,,,,,,,,,,,,,,,,,,,,,,
,,,,,,,,,,,,67e48a4418f934bfb160fbc2,001,3,2025-03-27_18h40.55.132,avatar_quest_3AFC_legacy,2022.1.3,Win32,61.34969325,67e48a4418f934bfb160fbc2,67e5c8c9bc10e40b86efc6fc,67e5d22468e090a160b596df,,,,,,,,,,,,,,,,,,,,,,No Brainslug Difficult 2 With Money,12,images/assets/snowy_money.jpg,learning,20,images/assets/success_money.jpg,images/assets/gameover.jpg,,,,,,,,,,,,,0,10,10,7,1,,,,,,,,,,,,,,,,,,,,,,,,,,,,,,,,
,,,,,,,,,,,,67e48a4418f934bfb160fbc2,001,3,2025-03-27_18h40.55.132,avatar_quest_3AFC_legacy,2022.1.3,Win32,61.34969325,67e48a4418f934bfb160fbc2,67e5c8c9bc10e40b86efc6fc,67e5d22468e090a160b596df,,,,,,,,,,,,,,,,,,,,,,,,,,,,,,,,,,,,,,,,,,,,,,,,,,,,,,,6,0,6,0,1,,,,,,,,,,,,,,,,,,
,,,,,,,,,,,,67e48a4418f934bfb160fbc2,001,3,2025-03-27_18h40.55.132,avatar_quest_3AFC_legacy,2022.1.3,Win32,61.34969325,67e48a4418f934bfb160fbc2,67e5c8c9bc10e40b86efc6fc,67e5d22468e090a160b596df,,,,,,,,,,,,,,,,,,,,,,With Brainslug Difficult 2 With Money,12,images/assets/snowy_money.jpg,learning,20,images/assets/success_money.jpg,images/assets/gameover.jpg,,,,,,,,With Brainslug Difficult 2 No Money,With Brainslug Difficult 1 No Money,down,2.635200001,"[""With Brainslug Difficult 1 No Money"",""With Brainslug Difficult 2 With Money""]",0,0,0,2,1,,,,,,,,,,,,,,,,,,,,,,,,,,,,,,,,
,,,,,,,,,,,,67e48a4418f934bfb160fbc2,001,3,2025-03-27_18h40.55.132,avatar_quest_3AFC_legacy,2022.1.3,Win32,61.34969325,67e48a4418f934bfb160fbc2,67e5c8c9bc10e40b86efc6fc,67e5d22468e090a160b596df,,,,,,,,,,,,,,,,,,,,,,No Brainslug No Barriers No Money,0,images/assets/snowy_original.jpg,learning,10,images/assets/success.jpg,images/assets/gameover.jpg,,,,,,,,,,,,,0,1,1,10,1,,,,,,,,,,,,,,,,,,,,,,,,,,,,,,,,
,,,,,,,,,,,,67e48a4418f934bfb160fbc2,001,3,2025-03-27_18h40.55.132,avatar_quest_3AFC_legacy,2022.1.3,Win32,61.34969325,67e48a4418f934bfb160fbc2,67e5c8c9bc10e40b86efc6fc,67e5d22468e090a160b596df,,,,,,,,,,,,,,,,,,,,,,With Brainslug No Barriers No Money,0,images/assets/snowy_original.jpg,learning,10,images/assets/success.jpg,images/assets/gameover.jpg,,,,,,,,,,,,,0,2,2,5,1,,,,,,,,,,,,,,,,,,,,,,,,,,,,,,,,
,,,,,,,,,,,,67e48a4418f934bfb160fbc2,001,3,2025-03-27_18h40.55.132,avatar_quest_3AFC_legacy,2022.1.3,Win32,61.34969325,67e48a4418f934bfb160fbc2,67e5c8c9bc10e40b86efc6fc,67e5d22468e090a160b596df,,,,,,,,,,,,,,,,,,,,,,With Brainslug Difficult 1 With Money,6,images/assets/snowy_money.jpg,learning,20,images/assets/success_money.jpg,images/assets/gameover.jpg,,,,,,,,,,,,,0,3,3,0,1,,,,,,,,,,,,,,,,,,,,,,,,,,,,,,,,
,,,,,,,,,,,,67e48a4418f934bfb160fbc2,001,3,2025-03-27_18h40.55.132,avatar_quest_3AFC_legacy,2022.1.3,Win32,61.34969325,67e48a4418f934bfb160fbc2,67e5c8c9bc10e40b86efc6fc,67e5d22468e090a160b596df,,,,,,,,,,,,,,,,,,,,,,No Brainslug No Barriers With Money,0,images/assets/snowy_money.jpg,learning,10,images/assets/success_money.jpg,images/assets/gameover.jpg,,,,,,,,,,,,,0,4,4,9,1,,,,,,,,,,,,,,,,,,,,,,,,,,,,,,,,
,,,,,,,,,,,,67e48a4418f934bfb160fbc2,001,3,2025-03-27_18h40.55.132,avatar_quest_3AFC_legacy,2022.1.3,Win32,61.34969325,67e48a4418f934bfb160fbc2,67e5c8c9bc10e40b86efc6fc,67e5d22468e090a160b596df,,,,,,,,,,,,,,,,,,,,,,No Brainslug Difficult 2 With Money,12,images/assets/snowy_money.jpg,learning,20,images/assets/success_money.jpg,images/assets/gameover.jpg,,,,,,,,,,,,,0,5,5,7,1,,,,,,,,,,,,,,,,,,,,,,,,,,,,,,,,
,,,,,,,,,,,,67e48a4418f934bfb160fbc2,001,3,2025-03-27_18h40.55.132,avatar_quest_3AFC_legacy,2022.1.3,Win32,61.34969325,67e48a4418f934bfb160fbc2,67e5c8c9bc10e40b86efc6fc,67e5d22468e090a160b596df,"[""left"",""left"",""right"",""left"",""right"",""right"",""right"",""right"",""right"",""right"",""right""]","[1.3728000001907503,2.4635000000000673,2.8706999998092897,3.9366000003815316,4.6030000000000655,5.65160000038145,6.269399999618599,6.552699999809306,6.767000000000053,7.54200000000003,8.142100000381447]",,calibration,With Brainslug Difficult 2 No Money,11,9.52665,9.5305,4,4,0,FALSE,na,na,na,na,,,,,,,,,,,,,,,,,,,,,,,,,,,,,,,,,,0,0,0,0,1,,,,,,,,,,,,,,,,,,,,,,,
,,,,,,,,,,,,67e48a4418f934bfb160fbc2,001,3,2025-03-27_18h40.55.132,avatar_quest_3AFC_legacy,2022.1.3,Win32,61.34969325,67e48a4418f934bfb160fbc2,67e5c8c9bc10e40b86efc6fc,67e5d22468e090a160b596df,,,,,,,,,,,,,,,,,,,,,,With Brainslug Difficult 2 No Money,12,images/assets/snowy_original.jpg,learning,20,images/assets/success.jpg,images/assets/gameover.jpg,,,,,,,,,,,,,0,6,6,3,1,,,,,,,,,,,,,,,,,,,,,,,,,,,,,,,,
,,,,,,,,,,,,67e48a4418f934bfb160fbc2,001,3,2025-03-27_18h40.55.132,avatar_quest_3AFC_legacy,2022.1.3,Win32,61.34969325,67e48a4418f934bfb160fbc2,67e5c8c9bc10e40b86efc6fc,67e5d22468e090a160b596df,,,,,,,,,,,,,,,,,,,,,,No Brainslug Difficult 1 No Money,6,images/assets/snowy_original.jpg,learning,20,images/assets/success.jpg,images/assets/gameover.jpg,,,,,,,,,,,,,0,7,7,6,1,,,,,,,,,,,,,,,,,,,,,,,,,,,,,,,,
,,,,,,,,,,,,67e48a4418f934bfb160fbc2,001,3,2025-03-27_18h40.55.132,avatar_quest_3AFC_legacy,2022.1.3,Win32,61.34969325,67e48a4418f934bfb160fbc2,67e5c8c9bc10e40b86efc6fc,67e5d22468e090a160b596df,,,,,,,,,,,,,,,,,,,,,,No Brainslug Difficult 2 No Money,12,images/assets/snowy_original.jpg,learning,20,images/assets/success.jpg,images/assets/gameover.jpg,,,,,,,,,,,,,0,8,8,8,1,,,,,,,,,,,,,,,,,,,,,,,,,,,,,,,,
,,,,,,,,,,,,67e48a4418f934bfb160fbc2,001,3,2025-03-27_18h40.55.132,avatar_quest_3AFC_legacy,2022.1.3,Win32,61.34969325,67e48a4418f934bfb160fbc2,67e5c8c9bc10e40b86efc6fc,67e5d22468e090a160b596df,,,,,,,,,,,,,,,,,,,,,,With Brainslug No Barriers With Money,0,images/assets/snowy_money.jpg,learning,10,images/assets/success_money.jpg,images/assets/gameover.jpg,,,,,,,,,,,,,0,9,9,4,1,,,,,,,,,,,,,,,,,,,,,,,,,,,,,,,,
,,,,,,,,,,,,67e48a4418f934bfb160fbc2,001,3,2025-03-27_18h40.55.132,avatar_quest_3AFC_legacy,2022.1.3,Win32,61.34969325,67e48a4418f934bfb160fbc2,67e5c8c9bc10e40b86efc6fc,67e5d22468e090a160b596df,,,,,,,,,,,,,,,,,,,,,,With Brainslug Difficult 1 No Money,6,images/assets/snowy_original.jpg,learning,20,images/assets/success.jpg,images/assets/gameover.jpg,,,,,,,,,,,,,0,10,10,1,1,,,,,,,,,,,,,,,,,,,,,,,,,,,,,,,,
,,,,,,,,,,,,67e48a4418f934bfb160fbc2,001,3,2025-03-27_18h40.55.132,avatar_quest_3AFC_legacy,2022.1.3,Win32,61.34969325,67e48a4418f934bfb160fbc2,67e5c8c9bc10e40b86efc6fc,67e5d22468e090a160b596df,,,,,,,,,,,,,,,,,,,,,,,,,,,,,,,,,,,,,,,,,,,,,,,,,,,,,,,7,0,7,0,1,,,,,,,,,,,,,,,,,,
,,,,,,,,,,,,67e48a4418f934bfb160fbc2,001,3,2025-03-27_18h40.55.132,avatar_quest_3AFC_legacy,2022.1.3,Win32,61.34969325,67e48a4418f934bfb160fbc2,67e5c8c9bc10e40b86efc6fc,67e5d22468e090a160b596df,,,,,,,,,,,,,,,,,,,,,,With Brainslug No Barriers With Money,0,images/assets/snowy_money.jpg,learning,10,images/assets/success_money.jpg,images/assets/gameover.jpg,,,,,,,,With Brainslug Difficult 2 With Money,With Brainslug Difficult 1 No Money,right,3.5715,"[""With Brainslug Difficult 1 No Money"",""With Brainslug Difficult 2 No Money""]",0,0,0,4,1,,,,,,,,,,,,,,,,,,,,,,,,,,,,,,,,
,,,,,,,,,,,,67e48a4418f934bfb160fbc2,001,3,2025-03-27_18h40.55.132,avatar_quest_3AFC_legacy,2022.1.3,Win32,61.34969325,67e48a4418f934bfb160fbc2,67e5c8c9bc10e40b86efc6fc,67e5d22468e090a160b596df,,,,,,,,,,,,,,,,,,,,,,No Brainslug No Barriers No Money,0,images/assets/snowy_original.jpg,learning,10,images/assets/success.jpg,images/assets/gameover.jpg,,,,,,,,,,,,,0,1,1,10,1,,,,,,,,,,,,,,,,,,,,,,,,,,,,,,,,
,,,,,,,,,,,,67e48a4418f934bfb160fbc2,001,3,2025-03-27_18h40.55.132,avatar_quest_3AFC_legacy,2022.1.3,Win32,61.34969325,67e48a4418f934bfb160fbc2,67e5c8c9bc10e40b86efc6fc,67e5d22468e090a160b596df,,,,,,,,,,,,,,,,,,,,,,With Brainslug No Barriers No Money,0,images/assets/snowy_original.jpg,learning,10,images/assets/success.jpg,images/assets/gameover.jpg,,,,,,,,,,,,,0,2,2,5,1,,,,,,,,,,,,,,,,,,,,,,,,,,,,,,,,
,,,,,,,,,,,,67e48a4418f934bfb160fbc2,001,3,2025-03-27_18h40.55.132,avatar_quest_3AFC_legacy,2022.1.3,Win32,61.34969325,67e48a4418f934bfb160fbc2,67e5c8c9bc10e40b86efc6fc,67e5d22468e090a160b596df,,,,,,,,,,,,,,,,,,,,,,With Brainslug Difficult 2 No Money,12,images/assets/snowy_original.jpg,learning,20,images/assets/success.jpg,images/assets/gameover.jpg,,,,,,,,,,,,,0,3,3,3,1,,,,,,,,,,,,,,,,,,,,,,,,,,,,,,,,
,,,,,,,,,,,,67e48a4418f934bfb160fbc2,001,3,2025-03-27_18h40.55.132,avatar_quest_3AFC_legacy,2022.1.3,Win32,61.34969325,67e48a4418f934bfb160fbc2,67e5c8c9bc10e40b86efc6fc,67e5d22468e090a160b596df,,,,,,,,,,,,,,,,,,,,,,No Brainslug Difficult 2 No Money,12,images/assets/snowy_original.jpg,learning,20,images/assets/success.jpg,images/assets/gameover.jpg,,,,,,,,,,,,,0,4,4,8,1,,,,,,,,,,,,,,,,,,,,,,,,,,,,,,,,
,,,,,,,,,,,,67e48a4418f934bfb160fbc2,001,3,2025-03-27_18h40.55.132,avatar_quest_3AFC_legacy,2022.1.3,Win32,61.34969325,67e48a4418f934bfb160fbc2,67e5c8c9bc10e40b86efc6fc,67e5d22468e090a160b596df,,,,,,,,,,,,,,,,,,,,,,No Brainslug No Barriers With Money,0,images/assets/snowy_money.jpg,learning,10,images/assets/success_money.jpg,images/assets/gameover.jpg,,,,,,,,,,,,,0,5,5,9,1,,,,,,,,,,,,,,,,,,,,,,,,,,,,,,,,
,,,,,,,,,,,,67e48a4418f934bfb160fbc2,001,3,2025-03-27_18h40.55.132,avatar_quest_3AFC_legacy,2022.1.3,Win32,61.34969325,67e48a4418f934bfb160fbc2,67e5c8c9bc10e40b86efc6fc,67e5d22468e090a160b596df,,,,,,,,,,,,,,,,,,,,,,With Brainslug Difficult 1 With Money,6,images/assets/snowy_money.jpg,learning,20,images/assets/success_money.jpg,images/assets/gameover.jpg,,,,,,,,,,,,,0,6,6,0,1,,,,,,,,,,,,,,,,,,,,,,,,,,,,,,,,
,,,,,,,,,,,,67e48a4418f934bfb160fbc2,001,3,2025-03-27_18h40.55.132,avatar_quest_3AFC_legacy,2022.1.3,Win32,61.34969325,67e48a4418f934bfb160fbc2,67e5c8c9bc10e40b86efc6fc,67e5d22468e090a160b596df,,,,,,,,,,,,,,,,,,,,,,No Brainslug Difficult 1 No Money,6,images/assets/snowy_original.jpg,learning,20,images/assets/success.jpg,images/assets/gameover.jpg,,,,,,,,,,,,,0,7,7,6,1,,,,,,,,,,,,,,,,,,,,,,,,,,,,,,,,
,,,,,,,,,,,,67e48a4418f934bfb160fbc2,001,3,2025-03-27_18h40.55.132,avatar_quest_3AFC_legacy,2022.1.3,Win32,61.34969325,67e48a4418f934bfb160fbc2,67e5c8c9bc10e40b86efc6fc,67e5d22468e090a160b596df,"[""right"",""left"",""right"",""right"",""right"",""left""]","[2.646199999809255,3.946899999618495,4.978699999809237,6.894499999999994,8.449999999999932,9.251600000381472]",,calibration,With Brainslug Difficult 2 With Money,12,9.52665,9.530200001,4,6,0,FALSE,na,na,na,na,,,,,,,,,,,,,,,,,,,,,,,,,,,,,,,,,,0,0,0,0,1,,,,,,,,,,,,,,,,,,,,,,,
,,,,,,,,,,,,67e48a4418f934bfb160fbc2,001,3,2025-03-27_18h40.55.132,avatar_quest_3AFC_legacy,2022.1.3,Win32,61.34969325,67e48a4418f934bfb160fbc2,67e5c8c9bc10e40b86efc6fc,67e5d22468e090a160b596df,,,,,,,,,,,,,,,,,,,,,,With Brainslug Difficult 2 With Money,12,images/assets/snowy_money.jpg,learning,20,images/assets/success_money.jpg,images/assets/gameover.jpg,,,,,,,,,,,,,0,8,8,2,1,,,,,,,,,,,,,,,,,,,,,,,,,,,,,,,,
,,,,,,,,,,,,67e48a4418f934bfb160fbc2,001,3,2025-03-27_18h40.55.132,avatar_quest_3AFC_legacy,2022.1.3,Win32,61.34969325,67e48a4418f934bfb160fbc2,67e5c8c9bc10e40b86efc6fc,67e5d22468e090a160b596df,,,,,,,,,,,,,,,,,,,,,,No Brainslug Difficult 2 With Money,12,images/assets/snowy_money.jpg,learning,20,images/assets/success_money.jpg,images/assets/gameover.jpg,,,,,,,,,,,,,0,9,9,7,1,,,,,,,,,,,,,,,,,,,,,,,,,,,,,,,,
,,,,,,,,,,,,67e48a4418f934bfb160fbc2,001,3,2025-03-27_18h40.55.132,avatar_quest_3AFC_legacy,2022.1.3,Win32,61.34969325,67e48a4418f934bfb160fbc2,67e5c8c9bc10e40b86efc6fc,67e5d22468e090a160b596df,,,,,,,,,,,,,,,,,,,,,,With Brainslug Difficult 1 No Money,6,images/assets/snowy_original.jpg,learning,20,images/assets/success.jpg,images/assets/gameover.jpg,,,,,,,,,,,,,0,10,10,1,1,,,,,,,,,,,,,,,,,,,,,,,,,,,,,,,,
,,,,,,,,,,,,67e48a4418f934bfb160fbc2,001,3,2025-03-27_18h40.55.132,avatar_quest_3AFC_legacy,2022.1.3,Win32,61.34969325,67e48a4418f934bfb160fbc2,67e5c8c9bc10e40b86efc6fc,67e5d22468e090a160b596df,,,,,,,,,,,,,,,,,,,,,,,,,,,,,,,,,,,,,,,,,,,,,,,,,,,,,,,8,0,8,0,1,,,,,,,,,,,,,,,,,,
,,,,,,,,,,,,67e48a4418f934bfb160fbc2,001,3,2025-03-27_18h40.55.132,avatar_quest_3AFC_legacy,2022.1.3,Win32,61.34969325,67e48a4418f934bfb160fbc2,67e5c8c9bc10e40b86efc6fc,67e5d22468e090a160b596df,,,,,,,,,,,,,,,,,,,,,,No Brainslug No Barriers With Money,0,images/assets/snowy_money.jpg,learning,10,images/assets/success_money.jpg,images/assets/gameover.jpg,,,,,,,,With Brainslug Difficult 2 With Money,With Brainslug Difficult 1 No Money,right,12.8888,"[""With Brainslug Difficult 1 No Money"",""With Brainslug Difficult 2 No Money""]",0,0,0,9,1,,,,,,,,,,,,,,,,,,,,,,,,,,,,,,,,
,,,,,,,,,,,,67e48a4418f934bfb160fbc2,001,3,2025-03-27_18h40.55.132,avatar_quest_3AFC_legacy,2022.1.3,Win32,61.34969325,67e48a4418f934bfb160fbc2,67e5c8c9bc10e40b86efc6fc,67e5d22468e090a160b596df,,,,,,,,,,,,,,,,,,,,,,With Brainslug Difficult 1 With Money,6,images/assets/snowy_money.jpg,learning,20,images/assets/success_money.jpg,images/assets/gameover.jpg,,,,,,,,,,,,,0,1,1,0,1,,,,,,,,,,,,,,,,,,,,,,,,,,,,,,,,
,,,,,,,,,,,,67e48a4418f934bfb160fbc2,001,3,2025-03-27_18h40.55.132,avatar_quest_3AFC_legacy,2022.1.3,Win32,61.34969325,67e48a4418f934bfb160fbc2,67e5c8c9bc10e40b86efc6fc,67e5d22468e090a160b596df,,,,,,,,,,,,,,,,,,,,,,No Brainslug No Barriers No Money,0,images/assets/snowy_original.jpg,learning,10,images/assets/success.jpg,images/assets/gameover.jpg,,,,,,,,,,,,,0,2,2,10,1,,,,,,,,,,,,,,,,,,,,,,,,,,,,,,,,
,,,,,,,,,,,,67e48a4418f934bfb160fbc2,001,3,2025-03-27_18h40.55.132,avatar_quest_3AFC_legacy,2022.1.3,Win32,61.34969325,67e48a4418f934bfb160fbc2,67e5c8c9bc10e40b86efc6fc,67e5d22468e090a160b596df,,,,,,,,,,,,,,,,,,,,,,With Brainslug Difficult 2 No Money,12,images/assets/snowy_original.jpg,learning,20,images/assets/success.jpg,images/assets/gameover.jpg,,,,,,,,,,,,,0,3,3,3,1,,,,,,,,,,,,,,,,,,,,,,,,,,,,,,,,
,,,,,,,,,,,,67e48a4418f934bfb160fbc2,001,3,2025-03-27_18h40.55.132,avatar_quest_3AFC_legacy,2022.1.3,Win32,61.34969325,67e48a4418f934bfb160fbc2,67e5c8c9bc10e40b86efc6fc,67e5d22468e090a160b596df,,,,,,,,,,,,,,,,,,,,,,With Brainslug Difficult 1 No Money,6,images/assets/snowy_original.jpg,learning,20,images/assets/success.jpg,images/assets/gameover.jpg,,,,,,,,,,,,,0,4,4,1,1,,,,,,,,,,,,,,,,,,,,,,,,,,,,,,,,
,,,,,,,,,,,,67e48a4418f934bfb160fbc2,001,3,2025-03-27_18h40.55.132,avatar_quest_3AFC_legacy,2022.1.3,Win32,61.34969325,67e48a4418f934bfb160fbc2,67e5c8c9bc10e40b86efc6fc,67e5d22468e090a160b596df,"[""left"",""right"",""right"",""right"",""left"",""right""]","[1.6197000007629185,2.4418000001907103,3.150100000381485,4.074400000572155,6.8829999999999245,8.232499999999959]",,calibration,With Brainslug Difficult 2 With Money,13,9.52665,9.538099999,4,5,0,FALSE,na,na,na,na,,,,,,,,,,,,,,,,,,,,,,,,,,,,,,,,,,0,0,0,0,1,,,,,,,,,,,,,,,,,,,,,,,
,,,,,,,,,,,,67e48a4418f934bfb160fbc2,001,3,2025-03-27_18h40.55.132,avatar_quest_3AFC_legacy,2022.1.3,Win32,61.34969325,67e48a4418f934bfb160fbc2,67e5c8c9bc10e40b86efc6fc,67e5d22468e090a160b596df,,,,,,,,,,,,,,,,,,,,,,With Brainslug Difficult 2 With Money,12,images/assets/snowy_money.jpg,learning,20,images/assets/success_money.jpg,images/assets/gameover.jpg,,,,,,,,,,,,,0,5,5,2,1,,,,,,,,,,,,,,,,,,,,,,,,,,,,,,,,
,,,,,,,,,,,,67e48a4418f934bfb160fbc2,001,3,2025-03-27_18h40.55.132,avatar_quest_3AFC_legacy,2022.1.3,Win32,61.34969325,67e48a4418f934bfb160fbc2,67e5c8c9bc10e40b86efc6fc,67e5d22468e090a160b596df,,,,,,,,,,,,,,,,,,,,,,No Brainslug Difficult 1 No Money,6,images/assets/snowy_original.jpg,learning,20,images/assets/success.jpg,images/assets/gameover.jpg,,,,,,,,,,,,,0,6,6,6,1,,,,,,,,,,,,,,,,,,,,,,,,,,,,,,,,
,,,,,,,,,,,,67e48a4418f934bfb160fbc2,001,3,2025-03-27_18h40.55.132,avatar_quest_3AFC_legacy,2022.1.3,Win32,61.34969325,67e48a4418f934bfb160fbc2,67e5c8c9bc10e40b86efc6fc,67e5d22468e090a160b596df,,,,,,,,,,,,,,,,,,,,,,No Brainslug Difficult 2 No Money,12,images/assets/snowy_original.jpg,learning,20,images/assets/success.jpg,images/assets/gameover.jpg,,,,,,,,,,,,,0,7,7,8,1,,,,,,,,,,,,,,,,,,,,,,,,,,,,,,,,
,,,,,,,,,,,,67e48a4418f934bfb160fbc2,001,3,2025-03-27_18h40.55.132,avatar_quest_3AFC_legacy,2022.1.3,Win32,61.34969325,67e48a4418f934bfb160fbc2,67e5c8c9bc10e40b86efc6fc,67e5d22468e090a160b596df,,,,,,,,,,,,,,,,,,,,,,With Brainslug No Barriers With Money,0,images/assets/snowy_money.jpg,learning,10,images/assets/success_money.jpg,images/assets/gameover.jpg,,,,,,,,,,,,,0,8,8,4,1,,,,,,,,,,,,,,,,,,,,,,,,,,,,,,,,
,,,,,,,,,,,,67e48a4418f934bfb160fbc2,001,3,2025-03-27_18h40.55.132,avatar_quest_3AFC_legacy,2022.1.3,Win32,61.34969325,67e48a4418f934bfb160fbc2,67e5c8c9bc10e40b86efc6fc,67e5d22468e090a160b596df,,,,,,,,,,,,,,,,,,,,,,With Brainslug No Barriers No Money,0,images/assets/snowy_original.jpg,learning,10,images/assets/success.jpg,images/assets/gameover.jpg,,,,,,,,,,,,,0,9,9,5,1,,,,,,,,,,,,,,,,,,,,,,,,,,,,,,,,
,,,,,,,,,,,,67e48a4418f934bfb160fbc2,001,3,2025-03-27_18h40.55.132,avatar_quest_3AFC_legacy,2022.1.3,Win32,61.34969325,67e48a4418f934bfb160fbc2,67e5c8c9bc10e40b86efc6fc,67e5d22468e090a160b596df,,,,,,,,,,,,,,,,,,,,,,No Brainslug Difficult 2 With Money,12,images/assets/snowy_money.jpg,learning,20,images/assets/success_money.jpg,images/assets/gameover.jpg,,,,,,,,,,,,,0,10,10,7,1,,,,,,,,,,,,,,,,,,,,,,,,,,,,,,,,
,,,,,,,,,,,,67e48a4418f934bfb160fbc2,001,3,2025-03-27_18h40.55.132,avatar_quest_3AFC_legacy,2022.1.3,Win32,61.34969325,67e48a4418f934bfb160fbc2,67e5c8c9bc10e40b86efc6fc,67e5d22468e090a160b596df,,,,,,,,,,,,,,,,,,,,,,,,,,,,,,,,,,,,,,,,,,,,,,,,,,,,,,,9,0,9,0,1,,,,,,,,,,,,,,,,,,
,,,,,,,,,,,,67e48a4418f934bfb160fbc2,001,3,2025-03-27_18h40.55.132,avatar_quest_3AFC_legacy,2022.1.3,Win32,61.34969325,67e48a4418f934bfb160fbc2,67e5c8c9bc10e40b86efc6fc,67e5d22468e090a160b596df,,,,,,,,,,,,,,,,,,,,,,No Brainslug Difficult 2 With Money,12,images/assets/snowy_money.jpg,learning,20,images/assets/success_money.jpg,images/assets/gameover.jpg,,,,,,,,With Brainslug Difficult 2 With Money,With Brainslug Difficult 1 No Money,right,15.3324,"[""With Brainslug Difficult 1 No Money"",""With Brainslug Difficult 2 No Money""]",0,0,0,7,1,,,,,,,,,,,,,,,,,,,,,,,,,,,,,,,,
,,,,,,,,,,,,67e48a4418f934bfb160fbc2,001,3,2025-03-27_18h40.55.132,avatar_quest_3AFC_legacy,2022.1.3,Win32,61.34969325,67e48a4418f934bfb160fbc2,67e5c8c9bc10e40b86efc6fc,67e5d22468e090a160b596df,,,,,,,,,,,,,,,,,,,,,,With Brainslug Difficult 1 With Money,6,images/assets/snowy_money.jpg,learning,20,images/assets/success_money.jpg,images/assets/gameover.jpg,,,,,,,,,,,,,0,1,1,0,1,,,,,,,,,,,,,,,,,,,,,,,,,,,,,,,,
,,,,,,,,,,,,67e48a4418f934bfb160fbc2,001,3,2025-03-27_18h40.55.132,avatar_quest_3AFC_legacy,2022.1.3,Win32,61.34969325,67e48a4418f934bfb160fbc2,67e5c8c9bc10e40b86efc6fc,67e5d22468e090a160b596df,,,,,,,,,,,,,,,,,,,,,,With Brainslug Difficult 2 No Money,12,images/assets/snowy_original.jpg,learning,20,images/assets/success.jpg,images/assets/gameover.jpg,,,,,,,,,,,,,0,2,2,3,1,,,,,,,,,,,,,,,,,,,,,,,,,,,,,,,,
,,,,,,,,,,,,67e48a4418f934bfb160fbc2,001,3,2025-03-27_18h40.55.132,avatar_quest_3AFC_legacy,2022.1.3,Win32,61.34969325,67e48a4418f934bfb160fbc2,67e5c8c9bc10e40b86efc6fc,67e5d22468e090a160b596df,,,,,,,,,,,,,,,,,,,,,,With Brainslug Difficult 1 No Money,6,images/assets/snowy_original.jpg,learning,20,images/assets/success.jpg,images/assets/gameover.jpg,,,,,,,,,,,,,0,3,3,1,1,,,,,,,,,,,,,,,,,,,,,,,,,,,,,,,,
,,,,,,,,,,,,67e48a4418f934bfb160fbc2,001,3,2025-03-27_18h40.55.132,avatar_quest_3AFC_legacy,2022.1.3,Win32,61.34969325,67e48a4418f934bfb160fbc2,67e5c8c9bc10e40b86efc6fc,67e5d22468e090a160b596df,,,,,,,,,,,,,,,,,,,,,,No Brainslug No Barriers No Money,0,images/assets/snowy_original.jpg,learning,10,images/assets/success.jpg,images/assets/gameover.jpg,,,,,,,,,,,,,0,4,4,10,1,,,,,,,,,,,,,,,,,,,,,,,,,,,,,,,,
,,,,,,,,,,,,67e48a4418f934bfb160fbc2,001,3,2025-03-27_18h40.55.132,avatar_quest_3AFC_legacy,2022.1.3,Win32,61.34969325,67e48a4418f934bfb160fbc2,67e5c8c9bc10e40b86efc6fc,67e5d22468e090a160b596df,"[""right"",""left""]","[2.2240000000000464,3.5575999994277936]",,calibration,With Brainslug Difficult 2 With Money,14,9.52665,9.5409,2,3,0,FALSE,na,na,na,na,,,,,,,,,,,,,,,,,,,,,,,,,,,,,,,,,,0,0,0,0,1,,,,,,,,,,,,,,,,,,,,,,,
,,,,,,,,,,,,67e48a4418f934bfb160fbc2,001,3,2025-03-27_18h40.55.132,avatar_quest_3AFC_legacy,2022.1.3,Win32,61.34969325,67e48a4418f934bfb160fbc2,67e5c8c9bc10e40b86efc6fc,67e5d22468e090a160b596df,,,,,,,,,,,,,,,,,,,,,,With Brainslug Difficult 2 With Money,12,images/assets/snowy_money.jpg,learning,20,images/assets/success_money.jpg,images/assets/gameover.jpg,,,,,,,,,,,,,0,5,5,2,1,,,,,,,,,,,,,,,,,,,,,,,,,,,,,,,,
,,,,,,,,,,,,67e48a4418f934bfb160fbc2,001,3,2025-03-27_18h40.55.132,avatar_quest_3AFC_legacy,2022.1.3,Win32,61.34969325,67e48a4418f934bfb160fbc2,67e5c8c9bc10e40b86efc6fc,67e5d22468e090a160b596df,,,,,,,,,,,,,,,,,,,,,,No Brainslug Difficult 2 No Money,12,images/assets/snowy_original.jpg,learning,20,images/assets/success.jpg,images/assets/gameover.jpg,,,,,,,,,,,,,0,6,6,8,1,,,,,,,,,,,,,,,,,,,,,,,,,,,,,,,,
,,,,,,,,,,,,67e48a4418f934bfb160fbc2,001,3,2025-03-27_18h40.55.132,avatar_quest_3AFC_legacy,2022.1.3,Win32,61.34969325,67e48a4418f934bfb160fbc2,67e5c8c9bc10e40b86efc6fc,67e5d22468e090a160b596df,,,,,,,,,,,,,,,,,,,,,,With Brainslug No Barriers No Money,0,images/assets/snowy_original.jpg,learning,10,images/assets/success.jpg,images/assets/gameover.jpg,,,,,,,,,,,,,0,7,7,5,1,,,,,,,,,,,,,,,,,,,,,,,,,,,,,,,,
,,,,,,,,,,,,67e48a4418f934bfb160fbc2,001,3,2025-03-27_18h40.55.132,avatar_quest_3AFC_legacy,2022.1.3,Win32,61.34969325,67e48a4418f934bfb160fbc2,67e5c8c9bc10e40b86efc6fc,67e5d22468e090a160b596df,,,,,,,,,,,,,,,,,,,,,,No Brainslug No Barriers With Money,0,images/assets/snowy_money.jpg,learning,10,images/assets/success_money.jpg,images/assets/gameover.jpg,,,,,,,,,,,,,0,8,8,9,1,,,,,,,,,,,,,,,,,,,,,,,,,,,,,,,,
,,,,,,,,,,,,67e48a4418f934bfb160fbc2,001,3,2025-03-27_18h40.55.132,avatar_quest_3AFC_legacy,2022.1.3,Win32,61.34969325,67e48a4418f934bfb160fbc2,67e5c8c9bc10e40b86efc6fc,67e5d22468e090a160b596df,,,,,,,,,,,,,,,,,,,,,,No Brainslug Difficult 1 No Money,6,images/assets/snowy_original.jpg,learning,20,images/assets/success.jpg,images/assets/gameover.jpg,,,,,,,,,,,,,0,9,9,6,1,,,,,,,,,,,,,,,,,,,,,,,,,,,,,,,,
,,,,,,,,,,,,67e48a4418f934bfb160fbc2,001,3,2025-03-27_18h40.55.132,avatar_quest_3AFC_legacy,2022.1.3,Win32,61.34969325,67e48a4418f934bfb160fbc2,67e5c8c9bc10e40b86efc6fc,67e5d22468e090a160b596df,,,,,,,,,,,,,,,,,,,,,,With Brainslug No Barriers With Money,0,images/assets/snowy_money.jpg,learning,10,images/assets/success_money.jpg,images/assets/gameover.jpg,,,,,,,,,,,,,0,10,10,4,1,,,,,,,,,,,,,,,,,,,,,,,,,,,,,,,,
,,,,,,,,,,,,67e48a4418f934bfb160fbc2,001,3,2025-03-27_18h40.55.132,avatar_quest_3AFC_legacy,2022.1.3,Win32,61.34969325,67e48a4418f934bfb160fbc2,67e5c8c9bc10e40b86efc6fc,67e5d22468e090a160b596df,,,,,,,,,,,,,,,,,,,,,,,,,,,,,,,,,,,,,,,,,,,,,,,,,,,,,,,10,0,10,0,1,,,,,,,,,,,,,,,,,,
,,,,,,,,,,,,67e48a4418f934bfb160fbc2,001,3,2025-03-27_18h40.55.132,avatar_quest_3AFC_legacy,2022.1.3,Win32,61.34969325,67e48a4418f934bfb160fbc2,67e5c8c9bc10e40b86efc6fc,67e5d22468e090a160b596df,,,,,,,,,,,,,,,,,,,,,,No Brainslug No Barriers With Money,0,images/assets/snowy_money.jpg,learning,10,images/assets/success_money.jpg,images/assets/gameover.jpg,,,,,,,,With Brainslug Difficult 1 No Money,With Brainslug Difficult 1 No Money,left,7.7377,"[""With Brainslug Difficult 2 No Money"",""With Brainslug Difficult 2 With Money""]",0,0,0,9,1,,,,,,,,,,,,,,,,,,,,,,,,,,,,,,,,
,,,,,,,,,,,,67e48a4418f934bfb160fbc2,001,3,2025-03-27_18h40.55.132,avatar_quest_3AFC_legacy,2022.1.3,Win32,61.34969325,67e48a4418f934bfb160fbc2,67e5c8c9bc10e40b86efc6fc,67e5d22468e090a160b596df,"[""right"",""left"",""left"",""left"",""right"",""left""]","[1.8098000001907621,2.5926000003814806,3.142199999809236,4.178199999809294,6.9046000003814925,8.845000000000027]",,calibration,With Brainslug Difficult 1 No Money,15,9.52665,9.535099999,4,2,0,FALSE,na,na,na,na,,,,,,,,,,,,,,,,,,,,,,,,,,,,,,,,,,0,0,0,0,1,,,,,,,,,,,,,,,,,,,,,,,
,,,,,,,,,,,,67e48a4418f934bfb160fbc2,001,3,2025-03-27_18h40.55.132,avatar_quest_3AFC_legacy,2022.1.3,Win32,61.34969325,67e48a4418f934bfb160fbc2,67e5c8c9bc10e40b86efc6fc,67e5d22468e090a160b596df,,,,,,,,,,,,,,,,,,,,,,With Brainslug Difficult 1 No Money,6,images/assets/snowy_original.jpg,learning,20,images/assets/success.jpg,images/assets/gameover.jpg,,,,,,,,,,,,,0,1,1,1,1,,,,,,,,,,,,,,,,,,,,,,,,,,,,,,,,
,,,,,,,,,,,,67e48a4418f934bfb160fbc2,001,3,2025-03-27_18h40.55.132,avatar_quest_3AFC_legacy,2022.1.3,Win32,61.34969325,67e48a4418f934bfb160fbc2,67e5c8c9bc10e40b86efc6fc,67e5d22468e090a160b596df,,,,,,,,,,,,,,,,,,,,,,With Brainslug Difficult 2 With Money,12,images/assets/snowy_money.jpg,learning,20,images/assets/success_money.jpg,images/assets/gameover.jpg,,,,,,,,,,,,,0,2,2,2,1,,,,,,,,,,,,,,,,,,,,,,,,,,,,,,,,
,,,,,,,,,,,,67e48a4418f934bfb160fbc2,001,3,2025-03-27_18h40.55.132,avatar_quest_3AFC_legacy,2022.1.3,Win32,61.34969325,67e48a4418f934bfb160fbc2,67e5c8c9bc10e40b86efc6fc,67e5d22468e090a160b596df,,,,,,,,,,,,,,,,,,,,,,With Brainslug Difficult 1 With Money,6,images/assets/snowy_money.jpg,learning,20,images/assets/success_money.jpg,images/assets/gameover.jpg,,,,,,,,,,,,,0,3,3,0,1,,,,,,,,,,,,,,,,,,,,,,,,,,,,,,,,
,,,,,,,,,,,,67e48a4418f934bfb160fbc2,001,3,2025-03-27_18h40.55.132,avatar_quest_3AFC_legacy,2022.1.3,Win32,61.34969325,67e48a4418f934bfb160fbc2,67e5c8c9bc10e40b86efc6fc,67e5d22468e090a160b596df,,,,,,,,,,,,,,,,,,,,,,With Brainslug Difficult 2 No Money,12,images/assets/snowy_original.jpg,learning,20,images/assets/success.jpg,images/assets/gameover.jpg,,,,,,,,,,,,,0,4,4,3,1,,,,,,,,,,,,,,,,,,,,,,,,,,,,,,,,
,,,,,,,,,,,,67e48a4418f934bfb160fbc2,001,3,2025-03-27_18h40.55.132,avatar_quest_3AFC_legacy,2022.1.3,Win32,61.34969325,67e48a4418f934bfb160fbc2,67e5c8c9bc10e40b86efc6fc,67e5d22468e090a160b596df,,,,,,,,,,,,,,,,,,,,,,No Brainslug Difficult 2 No Money,12,images/assets/snowy_original.jpg,learning,20,images/assets/success.jpg,images/assets/gameover.jpg,,,,,,,,,,,,,0,5,5,8,1,,,,,,,,,,,,,,,,,,,,,,,,,,,,,,,,
,,,,,,,,,,,,67e48a4418f934bfb160fbc2,001,3,2025-03-27_18h40.55.132,avatar_quest_3AFC_legacy,2022.1.3,Win32,61.34969325,67e48a4418f934bfb160fbc2,67e5c8c9bc10e40b86efc6fc,67e5d22468e090a160b596df,,,,,,,,,,,,,,,,,,,,,,No Brainslug Difficult 1 No Money,6,images/assets/snowy_original.jpg,learning,20,images/assets/success.jpg,images/assets/gameover.jpg,,,,,,,,,,,,,0,6,6,6,1,,,,,,,,,,,,,,,,,,,,,,,,,,,,,,,,
,,,,,,,,,,,,67e48a4418f934bfb160fbc2,001,3,2025-03-27_18h40.55.132,avatar_quest_3AFC_legacy,2022.1.3,Win32,61.34969325,67e48a4418f934bfb160fbc2,67e5c8c9bc10e40b86efc6fc,67e5d22468e090a160b596df,,,,,,,,,,,,,,,,,,,,,,With Brainslug No Barriers No Money,0,images/assets/snowy_original.jpg,learning,10,images/assets/success.jpg,images/assets/gameover.jpg,,,,,,,,,,,,,0,7,7,5,1,,,,,,,,,,,,,,,,,,,,,,,,,,,,,,,,
,,,,,,,,,,,,67e48a4418f934bfb160fbc2,001,3,2025-03-27_18h40.55.132,avatar_quest_3AFC_legacy,2022.1.3,Win32,61.34969325,67e48a4418f934bfb160fbc2,67e5c8c9bc10e40b86efc6fc,67e5d22468e090a160b596df,,,,,,,,,,,,,,,,,,,,,,With Brainslug No Barriers With Money,0,images/assets/snowy_money.jpg,learning,10,images/assets/success_money.jpg,images/assets/gameover.jpg,,,,,,,,,,,,,0,8,8,4,1,,,,,,,,,,,,,,,,,,,,,,,,,,,,,,,,
,,,,,,,,,,,,67e48a4418f934bfb160fbc2,001,3,2025-03-27_18h40.55.132,avatar_quest_3AFC_legacy,2022.1.3,Win32,61.34969325,67e48a4418f934bfb160fbc2,67e5c8c9bc10e40b86efc6fc,67e5d22468e090a160b596df,,,,,,,,,,,,,,,,,,,,,,No Brainslug Difficult 2 With Money,12,images/assets/snowy_money.jpg,learning,20,images/assets/success_money.jpg,images/assets/gameover.jpg,,,,,,,,,,,,,0,9,9,7,1,,,,,,,,,,,,,,,,,,,,,,,,,,,,,,,,
,,,,,,,,,,,,67e48a4418f934bfb160fbc2,001,3,2025-03-27_18h40.55.132,avatar_quest_3AFC_legacy,2022.1.3,Win32,61.34969325,67e48a4418f934bfb160fbc2,67e5c8c9bc10e40b86efc6fc,67e5d22468e090a160b596df,,,,,,,,,,,,,,,,,,,,,,No Brainslug No Barriers No Money,0,images/assets/snowy_original.jpg,learning,10,images/assets/success.jpg,images/assets/gameover.jpg,,,,,,,,,,,,,0,10,10,10,1,,,,,,,,,,,,,,,,,,,,,,,,,,,,,,,,
,,,,,,,,,,,,67e48a4418f934bfb160fbc2,001,3,2025-03-27_18h40.55.132,avatar_quest_3AFC_legacy,2022.1.3,Win32,61.34969325,67e48a4418f934bfb160fbc2,67e5c8c9bc10e40b86efc6fc,67e5d22468e090a160b596df,,,,,,,,,,,,,,,,,,,,,,,,,,,,,,,,,,,,,,,,,,,,,,,,,,,,,,,11,0,11,0,1,,,,,,,,,,,,,,,,,,
,,,,,,,,,,,,67e48a4418f934bfb160fbc2,001,3,2025-03-27_18h40.55.132,avatar_quest_3AFC_legacy,2022.1.3,Win32,61.34969325,67e48a4418f934bfb160fbc2,67e5c8c9bc10e40b86efc6fc,67e5d22468e090a160b596df,,,,,,,,,,,,,,,,,,,,,,,,,,,,,,,,,,,,,,,,,,,,,,,,,,,,,,,,,,,,0,0,0,0,1,1,With Brainslug Difficult 1 No Money,images/assets/With Brainslug Difficult 1 No Money.png,With Brainslug Difficult 2 No Money,images/assets/With Brainslug Difficult 2 No Money.png,With Brainslug Difficult 2 With Money,images/assets/With Brainslug Difficult 2 With Money.png,Achievement vs. money,,,,,
,,,,,,,,,,,,67e48a4418f934bfb160fbc2,001,3,2025-03-27_18h40.55.132,avatar_quest_3AFC_legacy,2022.1.3,Win32,61.34969325,67e48a4418f934bfb160fbc2,67e5c8c9bc10e40b86efc6fc,67e5d22468e090a160b596df,,,,,,,,,,,,,,,,,,,,,,No Brainslug Difficult 2 With Money,12,images/assets/snowy_money.jpg,learning,20,images/assets/success_money.jpg,images/assets/gameover.jpg,,,,,,,,No Brainslug Difficult 1 No Money,No Brainslug No Barriers No Money,down,10.6876,"[""No Brainslug No Barriers No Money"",""No Brainslug No Barriers With Money""]",0,0,0,7,1,,,,,,,,,,,,,,,,,,,,,,,,,,,,,,,,
,,,,,,,,,,,,67e48a4418f934bfb160fbc2,001,3,2025-03-27_18h40.55.132,avatar_quest_3AFC_legacy,2022.1.3,Win32,61.34969325,67e48a4418f934bfb160fbc2,67e5c8c9bc10e40b86efc6fc,67e5d22468e090a160b596df,,,,,,,,,,,,,,,,,,,,,,No Brainslug No Barriers No Money,0,images/assets/snowy_original.jpg,learning,10,images/assets/success.jpg,images/assets/gameover.jpg,,,,,,,,,,,,,0,1,1,10,1,,,,,,,,,,,,,,,,,,,,,,,,,,,,,,,,
,,,,,,,,,,,,67e48a4418f934bfb160fbc2,001,3,2025-03-27_18h40.55.132,avatar_quest_3AFC_legacy,2022.1.3,Win32,61.34969325,67e48a4418f934bfb160fbc2,67e5c8c9bc10e40b86efc6fc,67e5d22468e090a160b596df,,,,,,,,,,,,,,,,,,,,,,With Brainslug Difficult 1 With Money,6,images/assets/snowy_money.jpg,learning,20,images/assets/success_money.jpg,images/assets/gameover.jpg,,,,,,,,,,,,,0,2,2,0,1,,,,,,,,,,,,,,,,,,,,,,,,,,,,,,,,
,,,,,,,,,,,,67e48a4418f934bfb160fbc2,001,3,2025-03-27_18h40.55.132,avatar_quest_3AFC_legacy,2022.1.3,Win32,61.34969325,67e48a4418f934bfb160fbc2,67e5c8c9bc10e40b86efc6fc,67e5d22468e090a160b596df,,,,,,,,,,,,,,,,,,,,,,No Brainslug Difficult 2 No Money,12,images/assets/snowy_original.jpg,learning,20,images/assets/success.jpg,images/assets/gameover.jpg,,,,,,,,,,,,,0,3,3,8,1,,,,,,,,,,,,,,,,,,,,,,,,,,,,,,,,
,,,,,,,,,,,,67e48a4418f934bfb160fbc2,001,3,2025-03-27_18h40.55.132,avatar_quest_3AFC_legacy,2022.1.3,Win32,61.34969325,67e48a4418f934bfb160fbc2,67e5c8c9bc10e40b86efc6fc,67e5d22468e090a160b596df,"[""left"",""right"",""right"",""left""]","[2.896399999618552,4.700699999809217,6.748899999618516,9.330199999809224]",,calibration,No Brainslug Difficult 1 No Money,16,9.52665,9.5409,4,3,0,FALSE,na,na,na,na,,,,,,,,,,,,,,,,,,,,,,,,,,,,,,,,,,0,0,0,0,1,,,,,,,,,,,,,,,,,,,,,,,
,,,,,,,,,,,,67e48a4418f934bfb160fbc2,001,3,2025-03-27_18h40.55.132,avatar_quest_3AFC_legacy,2022.1.3,Win32,61.34969325,67e48a4418f934bfb160fbc2,67e5c8c9bc10e40b86efc6fc,67e5d22468e090a160b596df,,,,,,,,,,,,,,,,,,,,,,No Brainslug Difficult 1 No Money,6,images/assets/snowy_original.jpg,learning,20,images/assets/success.jpg,images/assets/gameover.jpg,,,,,,,,,,,,,0,4,4,6,1,,,,,,,,,,,,,,,,,,,,,,,,,,,,,,,,
,,,,,,,,,,,,67e48a4418f934bfb160fbc2,001,3,2025-03-27_18h40.55.132,avatar_quest_3AFC_legacy,2022.1.3,Win32,61.34969325,67e48a4418f934bfb160fbc2,67e5c8c9bc10e40b86efc6fc,67e5d22468e090a160b596df,,,,,,,,,,,,,,,,,,,,,,With Brainslug No Barriers With Money,0,images/assets/snowy_money.jpg,learning,10,images/assets/success_money.jpg,images/assets/gameover.jpg,,,,,,,,,,,,,0,5,5,4,1,,,,,,,,,,,,,,,,,,,,,,,,,,,,,,,,
,,,,,,,,,,,,67e48a4418f934bfb160fbc2,001,3,2025-03-27_18h40.55.132,avatar_quest_3AFC_legacy,2022.1.3,Win32,61.34969325,67e48a4418f934bfb160fbc2,67e5c8c9bc10e40b86efc6fc,67e5d22468e090a160b596df,,,,,,,,,,,,,,,,,,,,,,With Brainslug Difficult 1 No Money,6,images/assets/snowy_original.jpg,learning,20,images/assets/success.jpg,images/assets/gameover.jpg,,,,,,,,,,,,,0,6,6,1,1,,,,,,,,,,,,,,,,,,,,,,,,,,,,,,,,
,,,,,,,,,,,,67e48a4418f934bfb160fbc2,001,3,2025-03-27_18h40.55.132,avatar_quest_3AFC_legacy,2022.1.3,Win32,61.34969325,67e48a4418f934bfb160fbc2,67e5c8c9bc10e40b86efc6fc,67e5d22468e090a160b596df,,,,,,,,,,,,,,,,,,,,,,With Brainslug No Barriers No Money,0,images/assets/snowy_original.jpg,learning,10,images/assets/success.jpg,images/assets/gameover.jpg,,,,,,,,,,,,,0,7,7,5,1,,,,,,,,,,,,,,,,,,,,,,,,,,,,,,,,
,,,,,,,,,,,,67e48a4418f934bfb160fbc2,001,3,2025-03-27_18h40.55.132,avatar_quest_3AFC_legacy,2022.1.3,Win32,61.34969325,67e48a4418f934bfb160fbc2,67e5c8c9bc10e40b86efc6fc,67e5d22468e090a160b596df,,,,,,,,,,,,,,,,,,,,,,No Brainslug No Barriers With Money,0,images/assets/snowy_money.jpg,learning,10,images/assets/success_money.jpg,images/assets/gameover.jpg,,,,,,,,,,,,,0,8,8,9,1,,,,,,,,,,,,,,,,,,,,,,,,,,,,,,,,
,,,,,,,,,,,,67e48a4418f934bfb160fbc2,001,3,2025-03-27_18h40.55.132,avatar_quest_3AFC_legacy,2022.1.3,Win32,61.34969325,67e48a4418f934bfb160fbc2,67e5c8c9bc10e40b86efc6fc,67e5d22468e090a160b596df,,,,,,,,,,,,,,,,,,,,,,With Brainslug Difficult 2 With Money,12,images/assets/snowy_money.jpg,learning,20,images/assets/success_money.jpg,images/assets/gameover.jpg,,,,,,,,,,,,,0,9,9,2,1,,,,,,,,,,,,,,,,,,,,,,,,,,,,,,,,
,,,,,,,,,,,,67e48a4418f934bfb160fbc2,001,3,2025-03-27_18h40.55.132,avatar_quest_3AFC_legacy,2022.1.3,Win32,61.34969325,67e48a4418f934bfb160fbc2,67e5c8c9bc10e40b86efc6fc,67e5d22468e090a160b596df,,,,,,,,,,,,,,,,,,,,,,With Brainslug Difficult 2 No Money,12,images/assets/snowy_original.jpg,learning,20,images/assets/success.jpg,images/assets/gameover.jpg,,,,,,,,,,,,,0,10,10,3,1,,,,,,,,,,,,,,,,,,,,,,,,,,,,,,,,
,,,,,,,,,,,,67e48a4418f934bfb160fbc2,001,3,2025-03-27_18h40.55.132,avatar_quest_3AFC_legacy,2022.1.3,Win32,61.34969325,67e48a4418f934bfb160fbc2,67e5c8c9bc10e40b86efc6fc,67e5d22468e090a160b596df,,,,,,,,,,,,,,,,,,,,,,,,,,,,,,,,,,,,,,,,,,,,,,,,,,,,,,,0,0,0,0,1,,,,,,,,,,,,,,,,,,
,,,,,,,,,,,,67e48a4418f934bfb160fbc2,001,3,2025-03-27_18h40.55.132,avatar_quest_3AFC_legacy,2022.1.3,Win32,61.34969325,67e48a4418f934bfb160fbc2,67e5c8c9bc10e40b86efc6fc,67e5d22468e090a160b596df,,,,,,,,,,,,,,,,,,,,,,With Brainslug Difficult 1 No Money,6,images/assets/snowy_original.jpg,learning,20,images/assets/success.jpg,images/assets/gameover.jpg,,,,,,,,No Brainslug No Barriers No Money,No Brainslug No Barriers No Money,left,2.1045,"[""No Brainslug Difficult 1 No Money"",""No Brainslug No Barriers With Money""]",0,0,0,1,1,,,,,,,,,,,,,,,,,,,,,,,,,,,,,,,,
,,,,,,,,,,,,67e48a4418f934bfb160fbc2,001,3,2025-03-27_18h40.55.132,avatar_quest_3AFC_legacy,2022.1.3,Win32,61.34969325,67e48a4418f934bfb160fbc2,67e5c8c9bc10e40b86efc6fc,67e5d22468e090a160b596df,,,,,,,,,,,,,,,,,,,,,,No Brainslug Difficult 2 With Money,12,images/assets/snowy_money.jpg,learning,20,images/assets/success_money.jpg,images/assets/gameover.jpg,,,,,,,,,,,,,0,1,1,7,1,,,,,,,,,,,,,,,,,,,,,,,,,,,,,,,,
,,,,,,,,,,,,67e48a4418f934bfb160fbc2,001,3,2025-03-27_18h40.55.132,avatar_quest_3AFC_legacy,2022.1.3,Win32,61.34969325,67e48a4418f934bfb160fbc2,67e5c8c9bc10e40b86efc6fc,67e5d22468e090a160b596df,,,,,,,,,,,,,,,,,,,,,,No Brainslug Difficult 1 No Money,6,images/assets/snowy_original.jpg,learning,20,images/assets/success.jpg,images/assets/gameover.jpg,,,,,,,,,,,,,0,2,2,6,1,,,,,,,,,,,,,,,,,,,,,,,,,,,,,,,,
,,,,,,,,,,,,67e48a4418f934bfb160fbc2,001,3,2025-03-27_18h40.55.132,avatar_quest_3AFC_legacy,2022.1.3,Win32,61.34969325,67e48a4418f934bfb160fbc2,67e5c8c9bc10e40b86efc6fc,67e5d22468e090a160b596df,"[""left"",""right""]","[2.6485999994278018,3.965399999618512]",,calibration,No Brainslug No Barriers No Money,17,7.62132,5.4777,2,0,0,TRUE,na,na,na,na,,,,,,,,,,,,,,,,,,,,,,,,,,,,,,,,,,0,0,0,0,1,,,,,,,,,,,,,,,,,,,,,,,
,,,,,,,,,,,,67e48a4418f934bfb160fbc2,001,3,2025-03-27_18h40.55.132,avatar_quest_3AFC_legacy,2022.1.3,Win32,61.34969325,67e48a4418f934bfb160fbc2,67e5c8c9bc10e40b86efc6fc,67e5d22468e090a160b596df,,,,,,,,,,,,,,,,,,,,,,No Brainslug No Barriers No Money,0,images/assets/snowy_original.jpg,learning,10,images/assets/success.jpg,images/assets/gameover.jpg,,,,,,,,,,,,,0,3,3,10,1,,,,,,,,,,,,,,,,,,,,,,,,,,,,,,,,
,,,,,,,,,,,,67e48a4418f934bfb160fbc2,001,3,2025-03-27_18h40.55.132,avatar_quest_3AFC_legacy,2022.1.3,Win32,61.34969325,67e48a4418f934bfb160fbc2,67e5c8c9bc10e40b86efc6fc,67e5d22468e090a160b596df,,,,,,,,,,,,,,,,,,,,,,With Brainslug Difficult 2 With Money,12,images/assets/snowy_money.jpg,learning,20,images/assets/success_money.jpg,images/assets/gameover.jpg,,,,,,,,,,,,,0,4,4,2,1,,,,,,,,,,,,,,,,,,,,,,,,,,,,,,,,
,,,,,,,,,,,,67e48a4418f934bfb160fbc2,001,3,2025-03-27_18h40.55.132,avatar_quest_3AFC_legacy,2022.1.3,Win32,61.34969325,67e48a4418f934bfb160fbc2,67e5c8c9bc10e40b86efc6fc,67e5d22468e090a160b596df,,,,,,,,,,,,,,,,,,,,,,No Brainslug No Barriers With Money,0,images/assets/snowy_money.jpg,learning,10,images/assets/success_money.jpg,images/assets/gameover.jpg,,,,,,,,,,,,,0,5,5,9,1,,,,,,,,,,,,,,,,,,,,,,,,,,,,,,,,
,,,,,,,,,,,,67e48a4418f934bfb160fbc2,001,3,2025-03-27_18h40.55.132,avatar_quest_3AFC_legacy,2022.1.3,Win32,61.34969325,67e48a4418f934bfb160fbc2,67e5c8c9bc10e40b86efc6fc,67e5d22468e090a160b596df,,,,,,,,,,,,,,,,,,,,,,With Brainslug Difficult 2 No Money,12,images/assets/snowy_original.jpg,learning,20,images/assets/success.jpg,images/assets/gameover.jpg,,,,,,,,,,,,,0,6,6,3,1,,,,,,,,,,,,,,,,,,,,,,,,,,,,,,,,
,,,,,,,,,,,,67e48a4418f934bfb160fbc2,001,3,2025-03-27_18h40.55.132,avatar_quest_3AFC_legacy,2022.1.3,Win32,61.34969325,67e48a4418f934bfb160fbc2,67e5c8c9bc10e40b86efc6fc,67e5d22468e090a160b596df,,,,,,,,,,,,,,,,,,,,,,With Brainslug No Barriers With Money,0,images/assets/snowy_money.jpg,learning,10,images/assets/success_money.jpg,images/assets/gameover.jpg,,,,,,,,,,,,,0,7,7,4,1,,,,,,,,,,,,,,,,,,,,,,,,,,,,,,,,
,,,,,,,,,,,,67e48a4418f934bfb160fbc2,001,3,2025-03-27_18h40.55.132,avatar_quest_3AFC_legacy,2022.1.3,Win32,61.34969325,67e48a4418f934bfb160fbc2,67e5c8c9bc10e40b86efc6fc,67e5d22468e090a160b596df,,,,,,,,,,,,,,,,,,,,,,With Brainslug No Barriers No Money,0,images/assets/snowy_original.jpg,learning,10,images/assets/success.jpg,images/assets/gameover.jpg,,,,,,,,,,,,,0,8,8,5,1,,,,,,,,,,,,,,,,,,,,,,,,,,,,,,,,
,,,,,,,,,,,,67e48a4418f934bfb160fbc2,001,3,2025-03-27_18h40.55.132,avatar_quest_3AFC_legacy,2022.1.3,Win32,61.34969325,67e48a4418f934bfb160fbc2,67e5c8c9bc10e40b86efc6fc,67e5d22468e090a160b596df,,,,,,,,,,,,,,,,,,,,,,With Brainslug Difficult 1 With Money,6,images/assets/snowy_money.jpg,learning,20,images/assets/success_money.jpg,images/assets/gameover.jpg,,,,,,,,,,,,,0,9,9,0,1,,,,,,,,,,,,,,,,,,,,,,,,,,,,,,,,
,,,,,,,,,,,,67e48a4418f934bfb160fbc2,001,3,2025-03-27_18h40.55.132,avatar_quest_3AFC_legacy,2022.1.3,Win32,61.34969325,67e48a4418f934bfb160fbc2,67e5c8c9bc10e40b86efc6fc,67e5d22468e090a160b596df,,,,,,,,,,,,,,,,,,,,,,No Brainslug Difficult 2 No Money,12,images/assets/snowy_original.jpg,learning,20,images/assets/success.jpg,images/assets/gameover.jpg,,,,,,,,,,,,,0,10,10,8,1,,,,,,,,,,,,,,,,,,,,,,,,,,,,,,,,
,,,,,,,,,,,,67e48a4418f934bfb160fbc2,001,3,2025-03-27_18h40.55.132,avatar_quest_3AFC_legacy,2022.1.3,Win32,61.34969325,67e48a4418f934bfb160fbc2,67e5c8c9bc10e40b86efc6fc,67e5d22468e090a160b596df,,,,,,,,,,,,,,,,,,,,,,,,,,,,,,,,,,,,,,,,,,,,,,,,,,,,,,,1,0,1,0,1,,,,,,,,,,,,,,,,,,
,,,,,,,,,,,,67e48a4418f934bfb160fbc2,001,3,2025-03-27_18h40.55.132,avatar_quest_3AFC_legacy,2022.1.3,Win32,61.34969325,67e48a4418f934bfb160fbc2,67e5c8c9bc10e40b86efc6fc,67e5d22468e090a160b596df,,,,,,,,,,,,,,,,,,,,,,With Brainslug No Barriers With Money,0,images/assets/snowy_money.jpg,learning,10,images/assets/success_money.jpg,images/assets/gameover.jpg,,,,,,,,No Brainslug Difficult 1 No Money,No Brainslug No Barriers No Money,down,3.7208,"[""No Brainslug No Barriers No Money"",""No Brainslug No Barriers With Money""]",0,0,0,4,1,,,,,,,,,,,,,,,,,,,,,,,,,,,,,,,,
,,,,,,,,,,,,67e48a4418f934bfb160fbc2,001,3,2025-03-27_18h40.55.132,avatar_quest_3AFC_legacy,2022.1.3,Win32,61.34969325,67e48a4418f934bfb160fbc2,67e5c8c9bc10e40b86efc6fc,67e5d22468e090a160b596df,,,,,,,,,,,,,,,,,,,,,,No Brainslug Difficult 2 No Money,12,images/assets/snowy_original.jpg,learning,20,images/assets/success.jpg,images/assets/gameover.jpg,,,,,,,,,,,,,0,1,1,8,1,,,,,,,,,,,,,,,,,,,,,,,,,,,,,,,,
,,,,,,,,,,,,67e48a4418f934bfb160fbc2,001,3,2025-03-27_18h40.55.132,avatar_quest_3AFC_legacy,2022.1.3,Win32,61.34969325,67e48a4418f934bfb160fbc2,67e5c8c9bc10e40b86efc6fc,67e5d22468e090a160b596df,,,,,,,,,,,,,,,,,,,,,,With Brainslug Difficult 1 No Money,6,images/assets/snowy_original.jpg,learning,20,images/assets/success.jpg,images/assets/gameover.jpg,,,,,,,,,,,,,0,2,2,1,1,,,,,,,,,,,,,,,,,,,,,,,,,,,,,,,,
,,,,,,,,,,,,67e48a4418f934bfb160fbc2,001,3,2025-03-27_18h40.55.132,avatar_quest_3AFC_legacy,2022.1.3,Win32,61.34969325,67e48a4418f934bfb160fbc2,67e5c8c9bc10e40b86efc6fc,67e5d22468e090a160b596df,,,,,,,,,,,,,,,,,,,,,,With Brainslug No Barriers No Money,0,images/assets/snowy_original.jpg,learning,10,images/assets/success.jpg,images/assets/gameover.jpg,,,,,,,,,,,,,0,3,3,5,1,,,,,,,,,,,,,,,,,,,,,,,,,,,,,,,,
,,,,,,,,,,,,67e48a4418f934bfb160fbc2,001,3,2025-03-27_18h40.55.132,avatar_quest_3AFC_legacy,2022.1.3,Win32,61.34969325,67e48a4418f934bfb160fbc2,67e5c8c9bc10e40b86efc6fc,67e5d22468e090a160b596df,,,,,,,,,,,,,,,,,,,,,,No Brainslug Difficult 2 With Money,12,images/assets/snowy_money.jpg,learning,20,images/assets/success_money.jpg,images/assets/gameover.jpg,,,,,,,,,,,,,0,4,4,7,1,,,,,,,,,,,,,,,,,,,,,,,,,,,,,,,,
,,,,,,,,,,,,67e48a4418f934bfb160fbc2,001,3,2025-03-27_18h40.55.132,avatar_quest_3AFC_legacy,2022.1.3,Win32,61.34969325,67e48a4418f934bfb160fbc2,67e5c8c9bc10e40b86efc6fc,67e5d22468e090a160b596df,,,,,,,,,,,,,,,,,,,,,,With Brainslug Difficult 2 No Money,12,images/assets/snowy_original.jpg,learning,20,images/assets/success.jpg,images/assets/gameover.jpg,,,,,,,,,,,,,0,5,5,3,1,,,,,,,,,,,,,,,,,,,,,,,,,,,,,,,,
,,,,,,,,,,,,67e48a4418f934bfb160fbc2,001,3,2025-03-27_18h40.55.132,avatar_quest_3AFC_legacy,2022.1.3,Win32,61.34969325,67e48a4418f934bfb160fbc2,67e5c8c9bc10e40b86efc6fc,67e5d22468e090a160b596df,"[""right"",""right"",""right"",""left"",""left"",""right""]","[2.2691999998093024,3.952400000572311,5.246800000190774,5.966000000000008,6.77900000000011,8.749100000381532]",,calibration,No Brainslug Difficult 1 No Money,18,9.52665,9.541,4,2,0,FALSE,na,na,na,na,,,,,,,,,,,,,,,,,,,,,,,,,,,,,,,,,,0,0,0,0,1,,,,,,,,,,,,,,,,,,,,,,,
,,,,,,,,,,,,67e48a4418f934bfb160fbc2,001,3,2025-03-27_18h40.55.132,avatar_quest_3AFC_legacy,2022.1.3,Win32,61.34969325,67e48a4418f934bfb160fbc2,67e5c8c9bc10e40b86efc6fc,67e5d22468e090a160b596df,,,,,,,,,,,,,,,,,,,,,,No Brainslug Difficult 1 No Money,6,images/assets/snowy_original.jpg,learning,20,images/assets/success.jpg,images/assets/gameover.jpg,,,,,,,,,,,,,0,6,6,6,1,,,,,,,,,,,,,,,,,,,,,,,,,,,,,,,,
,,,,,,,,,,,,67e48a4418f934bfb160fbc2,001,3,2025-03-27_18h40.55.132,avatar_quest_3AFC_legacy,2022.1.3,Win32,61.34969325,67e48a4418f934bfb160fbc2,67e5c8c9bc10e40b86efc6fc,67e5d22468e090a160b596df,,,,,,,,,,,,,,,,,,,,,,With Brainslug Difficult 2 With Money,12,images/assets/snowy_money.jpg,learning,20,images/assets/success_money.jpg,images/assets/gameover.jpg,,,,,,,,,,,,,0,7,7,2,1,,,,,,,,,,,,,,,,,,,,,,,,,,,,,,,,
,,,,,,,,,,,,67e48a4418f934bfb160fbc2,001,3,2025-03-27_18h40.55.132,avatar_quest_3AFC_legacy,2022.1.3,Win32,61.34969325,67e48a4418f934bfb160fbc2,67e5c8c9bc10e40b86efc6fc,67e5d22468e090a160b596df,,,,,,,,,,,,,,,,,,,,,,No Brainslug No Barriers With Money,0,images/assets/snowy_money.jpg,learning,10,images/assets/success_money.jpg,images/assets/gameover.jpg,,,,,,,,,,,,,0,8,8,9,1,,,,,,,,,,,,,,,,,,,,,,,,,,,,,,,,
,,,,,,,,,,,,67e48a4418f934bfb160fbc2,001,3,2025-03-27_18h40.55.132,avatar_quest_3AFC_legacy,2022.1.3,Win32,61.34969325,67e48a4418f934bfb160fbc2,67e5c8c9bc10e40b86efc6fc,67e5d22468e090a160b596df,,,,,,,,,,,,,,,,,,,,,,With Brainslug Difficult 1 With Money,6,images/assets/snowy_money.jpg,learning,20,images/assets/success_money.jpg,images/assets/gameover.jpg,,,,,,,,,,,,,0,9,9,0,1,,,,,,,,,,,,,,,,,,,,,,,,,,,,,,,,
,,,,,,,,,,,,67e48a4418f934bfb160fbc2,001,3,2025-03-27_18h40.55.132,avatar_quest_3AFC_legacy,2022.1.3,Win32,61.34969325,67e48a4418f934bfb160fbc2,67e5c8c9bc10e40b86efc6fc,67e5d22468e090a160b596df,,,,,,,,,,,,,,,,,,,,,,No Brainslug No Barriers No Money,0,images/assets/snowy_original.jpg,learning,10,images/assets/success.jpg,images/assets/gameover.jpg,,,,,,,,,,,,,0,10,10,10,1,,,,,,,,,,,,,,,,,,,,,,,,,,,,,,,,
,,,,,,,,,,,,67e48a4418f934bfb160fbc2,001,3,2025-03-27_18h40.55.132,avatar_quest_3AFC_legacy,2022.1.3,Win32,61.34969325,67e48a4418f934bfb160fbc2,67e5c8c9bc10e40b86efc6fc,67e5d22468e090a160b596df,,,,,,,,,,,,,,,,,,,,,,,,,,,,,,,,,,,,,,,,,,,,,,,,,,,,,,,2,0,2,0,1,,,,,,,,,,,,,,,,,,
,,,,,,,,,,,,67e48a4418f934bfb160fbc2,001,3,2025-03-27_18h40.55.132,avatar_quest_3AFC_legacy,2022.1.3,Win32,61.34969325,67e48a4418f934bfb160fbc2,67e5c8c9bc10e40b86efc6fc,67e5d22468e090a160b596df,,,,,,,,,,,,,,,,,,,,,,With Brainslug No Barriers No Money,0,images/assets/snowy_original.jpg,learning,10,images/assets/success.jpg,images/assets/gameover.jpg,,,,,,,,No Brainslug No Barriers With Money,No Brainslug No Barriers No Money,right,2.9155,"[""No Brainslug No Barriers No Money"",""No Brainslug Difficult 1 No Money""]",0,0,0,5,1,,,,,,,,,,,,,,,,,,,,,,,,,,,,,,,,
,,,,,,,,,,,,67e48a4418f934bfb160fbc2,001,3,2025-03-27_18h40.55.132,avatar_quest_3AFC_legacy,2022.1.3,Win32,61.34969325,67e48a4418f934bfb160fbc2,67e5c8c9bc10e40b86efc6fc,67e5d22468e090a160b596df,,,,,,,,,,,,,,,,,,,,,,No Brainslug Difficult 1 No Money,6,images/assets/snowy_original.jpg,learning,20,images/assets/success.jpg,images/assets/gameover.jpg,,,,,,,,,,,,,0,1,1,6,1,,,,,,,,,,,,,,,,,,,,,,,,,,,,,,,,
,,,,,,,,,,,,67e48a4418f934bfb160fbc2,001,3,2025-03-27_18h40.55.132,avatar_quest_3AFC_legacy,2022.1.3,Win32,61.34969325,67e48a4418f934bfb160fbc2,67e5c8c9bc10e40b86efc6fc,67e5d22468e090a160b596df,,,,,,,,,,,,,,,,,,,,,,With Brainslug Difficult 2 With Money,12,images/assets/snowy_money.jpg,learning,20,images/assets/success_money.jpg,images/assets/gameover.jpg,,,,,,,,,,,,,0,2,2,2,1,,,,,,,,,,,,,,,,,,,,,,,,,,,,,,,,
,,,,,,,,,,,,67e48a4418f934bfb160fbc2,001,3,2025-03-27_18h40.55.132,avatar_quest_3AFC_legacy,2022.1.3,Win32,61.34969325,67e48a4418f934bfb160fbc2,67e5c8c9bc10e40b86efc6fc,67e5d22468e090a160b596df,,,,,,,,,,,,,,,,,,,,,,With Brainslug No Barriers With Money,0,images/assets/snowy_money.jpg,learning,10,images/assets/success_money.jpg,images/assets/gameover.jpg,,,,,,,,,,,,,0,3,3,4,1,,,,,,,,,,,,,,,,,,,,,,,,,,,,,,,,
,,,,,,,,,,,,67e48a4418f934bfb160fbc2,001,3,2025-03-27_18h40.55.132,avatar_quest_3AFC_legacy,2022.1.3,Win32,61.34969325,67e48a4418f934bfb160fbc2,67e5c8c9bc10e40b86efc6fc,67e5d22468e090a160b596df,,,,,,,,,,,,,,,,,,,,,,No Brainslug Difficult 2 With Money,12,images/assets/snowy_money.jpg,learning,20,images/assets/success_money.jpg,images/assets/gameover.jpg,,,,,,,,,,,,,0,4,4,7,1,,,,,,,,,,,,,,,,,,,,,,,,,,,,,,,,
,,,,,,,,,,,,67e48a4418f934bfb160fbc2,001,3,2025-03-27_18h40.55.132,avatar_quest_3AFC_legacy,2022.1.3,Win32,61.34969325,67e48a4418f934bfb160fbc2,67e5c8c9bc10e40b86efc6fc,67e5d22468e090a160b596df,,,,,,,,,,,,,,,,,,,,,,With Brainslug Difficult 2 No Money,12,images/assets/snowy_original.jpg,learning,20,images/assets/success.jpg,images/assets/gameover.jpg,,,,,,,,,,,,,0,5,5,3,1,,,,,,,,,,,,,,,,,,,,,,,,,,,,,,,,
,,,,,,,,,,,,67e48a4418f934bfb160fbc2,001,3,2025-03-27_18h40.55.132,avatar_quest_3AFC_legacy,2022.1.3,Win32,61.34969325,67e48a4418f934bfb160fbc2,67e5c8c9bc10e40b86efc6fc,67e5d22468e090a160b596df,,,,,,,,,,,,,,,,,,,,,,With Brainslug Difficult 1 With Money,6,images/assets/snowy_money.jpg,learning,20,images/assets/success_money.jpg,images/assets/gameover.jpg,,,,,,,,,,,,,0,6,6,0,1,,,,,,,,,,,,,,,,,,,,,,,,,,,,,,,,
,,,,,,,,,,,,67e48a4418f934bfb160fbc2,001,3,2025-03-27_18h40.55.132,avatar_quest_3AFC_legacy,2022.1.3,Win32,61.34969325,67e48a4418f934bfb160fbc2,67e5c8c9bc10e40b86efc6fc,67e5d22468e090a160b596df,"[""left"",""left"",""right"",""right""]","[2.280999999999949,3.347599999427757,3.8304999999999154,4.213199999809262]",,calibration,No Brainslug No Barriers With Money,19,7.62132,5.5785,4,0,0,TRUE,na,na,na,na,,,,,,,,,,,,,,,,,,,,,,,,,,,,,,,,,,0,0,0,0,1,,,,,,,,,,,,,,,,,,,,,,,
,,,,,,,,,,,,67e48a4418f934bfb160fbc2,001,3,2025-03-27_18h40.55.132,avatar_quest_3AFC_legacy,2022.1.3,Win32,61.34969325,67e48a4418f934bfb160fbc2,67e5c8c9bc10e40b86efc6fc,67e5d22468e090a160b596df,,,,,,,,,,,,,,,,,,,,,,No Brainslug No Barriers With Money,0,images/assets/snowy_money.jpg,learning,10,images/assets/success_money.jpg,images/assets/gameover.jpg,,,,,,,,,,,,,0,7,7,9,1,,,,,,,,,,,,,,,,,,,,,,,,,,,,,,,,
,,,,,,,,,,,,67e48a4418f934bfb160fbc2,001,3,2025-03-27_18h40.55.132,avatar_quest_3AFC_legacy,2022.1.3,Win32,61.34969325,67e48a4418f934bfb160fbc2,67e5c8c9bc10e40b86efc6fc,67e5d22468e090a160b596df,,,,,,,,,,,,,,,,,,,,,,No Brainslug Difficult 2 No Money,12,images/assets/snowy_original.jpg,learning,20,images/assets/success.jpg,images/assets/gameover.jpg,,,,,,,,,,,,,0,8,8,8,1,,,,,,,,,,,,,,,,,,,,,,,,,,,,,,,,
,,,,,,,,,,,,67e48a4418f934bfb160fbc2,001,3,2025-03-27_18h40.55.132,avatar_quest_3AFC_legacy,2022.1.3,Win32,61.34969325,67e48a4418f934bfb160fbc2,67e5c8c9bc10e40b86efc6fc,67e5d22468e090a160b596df,,,,,,,,,,,,,,,,,,,,,,No Brainslug No Barriers No Money,0,images/assets/snowy_original.jpg,learning,10,images/assets/success.jpg,images/assets/gameover.jpg,,,,,,,,,,,,,0,9,9,10,1,,,,,,,,,,,,,,,,,,,,,,,,,,,,,,,,
,,,,,,,,,,,,67e48a4418f934bfb160fbc2,001,3,2025-03-27_18h40.55.132,avatar_quest_3AFC_legacy,2022.1.3,Win32,61.34969325,67e48a4418f934bfb160fbc2,67e5c8c9bc10e40b86efc6fc,67e5d22468e090a160b596df,,,,,,,,,,,,,,,,,,,,,,With Brainslug Difficult 1 No Money,6,images/assets/snowy_original.jpg,learning,20,images/assets/success.jpg,images/assets/gameover.jpg,,,,,,,,,,,,,0,10,10,1,1,,,,,,,,,,,,,,,,,,,,,,,,,,,,,,,,
,,,,,,,,,,,,67e48a4418f934bfb160fbc2,001,3,2025-03-27_18h40.55.132,avatar_quest_3AFC_legacy,2022.1.3,Win32,61.34969325,67e48a4418f934bfb160fbc2,67e5c8c9bc10e40b86efc6fc,67e5d22468e090a160b596df,,,,,,,,,,,,,,,,,,,,,,,,,,,,,,,,,,,,,,,,,,,,,,,,,,,,,,,3,0,3,0,1,,,,,,,,,,,,,,,,,,
,,,,,,,,,,,,67e48a4418f934bfb160fbc2,001,3,2025-03-27_18h40.55.132,avatar_quest_3AFC_legacy,2022.1.3,Win32,61.34969325,67e48a4418f934bfb160fbc2,67e5c8c9bc10e40b86efc6fc,67e5d22468e090a160b596df,,,,,,,,,,,,,,,,,,,,,,No Brainslug No Barriers No Money,0,images/assets/snowy_original.jpg,learning,10,images/assets/success.jpg,images/assets/gameover.jpg,,,,,,,,No Brainslug No Barriers With Money,No Brainslug No Barriers No Money,right,2.133400001,"[""No Brainslug No Barriers No Money"",""No Brainslug Difficult 1 No Money""]",0,0,0,10,1,,,,,,,,,,,,,,,,,,,,,,,,,,,,,,,,
,,,,,,,,,,,,67e48a4418f934bfb160fbc2,001,3,2025-03-27_18h40.55.132,avatar_quest_3AFC_legacy,2022.1.3,Win32,61.34969325,67e48a4418f934bfb160fbc2,67e5c8c9bc10e40b86efc6fc,67e5d22468e090a160b596df,"[""left"",""right"",""right"",""right"",""left""]","[2.099699999809218,3.4484999999999673,5.211399999618493,6.466000000000008,7.449500000000057]",,calibration,No Brainslug No Barriers With Money,20,7.62132,7.627400001,4,0,1,FALSE,na,na,na,na,,,,,,,,,,,,,,,,,,,,,,,,,,,,,,,,,,0,0,0,0,1,,,,,,,,,,,,,,,,,,,,,,,
,,,,,,,,,,,,67e48a4418f934bfb160fbc2,001,3,2025-03-27_18h40.55.132,avatar_quest_3AFC_legacy,2022.1.3,Win32,61.34969325,67e48a4418f934bfb160fbc2,67e5c8c9bc10e40b86efc6fc,67e5d22468e090a160b596df,,,,,,,,,,,,,,,,,,,,,,No Brainslug No Barriers With Money,0,images/assets/snowy_money.jpg,learning,10,images/assets/success_money.jpg,images/assets/gameover.jpg,,,,,,,,,,,,,0,1,1,9,1,,,,,,,,,,,,,,,,,,,,,,,,,,,,,,,,
,,,,,,,,,,,,67e48a4418f934bfb160fbc2,001,3,2025-03-27_18h40.55.132,avatar_quest_3AFC_legacy,2022.1.3,Win32,61.34969325,67e48a4418f934bfb160fbc2,67e5c8c9bc10e40b86efc6fc,67e5d22468e090a160b596df,,,,,,,,,,,,,,,,,,,,,,With Brainslug Difficult 1 With Money,6,images/assets/snowy_money.jpg,learning,20,images/assets/success_money.jpg,images/assets/gameover.jpg,,,,,,,,,,,,,0,2,2,0,1,,,,,,,,,,,,,,,,,,,,,,,,,,,,,,,,
,,,,,,,,,,,,67e48a4418f934bfb160fbc2,001,3,2025-03-27_18h40.55.132,avatar_quest_3AFC_legacy,2022.1.3,Win32,61.34969325,67e48a4418f934bfb160fbc2,67e5c8c9bc10e40b86efc6fc,67e5d22468e090a160b596df,,,,,,,,,,,,,,,,,,,,,,With Brainslug Difficult 2 With Money,12,images/assets/snowy_money.jpg,learning,20,images/assets/success_money.jpg,images/assets/gameover.jpg,,,,,,,,,,,,,0,3,3,2,1,,,,,,,,,,,,,,,,,,,,,,,,,,,,,,,,
,,,,,,,,,,,,67e48a4418f934bfb160fbc2,001,3,2025-03-27_18h40.55.132,avatar_quest_3AFC_legacy,2022.1.3,Win32,61.34969325,67e48a4418f934bfb160fbc2,67e5c8c9bc10e40b86efc6fc,67e5d22468e090a160b596df,,,,,,,,,,,,,,,,,,,,,,No Brainslug Difficult 2 With Money,12,images/assets/snowy_money.jpg,learning,20,images/assets/success_money.jpg,images/assets/gameover.jpg,,,,,,,,,,,,,0,4,4,7,1,,,,,,,,,,,,,,,,,,,,,,,,,,,,,,,,
,,,,,,,,,,,,67e48a4418f934bfb160fbc2,001,3,2025-03-27_18h40.55.132,avatar_quest_3AFC_legacy,2022.1.3,Win32,61.34969325,67e48a4418f934bfb160fbc2,67e5c8c9bc10e40b86efc6fc,67e5d22468e090a160b596df,,,,,,,,,,,,,,,,,,,,,,No Brainslug Difficult 2 No Money,12,images/assets/snowy_original.jpg,learning,20,images/assets/success.jpg,images/assets/gameover.jpg,,,,,,,,,,,,,0,5,5,8,1,,,,,,,,,,,,,,,,,,,,,,,,,,,,,,,,
,,,,,,,,,,,,67e48a4418f934bfb160fbc2,001,3,2025-03-27_18h40.55.132,avatar_quest_3AFC_legacy,2022.1.3,Win32,61.34969325,67e48a4418f934bfb160fbc2,67e5c8c9bc10e40b86efc6fc,67e5d22468e090a160b596df,,,,,,,,,,,,,,,,,,,,,,With Brainslug Difficult 2 No Money,12,images/assets/snowy_original.jpg,learning,20,images/assets/success.jpg,images/assets/gameover.jpg,,,,,,,,,,,,,0,6,6,3,1,,,,,,,,,,,,,,,,,,,,,,,,,,,,,,,,
,,,,,,,,,,,,67e48a4418f934bfb160fbc2,001,3,2025-03-27_18h40.55.132,avatar_quest_3AFC_legacy,2022.1.3,Win32,61.34969325,67e48a4418f934bfb160fbc2,67e5c8c9bc10e40b86efc6fc,67e5d22468e090a160b596df,,,,,,,,,,,,,,,,,,,,,,With Brainslug Difficult 1 No Money,6,images/assets/snowy_original.jpg,learning,20,images/assets/success.jpg,images/assets/gameover.jpg,,,,,,,,,,,,,0,7,7,1,1,,,,,,,,,,,,,,,,,,,,,,,,,,,,,,,,
,,,,,,,,,,,,67e48a4418f934bfb160fbc2,001,3,2025-03-27_18h40.55.132,avatar_quest_3AFC_legacy,2022.1.3,Win32,61.34969325,67e48a4418f934bfb160fbc2,67e5c8c9bc10e40b86efc6fc,67e5d22468e090a160b596df,,,,,,,,,,,,,,,,,,,,,,No Brainslug Difficult 1 No Money,6,images/assets/snowy_original.jpg,learning,20,images/assets/success.jpg,images/assets/gameover.jpg,,,,,,,,,,,,,0,8,8,6,1,,,,,,,,,,,,,,,,,,,,,,,,,,,,,,,,
,,,,,,,,,,,,67e48a4418f934bfb160fbc2,001,3,2025-03-27_18h40.55.132,avatar_quest_3AFC_legacy,2022.1.3,Win32,61.34969325,67e48a4418f934bfb160fbc2,67e5c8c9bc10e40b86efc6fc,67e5d22468e090a160b596df,,,,,,,,,,,,,,,,,,,,,,With Brainslug No Barriers No Money,0,images/assets/snowy_original.jpg,learning,10,images/assets/success.jpg,images/assets/gameover.jpg,,,,,,,,,,,,,0,9,9,5,1,,,,,,,,,,,,,,,,,,,,,,,,,,,,,,,,
,,,,,,,,,,,,67e48a4418f934bfb160fbc2,001,3,2025-03-27_18h40.55.132,avatar_quest_3AFC_legacy,2022.1.3,Win32,61.34969325,67e48a4418f934bfb160fbc2,67e5c8c9bc10e40b86efc6fc,67e5d22468e090a160b596df,,,,,,,,,,,,,,,,,,,,,,With Brainslug No Barriers With Money,0,images/assets/snowy_money.jpg,learning,10,images/assets/success_money.jpg,images/assets/gameover.jpg,,,,,,,,,,,,,0,10,10,4,1,,,,,,,,,,,,,,,,,,,,,,,,,,,,,,,,
,,,,,,,,,,,,67e48a4418f934bfb160fbc2,001,3,2025-03-27_18h40.55.132,avatar_quest_3AFC_legacy,2022.1.3,Win32,61.34969325,67e48a4418f934bfb160fbc2,67e5c8c9bc10e40b86efc6fc,67e5d22468e090a160b596df,,,,,,,,,,,,,,,,,,,,,,,,,,,,,,,,,,,,,,,,,,,,,,,,,,,,,,,4,0,4,0,1,,,,,,,,,,,,,,,,,,
