instruction_mouse.x,instruction_mouse.y,instruction_mouse.leftButton,instruction_mouse.midButton,instruction_mouse.rightButton,instruction_mouse.clicked_name,introduce_general.thisRepN,introduce_general.thisTrialN,introduce_general.thisN,introduce_general.thisIndex,introduce_general.ran,thisInstruction,participant,session,game version,date,expName,psychopyVersion,OS,frameRate,PROLIFIC PID,STUDY ID,SESSION ID,move_resp.keys,move_resp.rt,end_resp.keys,phase,condition,trial_num,time_limit,completion_time,left_right_steps,number_of_obsticle_blocks,number_of_tree_blocks,quest_complete,responsivity_summary,av_inter_brainslug_intervals,proportion_jitter,jitter_direction_proportion_right,calibration_phase.thisRepN,calibration_phase.thisTrialN,calibration_phase.thisN,calibration_phase.thisIndex,calibration_phase.ran,BlockLabel,nObsticles,backgroundImage,phaseLabel,n_side_steps,success_im,gameover_im,success_condition,introduce_learning_or_choice.thisRepN,introduce_learning_or_choice.thisTrialN,introduce_learning_or_choice.thisN,introduce_learning_or_choice.thisIndex,introduce_learning_or_choice.ran,choice_resp.keys,chosen_quest,unchosen_quest,choice_resp_3afc.keys,choice_resp_3afc.rt,unchosen_quests,forced_choice_trial.thisRepN,forced_choice_trial.thisTrialN,forced_choice_trial.thisN,forced_choice_trial.thisIndex,forced_choice_trial.ran,enjoyment_slider.response,enjoyment_slider.rt,effort_slider.response,effort_slider.rt,show_loop2.thisRepN,show_loop2.thisTrialN,show_loop2.thisN,show_loop2.thisIndex,show_loop2.ran,trials_per_block.thisRepN,trials_per_block.thisTrialN,trials_per_block.thisN,trials_per_block.thisIndex,trials_per_block.ran,decision_phase_AFC.thisRepN,decision_phase_AFC.thisTrialN,decision_phase_AFC.thisN,decision_phase_AFC.thisIndex,decision_phase_AFC.ran,blockN,BlockLabel1,questIm1,BlockLabel2,questIm2,BlockLabel3,questIm3,quest_condition,showForcedChoice.thisRepN,showForcedChoice.thisTrialN,showForcedChoice.thisN,showForcedChoice.thisIndex,showForcedChoice.ran
0.401851937,-0.400000042,1,0,0,instruction_button,0,0,0,0,1,images/instructions_part1_LSM_taskversion1/Slide1.JPG,67e7f3e23ebd43bbd2539bc7,001,3,2025-04-15_15h36.13.688,avatar_quest_3AFC_legacy,2022.1.3,Win32,59.52380952,67e7f3e23ebd43bbd2539bc7,67fe6e666cecbc9329ddf6d6,67fe7b1b8f061e28f8528e2c,,,,,,,,,,,,,,,,,,,,,,,,,,,,,,,,,,,,,,,,,,,,,,,,,,,,,,,,,,,,,,,,,,,,,,,,,,,,,
0.412963019,-0.397222236,1,0,0,instruction_button,0,1,1,1,1,images/instructions_part1_LSM_taskversion1/Slide2.JPG,67e7f3e23ebd43bbd2539bc7,001,3,2025-04-15_15h36.13.688,avatar_quest_3AFC_legacy,2022.1.3,Win32,59.52380952,67e7f3e23ebd43bbd2539bc7,67fe6e666cecbc9329ddf6d6,67fe7b1b8f061e28f8528e2c,,,,,,,,,,,,,,,,,,,,,,,,,,,,,,,,,,,,,,,,,,,,,,,,,,,,,,,,,,,,,,,,,,,,,,,,,,,,,
0.41851849,-0.400000042,1,0,0,instruction_button,0,2,2,2,1,images/instructions_part1_LSM_taskversion1/Slide3.JPG,67e7f3e23ebd43bbd2539bc7,001,3,2025-04-15_15h36.13.688,avatar_quest_3AFC_legacy,2022.1.3,Win32,59.52380952,67e7f3e23ebd43bbd2539bc7,67fe6e666cecbc9329ddf6d6,67fe7b1b8f061e28f8528e2c,,,,,,,,,,,,,,,,,,,,,,,,,,,,,,,,,,,,,,,,,,,,,,,,,,,,,,,,,,,,,,,,,,,,,,,,,,,,,
0.416666667,-0.396296325,1,0,0,instruction_button,0,3,3,3,1,images/instructions_part1_LSM_taskversion1/Slide3.5.JPG,67e7f3e23ebd43bbd2539bc7,001,3,2025-04-15_15h36.13.688,avatar_quest_3AFC_legacy,2022.1.3,Win32,59.52380952,67e7f3e23ebd43bbd2539bc7,67fe6e666cecbc9329ddf6d6,67fe7b1b8f061e28f8528e2c,,,,,,,,,,,,,,,,,,,,,,,,,,,,,,,,,,,,,,,,,,,,,,,,,,,,,,,,,,,,,,,,,,,,,,,,,,,,,
0.397222307,-0.395370413,1,0,0,instruction_button,0,4,4,4,1,images/instructions_part1_LSM_taskversion1/Slide4.JPG,67e7f3e23ebd43bbd2539bc7,001,3,2025-04-15_15h36.13.688,avatar_quest_3AFC_legacy,2022.1.3,Win32,59.52380952,67e7f3e23ebd43bbd2539bc7,67fe6e666cecbc9329ddf6d6,67fe7b1b8f061e28f8528e2c,,,,,,,,,,,,,,,,,,,,,,,,,,,,,,,,,,,,,,,,,,,,,,,,,,,,,,,,,,,,,,,,,,,,,,,,,,,,,
0.425000085,-0.407407407,1,0,0,instruction_button,0,5,5,5,1,images/instructions_part1_LSM_taskversion1/Slide6.5.JPG,67e7f3e23ebd43bbd2539bc7,001,3,2025-04-15_15h36.13.688,avatar_quest_3AFC_legacy,2022.1.3,Win32,59.52380952,67e7f3e23ebd43bbd2539bc7,67fe6e666cecbc9329ddf6d6,67fe7b1b8f061e28f8528e2c,,,,,,,,,,,,,,,,,,,,,,,,,,,,,,,,,,,,,,,,,,,,,,,,,,,,,,,,,,,,,,,,,,,,,,,,,,,,,
,,,,,,,,,,,,67e7f3e23ebd43bbd2539bc7,001,3,2025-04-15_15h36.13.688,avatar_quest_3AFC_legacy,2022.1.3,Win32,59.52380952,67e7f3e23ebd43bbd2539bc7,67fe6e666cecbc9329ddf6d6,67fe7b1b8f061e28f8528e2c,"[""left"",""left"",""right"",""right"",""right"",""right"",""right""]","[1.6129999999999995,2.4800999999940245,3.345599999994022,3.8967000000178587,4.279900000005966,4.713700000017866,5.0464999999999804]",,calibration,No Brainslug No Barriers No Money,1,100,5.4283,5,0,0,TRUE,na,na,na,na,0,0,0,0,1,No Brainslug No Barriers No Money,0,images/assets/snowy_original.jpg,calibration,10,images/assets/success.jpg,images/assets/gameover.jpg,never,,,,,,,,,,,,,,,,,,,,,,,,,,,,,,,,,,,,,,,,,,,,,,,,
,,,,,,,,,,,,67e7f3e23ebd43bbd2539bc7,001,3,2025-04-15_15h36.13.688,avatar_quest_3AFC_legacy,2022.1.3,Win32,59.52380952,67e7f3e23ebd43bbd2539bc7,67fe6e666cecbc9329ddf6d6,67fe7b1b8f061e28f8528e2c,"[""right"",""right"",""right"",""right"",""left"",""left"",""left"",""right"",""right"",""right"",""right"",""right"",""left""]","[0.1173000000119373,0.65119999998808,0.9004000000059591,1.067699999988065,1.9175999999940245,2.4010000000000105,2.6009000000059928,3.4499999999999886,3.9340999999940323,4.184300000011945,4.433699999988107,7.518000000000029,8.950099999994052]",,calibration,No Brainslug No Barriers No Money,2,100,10.1308,8,0,286,TRUE,na,na,na,na,0,1,1,2,1,No Brainslug No Barriers No Money,0,images/assets/snowy_original.jpg,calibration,10,images/assets/success.jpg,images/assets/gameover.jpg,never,,,,,,,,,,,,,,,,,,,,,,,,,,,,,,,,,,,,,,,,,,,,,,,,
,,,,,,,,,,,,67e7f3e23ebd43bbd2539bc7,001,3,2025-04-15_15h36.13.688,avatar_quest_3AFC_legacy,2022.1.3,Win32,59.52380952,67e7f3e23ebd43bbd2539bc7,67fe6e666cecbc9329ddf6d6,67fe7b1b8f061e28f8528e2c,"[""left"",""left"",""left"",""left"",""left"",""right"",""right"",""right"",""right"",""right"",""right"",""left"",""left"",""left"",""left"",""left""]","[2.100500000000011,2.634599999994009,2.8845000000000027,3.0841999999880727,3.2843000000119105,3.7174000000059664,3.900800000011884,4.084199999988073,4.284599999994043,4.717699999988042,4.900499999999965,5.384800000011921,5.583300000011889,5.8840000000000146,6.167400000005955,6.384699999988072]",,calibration,No Brainslug No Barriers No Money,3,100,6.4994,11,0,66,TRUE,na,na,na,na,0,2,2,1,1,No Brainslug No Barriers No Money,0,images/assets/snowy_original.jpg,calibration,10,images/assets/success.jpg,images/assets/gameover.jpg,never,,,,,,,,,,,,,,,,,,,,,,,,,,,,,,,,,,,,,,,,,,,,,,,,
0.40833339,-0.415740755,1,0,0,instruction_button,,,,,,images/instructions_part2_LSM_taskversion3.jpg,67e7f3e23ebd43bbd2539bc7,001,3,2025-04-15_15h36.13.688,avatar_quest_3AFC_legacy,2022.1.3,Win32,59.52380952,67e7f3e23ebd43bbd2539bc7,67fe6e666cecbc9329ddf6d6,67fe7b1b8f061e28f8528e2c,,,,,,,,,,,,,,,,,,,,,,,,,,,,,,0,0,0,0,1,,,,,,,,,,,,,,,,,,,,,,,,,,,,,,,,,,,,,,,,,,,
,,,,,,,,,,,,67e7f3e23ebd43bbd2539bc7,001,3,2025-04-15_15h36.13.688,avatar_quest_3AFC_legacy,2022.1.3,Win32,59.52380952,67e7f3e23ebd43bbd2539bc7,67fe6e666cecbc9329ddf6d6,67fe7b1b8f061e28f8528e2c,,,,,,,,,,,,,,,,,,,,,,With Brainslug Difficult 1 With Money,6,images/assets/snowy_money.jpg,learning,20,images/assets/success_money.jpg,images/assets/gameover.jpg,,,,,,,,With Brainslug Difficult 1 No Money,With Brainslug Difficult 1 No Money,left,4.2426,"[""With Brainslug Difficult 2 No Money"",""With Brainslug Difficult 2 With Money""]",0,0,0,0,1,,,,,,,,,,,,,,,,,,,,,,,,,,,,,,,,
,,,,,,,,,,,,67e7f3e23ebd43bbd2539bc7,001,3,2025-04-15_15h36.13.688,avatar_quest_3AFC_legacy,2022.1.3,Win32,59.52380952,67e7f3e23ebd43bbd2539bc7,67fe6e666cecbc9329ddf6d6,67fe7b1b8f061e28f8528e2c,,,,,,,,,,,,,,,,,,,,,,No Brainslug Difficult 2 With Money,12,images/assets/snowy_money.jpg,learning,20,images/assets/success_money.jpg,images/assets/gameover.jpg,,,,,,,,,,,,,0,1,1,7,1,,,,,,,,,,,,,,,,,,,,,,,,,,,,,,,,
,,,,,,,,,,,,67e7f3e23ebd43bbd2539bc7,001,3,2025-04-15_15h36.13.688,avatar_quest_3AFC_legacy,2022.1.3,Win32,59.52380952,67e7f3e23ebd43bbd2539bc7,67fe6e666cecbc9329ddf6d6,67fe7b1b8f061e28f8528e2c,,,,,,,,,,,,,,,,,,,,,,With Brainslug No Barriers With Money,0,images/assets/snowy_money.jpg,learning,10,images/assets/success_money.jpg,images/assets/gameover.jpg,,,,,,,,,,,,,0,2,2,4,1,,,,,,,,,,,,,,,,,,,,,,,,,,,,,,,,
,,,,,,,,,,,,67e7f3e23ebd43bbd2539bc7,001,3,2025-04-15_15h36.13.688,avatar_quest_3AFC_legacy,2022.1.3,Win32,59.52380952,67e7f3e23ebd43bbd2539bc7,67fe6e666cecbc9329ddf6d6,67fe7b1b8f061e28f8528e2c,,,,,,,,,,,,,,,,,,,,,,No Brainslug Difficult 1 No Money,6,images/assets/snowy_original.jpg,learning,20,images/assets/success.jpg,images/assets/gameover.jpg,,,,,,,,,,,,,0,3,3,6,1,,,,,,,,,,,,,,,,,,,,,,,,,,,,,,,,
,,,,,,,,,,,,67e7f3e23ebd43bbd2539bc7,001,3,2025-04-15_15h36.13.688,avatar_quest_3AFC_legacy,2022.1.3,Win32,59.52380952,67e7f3e23ebd43bbd2539bc7,67fe6e666cecbc9329ddf6d6,67fe7b1b8f061e28f8528e2c,,,,,,,,,,,,,,,,,,,,,,No Brainslug No Barriers No Money,0,images/assets/snowy_original.jpg,learning,10,images/assets/success.jpg,images/assets/gameover.jpg,,,,,,,,,,,,,0,4,4,10,1,,,,,,,,,,,,,,,,,,,,,,,,,,,,,,,,
,,,,,,,,,,,,67e7f3e23ebd43bbd2539bc7,001,3,2025-04-15_15h36.13.688,avatar_quest_3AFC_legacy,2022.1.3,Win32,59.52380952,67e7f3e23ebd43bbd2539bc7,67fe6e666cecbc9329ddf6d6,67fe7b1b8f061e28f8528e2c,,,,,,,,,,,,,,,,,,,,,,With Brainslug Difficult 2 No Money,12,images/assets/snowy_original.jpg,learning,20,images/assets/success.jpg,images/assets/gameover.jpg,,,,,,,,,,,,,0,5,5,3,1,,,,,,,,,,,,,,,,,,,,,,,,,,,,,,,,
,,,,,,,,,,,,67e7f3e23ebd43bbd2539bc7,001,3,2025-04-15_15h36.13.688,avatar_quest_3AFC_legacy,2022.1.3,Win32,59.52380952,67e7f3e23ebd43bbd2539bc7,67fe6e666cecbc9329ddf6d6,67fe7b1b8f061e28f8528e2c,,,,,,,,,,,,,,,,,,,,,,No Brainslug No Barriers With Money,0,images/assets/snowy_money.jpg,learning,10,images/assets/success_money.jpg,images/assets/gameover.jpg,,,,,,,,,,,,,0,6,6,9,1,,,,,,,,,,,,,,,,,,,,,,,,,,,,,,,,
,,,,,,,,,,,,67e7f3e23ebd43bbd2539bc7,001,3,2025-04-15_15h36.13.688,avatar_quest_3AFC_legacy,2022.1.3,Win32,59.52380952,67e7f3e23ebd43bbd2539bc7,67fe6e666cecbc9329ddf6d6,67fe7b1b8f061e28f8528e2c,,,,,,,,,,,,,,,,,,,,,,With Brainslug Difficult 2 With Money,12,images/assets/snowy_money.jpg,learning,20,images/assets/success_money.jpg,images/assets/gameover.jpg,,,,,,,,,,,,,0,7,7,2,1,,,,,,,,,,,,,,,,,,,,,,,,,,,,,,,,
,,,,,,,,,,,,67e7f3e23ebd43bbd2539bc7,001,3,2025-04-15_15h36.13.688,avatar_quest_3AFC_legacy,2022.1.3,Win32,59.52380952,67e7f3e23ebd43bbd2539bc7,67fe6e666cecbc9329ddf6d6,67fe7b1b8f061e28f8528e2c,,,,,,,,,,,,,,,,,,,,,,With Brainslug No Barriers No Money,0,images/assets/snowy_original.jpg,learning,10,images/assets/success.jpg,images/assets/gameover.jpg,,,,,,,,,,,,,0,8,8,5,1,,,,,,,,,,,,,,,,,,,,,,,,,,,,,,,,
,,,,,,,,,,,,67e7f3e23ebd43bbd2539bc7,001,3,2025-04-15_15h36.13.688,avatar_quest_3AFC_legacy,2022.1.3,Win32,59.52380952,67e7f3e23ebd43bbd2539bc7,67fe6e666cecbc9329ddf6d6,67fe7b1b8f061e28f8528e2c,"[""left"",""right"",""up"",""left"",""up"",""right"",""right"",""right"",""left"",""right"",""right"",""right"",""right"",""up"",""left"",""left"",""right""]","[4.025900000005947,4.425599999994063,4.841499999999996,4.924300000011954,5.342200000017897,5.725700000017866,6.024499999999989,6.424300000011954,7.0409000000059905,7.359000000000037,7.72470000001789,7.9662000000179205,8.530700000017873,9.766300000011938,9.897500000000036,10.281499999999994,10.697300000011921]",,calibration,With Brainslug Difficult 1 No Money,4,11.02925,11.0378,8,3,0,FALSE,na,na,na,na,,,,,,,,,,,,,,,,,,,,,,,,,,,,,,,,,,0,0,0,0,1,,,,,,,,,,,,,,,,,,,,,,,
,,,,,,,,,,,,67e7f3e23ebd43bbd2539bc7,001,3,2025-04-15_15h36.13.688,avatar_quest_3AFC_legacy,2022.1.3,Win32,59.52380952,67e7f3e23ebd43bbd2539bc7,67fe6e666cecbc9329ddf6d6,67fe7b1b8f061e28f8528e2c,,,,,,,,,,,,,,,,,,,,,,With Brainslug Difficult 1 No Money,6,images/assets/snowy_original.jpg,learning,20,images/assets/success.jpg,images/assets/gameover.jpg,,,,,,,,,,,,,0,9,9,1,1,,,,,,,,,,,,,,,,,,,,,,,,,,,,,,,,
,,,,,,,,,,,,67e7f3e23ebd43bbd2539bc7,001,3,2025-04-15_15h36.13.688,avatar_quest_3AFC_legacy,2022.1.3,Win32,59.52380952,67e7f3e23ebd43bbd2539bc7,67fe6e666cecbc9329ddf6d6,67fe7b1b8f061e28f8528e2c,,,,,,,,,,,,,,,,,,,,,,No Brainslug Difficult 2 No Money,12,images/assets/snowy_original.jpg,learning,20,images/assets/success.jpg,images/assets/gameover.jpg,,,,,,,,,,,,,0,10,10,8,1,,,,,,,,,,,,,,,,,,,,,,,,,,,,,,,,
,,,,,,,,,,,,67e7f3e23ebd43bbd2539bc7,001,3,2025-04-15_15h36.13.688,avatar_quest_3AFC_legacy,2022.1.3,Win32,59.52380952,67e7f3e23ebd43bbd2539bc7,67fe6e666cecbc9329ddf6d6,67fe7b1b8f061e28f8528e2c,,,,,,,,,,,,,,,,,,,,,,,,,,,,,,,,,,,,,,,,,,,,,,,,,,,,,,,0,0,0,0,1,,,,,,,,,,,,,,,,,,
,,,,,,,,,,,,67e7f3e23ebd43bbd2539bc7,001,3,2025-04-15_15h36.13.688,avatar_quest_3AFC_legacy,2022.1.3,Win32,59.52380952,67e7f3e23ebd43bbd2539bc7,67fe6e666cecbc9329ddf6d6,67fe7b1b8f061e28f8528e2c,,,,,,,,,,,,,,,,,,,,,,With Brainslug Difficult 2 No Money,12,images/assets/snowy_original.jpg,learning,20,images/assets/success.jpg,images/assets/gameover.jpg,,,,,,,,With Brainslug Difficult 2 With Money,With Brainslug Difficult 1 No Money,right,4.7602,"[""With Brainslug Difficult 1 No Money"",""With Brainslug Difficult 2 No Money""]",0,0,0,3,1,,,,,,,,,,,,,,,,,,,,,,,,,,,,,,,,
,,,,,,,,,,,,67e7f3e23ebd43bbd2539bc7,001,3,2025-04-15_15h36.13.688,avatar_quest_3AFC_legacy,2022.1.3,Win32,59.52380952,67e7f3e23ebd43bbd2539bc7,67fe6e666cecbc9329ddf6d6,67fe7b1b8f061e28f8528e2c,,,,,,,,,,,,,,,,,,,,,,No Brainslug No Barriers No Money,0,images/assets/snowy_original.jpg,learning,10,images/assets/success.jpg,images/assets/gameover.jpg,,,,,,,,,,,,,0,1,1,10,1,,,,,,,,,,,,,,,,,,,,,,,,,,,,,,,,
,,,,,,,,,,,,67e7f3e23ebd43bbd2539bc7,001,3,2025-04-15_15h36.13.688,avatar_quest_3AFC_legacy,2022.1.3,Win32,59.52380952,67e7f3e23ebd43bbd2539bc7,67fe6e666cecbc9329ddf6d6,67fe7b1b8f061e28f8528e2c,,,,,,,,,,,,,,,,,,,,,,No Brainslug Difficult 1 No Money,6,images/assets/snowy_original.jpg,learning,20,images/assets/success.jpg,images/assets/gameover.jpg,,,,,,,,,,,,,0,2,2,6,1,,,,,,,,,,,,,,,,,,,,,,,,,,,,,,,,
,,,,,,,,,,,,67e7f3e23ebd43bbd2539bc7,001,3,2025-04-15_15h36.13.688,avatar_quest_3AFC_legacy,2022.1.3,Win32,59.52380952,67e7f3e23ebd43bbd2539bc7,67fe6e666cecbc9329ddf6d6,67fe7b1b8f061e28f8528e2c,,,,,,,,,,,,,,,,,,,,,,No Brainslug No Barriers With Money,0,images/assets/snowy_money.jpg,learning,10,images/assets/success_money.jpg,images/assets/gameover.jpg,,,,,,,,,,,,,0,3,3,9,1,,,,,,,,,,,,,,,,,,,,,,,,,,,,,,,,
,,,,,,,,,,,,67e7f3e23ebd43bbd2539bc7,001,3,2025-04-15_15h36.13.688,avatar_quest_3AFC_legacy,2022.1.3,Win32,59.52380952,67e7f3e23ebd43bbd2539bc7,67fe6e666cecbc9329ddf6d6,67fe7b1b8f061e28f8528e2c,"[""right"",""left"",""left"",""left"",""right"",""right"",""right"",""left"",""left"",""left"",""left"",""up"",""right"",""right"",""right"",""left"",""right"",""right"",""right"",""right"",""left"",""left"",""left"",""right""]","[0.792900000006,1.2586000000238755,1.609300000011956,2.3771000000238587,2.611100000023896,3.6088000000119678,3.97560000002386,4.159300000011967,4.692000000000007,4.943600000023878,5.176000000000045,5.542500000000018,5.876200000017889,6.108600000023841,6.293900000005976,6.94220000001792,7.84320000001793,8.127300000011928,8.459200000017915,8.907300000011958,9.209900000005973,9.450200000017901,9.736300000011965,10.653600000023857]",,calibration,With Brainslug Difficult 2 With Money,5,11.02925,11.0382,8,4,0,FALSE,na,na,na,na,,,,,,,,,,,,,,,,,,,,,,,,,,,,,,,,,,0,0,0,0,1,,,,,,,,,,,,,,,,,,,,,,,
,,,,,,,,,,,,67e7f3e23ebd43bbd2539bc7,001,3,2025-04-15_15h36.13.688,avatar_quest_3AFC_legacy,2022.1.3,Win32,59.52380952,67e7f3e23ebd43bbd2539bc7,67fe6e666cecbc9329ddf6d6,67fe7b1b8f061e28f8528e2c,,,,,,,,,,,,,,,,,,,,,,With Brainslug Difficult 2 With Money,12,images/assets/snowy_money.jpg,learning,20,images/assets/success_money.jpg,images/assets/gameover.jpg,,,,,,,,,,,,,0,4,4,2,1,,,,,,,,,,,,,,,,,,,,,,,,,,,,,,,,
,,,,,,,,,,,,67e7f3e23ebd43bbd2539bc7,001,3,2025-04-15_15h36.13.688,avatar_quest_3AFC_legacy,2022.1.3,Win32,59.52380952,67e7f3e23ebd43bbd2539bc7,67fe6e666cecbc9329ddf6d6,67fe7b1b8f061e28f8528e2c,,,,,,,,,,,,,,,,,,,,,,With Brainslug Difficult 1 No Money,6,images/assets/snowy_original.jpg,learning,20,images/assets/success.jpg,images/assets/gameover.jpg,,,,,,,,,,,,,0,5,5,1,1,,,,,,,,,,,,,,,,,,,,,,,,,,,,,,,,
,,,,,,,,,,,,67e7f3e23ebd43bbd2539bc7,001,3,2025-04-15_15h36.13.688,avatar_quest_3AFC_legacy,2022.1.3,Win32,59.52380952,67e7f3e23ebd43bbd2539bc7,67fe6e666cecbc9329ddf6d6,67fe7b1b8f061e28f8528e2c,,,,,,,,,,,,,,,,,,,,,,With Brainslug Difficult 1 With Money,6,images/assets/snowy_money.jpg,learning,20,images/assets/success_money.jpg,images/assets/gameover.jpg,,,,,,,,,,,,,0,6,6,0,1,,,,,,,,,,,,,,,,,,,,,,,,,,,,,,,,
,,,,,,,,,,,,67e7f3e23ebd43bbd2539bc7,001,3,2025-04-15_15h36.13.688,avatar_quest_3AFC_legacy,2022.1.3,Win32,59.52380952,67e7f3e23ebd43bbd2539bc7,67fe6e666cecbc9329ddf6d6,67fe7b1b8f061e28f8528e2c,,,,,,,,,,,,,,,,,,,,,,With Brainslug No Barriers With Money,0,images/assets/snowy_money.jpg,learning,10,images/assets/success_money.jpg,images/assets/gameover.jpg,,,,,,,,,,,,,0,7,7,4,1,,,,,,,,,,,,,,,,,,,,,,,,,,,,,,,,
,,,,,,,,,,,,67e7f3e23ebd43bbd2539bc7,001,3,2025-04-15_15h36.13.688,avatar_quest_3AFC_legacy,2022.1.3,Win32,59.52380952,67e7f3e23ebd43bbd2539bc7,67fe6e666cecbc9329ddf6d6,67fe7b1b8f061e28f8528e2c,,,,,,,,,,,,,,,,,,,,,,No Brainslug Difficult 2 With Money,12,images/assets/snowy_money.jpg,learning,20,images/assets/success_money.jpg,images/assets/gameover.jpg,,,,,,,,,,,,,0,8,8,7,1,,,,,,,,,,,,,,,,,,,,,,,,,,,,,,,,
,,,,,,,,,,,,67e7f3e23ebd43bbd2539bc7,001,3,2025-04-15_15h36.13.688,avatar_quest_3AFC_legacy,2022.1.3,Win32,59.52380952,67e7f3e23ebd43bbd2539bc7,67fe6e666cecbc9329ddf6d6,67fe7b1b8f061e28f8528e2c,,,,,,,,,,,,,,,,,,,,,,With Brainslug No Barriers No Money,0,images/assets/snowy_original.jpg,learning,10,images/assets/success.jpg,images/assets/gameover.jpg,,,,,,,,,,,,,0,9,9,5,1,,,,,,,,,,,,,,,,,,,,,,,,,,,,,,,,
,,,,,,,,,,,,67e7f3e23ebd43bbd2539bc7,001,3,2025-04-15_15h36.13.688,avatar_quest_3AFC_legacy,2022.1.3,Win32,59.52380952,67e7f3e23ebd43bbd2539bc7,67fe6e666cecbc9329ddf6d6,67fe7b1b8f061e28f8528e2c,,,,,,,,,,,,,,,,,,,,,,No Brainslug Difficult 2 No Money,12,images/assets/snowy_original.jpg,learning,20,images/assets/success.jpg,images/assets/gameover.jpg,,,,,,,,,,,,,0,10,10,8,1,,,,,,,,,,,,,,,,,,,,,,,,,,,,,,,,
,,,,,,,,,,,,67e7f3e23ebd43bbd2539bc7,001,3,2025-04-15_15h36.13.688,avatar_quest_3AFC_legacy,2022.1.3,Win32,59.52380952,67e7f3e23ebd43bbd2539bc7,67fe6e666cecbc9329ddf6d6,67fe7b1b8f061e28f8528e2c,,,,,,,,,,,,,,,,,,,,,,,,,,,,,,,,,,,,,,,,,,,,,,,,,,,,,,,1,0,1,0,1,,,,,,,,,,,,,,,,,,
,,,,,,,,,,,,67e7f3e23ebd43bbd2539bc7,001,3,2025-04-15_15h36.13.688,avatar_quest_3AFC_legacy,2022.1.3,Win32,59.52380952,67e7f3e23ebd43bbd2539bc7,67fe6e666cecbc9329ddf6d6,67fe7b1b8f061e28f8528e2c,,,,,,,,,,,,,,,,,,,,,,With Brainslug Difficult 1 No Money,6,images/assets/snowy_original.jpg,learning,20,images/assets/success.jpg,images/assets/gameover.jpg,,,,,,,,With Brainslug Difficult 2 With Money,With Brainslug Difficult 1 No Money,right,1.8505,"[""With Brainslug Difficult 1 No Money"",""With Brainslug Difficult 2 No Money""]",0,0,0,1,1,,,,,,,,,,,,,,,,,,,,,,,,,,,,,,,,
,,,,,,,,,,,,67e7f3e23ebd43bbd2539bc7,001,3,2025-04-15_15h36.13.688,avatar_quest_3AFC_legacy,2022.1.3,Win32,59.52380952,67e7f3e23ebd43bbd2539bc7,67fe6e666cecbc9329ddf6d6,67fe7b1b8f061e28f8528e2c,"[""right"",""right"",""left"",""left"",""left"",""left"",""down"",""left"",""right"",""left"",""left"",""down"",""left"",""left"",""up"",""right"",""left"",""left"",""left"",""left"",""left"",""left"",""left"",""right"",""right"",""right"",""up"",""right"",""right"",""right"",""right"",""left"",""left"",""left""]","[0.4014000000059923,0.9325999999940677,1.4175000000000182,1.7829000000060091,2.0828000000119573,2.250099999994063,2.5662000000178864,2.915300000011939,3.665999999999997,6.629200000017931,6.629500000000007,6.62970000001792,6.62970000001792,6.629800000011926,6.629900000005989,6.630099999994059,6.891999999999996,7.092200000017897,7.358300000011923,7.558200000017905,7.791900000005967,8.042599999994081,8.274200000017913,8.52509999999404,8.774599999994052,8.959599999994055,9.160599999994076,9.509200000017927,9.743200000017907,10.045200000017928,10.274200000017913,10.458500000000015,10.642200000017908,10.823900000006006]",,calibration,With Brainslug Difficult 2 With Money,6,11.02925,11.0445,7,3,0,FALSE,na,na,na,na,,,,,,,,,,,,,,,,,,,,,,,,,,,,,,,,,,0,0,0,0,1,,,,,,,,,,,,,,,,,,,,,,,
,,,,,,,,,,,,67e7f3e23ebd43bbd2539bc7,001,3,2025-04-15_15h36.13.688,avatar_quest_3AFC_legacy,2022.1.3,Win32,59.52380952,67e7f3e23ebd43bbd2539bc7,67fe6e666cecbc9329ddf6d6,67fe7b1b8f061e28f8528e2c,,,,,,,,,,,,,,,,,,,,,,With Brainslug Difficult 2 With Money,12,images/assets/snowy_money.jpg,learning,20,images/assets/success_money.jpg,images/assets/gameover.jpg,,,,,,,,,,,,,0,1,1,2,1,,,,,,,,,,,,,,,,,,,,,,,,,,,,,,,,
,,,,,,,,,,,,67e7f3e23ebd43bbd2539bc7,001,3,2025-04-15_15h36.13.688,avatar_quest_3AFC_legacy,2022.1.3,Win32,59.52380952,67e7f3e23ebd43bbd2539bc7,67fe6e666cecbc9329ddf6d6,67fe7b1b8f061e28f8528e2c,,,,,,,,,,,,,,,,,,,,,,With Brainslug Difficult 2 No Money,12,images/assets/snowy_original.jpg,learning,20,images/assets/success.jpg,images/assets/gameover.jpg,,,,,,,,,,,,,0,2,2,3,1,,,,,,,,,,,,,,,,,,,,,,,,,,,,,,,,
,,,,,,,,,,,,67e7f3e23ebd43bbd2539bc7,001,3,2025-04-15_15h36.13.688,avatar_quest_3AFC_legacy,2022.1.3,Win32,59.52380952,67e7f3e23ebd43bbd2539bc7,67fe6e666cecbc9329ddf6d6,67fe7b1b8f061e28f8528e2c,,,,,,,,,,,,,,,,,,,,,,No Brainslug Difficult 2 With Money,12,images/assets/snowy_money.jpg,learning,20,images/assets/success_money.jpg,images/assets/gameover.jpg,,,,,,,,,,,,,0,3,3,7,1,,,,,,,,,,,,,,,,,,,,,,,,,,,,,,,,
,,,,,,,,,,,,67e7f3e23ebd43bbd2539bc7,001,3,2025-04-15_15h36.13.688,avatar_quest_3AFC_legacy,2022.1.3,Win32,59.52380952,67e7f3e23ebd43bbd2539bc7,67fe6e666cecbc9329ddf6d6,67fe7b1b8f061e28f8528e2c,,,,,,,,,,,,,,,,,,,,,,No Brainslug No Barriers With Money,0,images/assets/snowy_money.jpg,learning,10,images/assets/success_money.jpg,images/assets/gameover.jpg,,,,,,,,,,,,,0,4,4,9,1,,,,,,,,,,,,,,,,,,,,,,,,,,,,,,,,
,,,,,,,,,,,,67e7f3e23ebd43bbd2539bc7,001,3,2025-04-15_15h36.13.688,avatar_quest_3AFC_legacy,2022.1.3,Win32,59.52380952,67e7f3e23ebd43bbd2539bc7,67fe6e666cecbc9329ddf6d6,67fe7b1b8f061e28f8528e2c,,,,,,,,,,,,,,,,,,,,,,No Brainslug No Barriers No Money,0,images/assets/snowy_original.jpg,learning,10,images/assets/success.jpg,images/assets/gameover.jpg,,,,,,,,,,,,,0,5,5,10,1,,,,,,,,,,,,,,,,,,,,,,,,,,,,,,,,
,,,,,,,,,,,,67e7f3e23ebd43bbd2539bc7,001,3,2025-04-15_15h36.13.688,avatar_quest_3AFC_legacy,2022.1.3,Win32,59.52380952,67e7f3e23ebd43bbd2539bc7,67fe6e666cecbc9329ddf6d6,67fe7b1b8f061e28f8528e2c,,,,,,,,,,,,,,,,,,,,,,With Brainslug No Barriers No Money,0,images/assets/snowy_original.jpg,learning,10,images/assets/success.jpg,images/assets/gameover.jpg,,,,,,,,,,,,,0,6,6,5,1,,,,,,,,,,,,,,,,,,,,,,,,,,,,,,,,
,,,,,,,,,,,,67e7f3e23ebd43bbd2539bc7,001,3,2025-04-15_15h36.13.688,avatar_quest_3AFC_legacy,2022.1.3,Win32,59.52380952,67e7f3e23ebd43bbd2539bc7,67fe6e666cecbc9329ddf6d6,67fe7b1b8f061e28f8528e2c,,,,,,,,,,,,,,,,,,,,,,No Brainslug Difficult 2 No Money,12,images/assets/snowy_original.jpg,learning,20,images/assets/success.jpg,images/assets/gameover.jpg,,,,,,,,,,,,,0,7,7,8,1,,,,,,,,,,,,,,,,,,,,,,,,,,,,,,,,
,,,,,,,,,,,,67e7f3e23ebd43bbd2539bc7,001,3,2025-04-15_15h36.13.688,avatar_quest_3AFC_legacy,2022.1.3,Win32,59.52380952,67e7f3e23ebd43bbd2539bc7,67fe6e666cecbc9329ddf6d6,67fe7b1b8f061e28f8528e2c,,,,,,,,,,,,,,,,,,,,,,No Brainslug Difficult 1 No Money,6,images/assets/snowy_original.jpg,learning,20,images/assets/success.jpg,images/assets/gameover.jpg,,,,,,,,,,,,,0,8,8,6,1,,,,,,,,,,,,,,,,,,,,,,,,,,,,,,,,
,,,,,,,,,,,,67e7f3e23ebd43bbd2539bc7,001,3,2025-04-15_15h36.13.688,avatar_quest_3AFC_legacy,2022.1.3,Win32,59.52380952,67e7f3e23ebd43bbd2539bc7,67fe6e666cecbc9329ddf6d6,67fe7b1b8f061e28f8528e2c,,,,,,,,,,,,,,,,,,,,,,With Brainslug No Barriers With Money,0,images/assets/snowy_money.jpg,learning,10,images/assets/success_money.jpg,images/assets/gameover.jpg,,,,,,,,,,,,,0,9,9,4,1,,,,,,,,,,,,,,,,,,,,,,,,,,,,,,,,
,,,,,,,,,,,,67e7f3e23ebd43bbd2539bc7,001,3,2025-04-15_15h36.13.688,avatar_quest_3AFC_legacy,2022.1.3,Win32,59.52380952,67e7f3e23ebd43bbd2539bc7,67fe6e666cecbc9329ddf6d6,67fe7b1b8f061e28f8528e2c,,,,,,,,,,,,,,,,,,,,,,With Brainslug Difficult 1 With Money,6,images/assets/snowy_money.jpg,learning,20,images/assets/success_money.jpg,images/assets/gameover.jpg,,,,,,,,,,,,,0,10,10,0,1,,,,,,,,,,,,,,,,,,,,,,,,,,,,,,,,
,,,,,,,,,,,,67e7f3e23ebd43bbd2539bc7,001,3,2025-04-15_15h36.13.688,avatar_quest_3AFC_legacy,2022.1.3,Win32,59.52380952,67e7f3e23ebd43bbd2539bc7,67fe6e666cecbc9329ddf6d6,67fe7b1b8f061e28f8528e2c,,,,,,,,,,,,,,,,,,,,,,,,,,,,,,,,,,,,,,,,,,,,,,,,,,,,,,,2,0,2,0,1,,,,,,,,,,,,,,,,,,
,,,,,,,,,,,,67e7f3e23ebd43bbd2539bc7,001,3,2025-04-15_15h36.13.688,avatar_quest_3AFC_legacy,2022.1.3,Win32,59.52380952,67e7f3e23ebd43bbd2539bc7,67fe6e666cecbc9329ddf6d6,67fe7b1b8f061e28f8528e2c,,,,,,,,,,,,,,,,,,,,,,No Brainslug No Barriers With Money,0,images/assets/snowy_money.jpg,learning,10,images/assets/success_money.jpg,images/assets/gameover.jpg,,,,,,,,With Brainslug Difficult 2 No Money,With Brainslug Difficult 1 No Money,down,1.5505,"[""With Brainslug Difficult 1 No Money"",""With Brainslug Difficult 2 With Money""]",0,0,0,9,1,,,,,,,,,,,,,,,,,,,,,,,,,,,,,,,,
,,,,,,,,,,,,67e7f3e23ebd43bbd2539bc7,001,3,2025-04-15_15h36.13.688,avatar_quest_3AFC_legacy,2022.1.3,Win32,59.52380952,67e7f3e23ebd43bbd2539bc7,67fe6e666cecbc9329ddf6d6,67fe7b1b8f061e28f8528e2c,,,,,,,,,,,,,,,,,,,,,,No Brainslug Difficult 2 With Money,12,images/assets/snowy_money.jpg,learning,20,images/assets/success_money.jpg,images/assets/gameover.jpg,,,,,,,,,,,,,0,1,1,7,1,,,,,,,,,,,,,,,,,,,,,,,,,,,,,,,,
,,,,,,,,,,,,67e7f3e23ebd43bbd2539bc7,001,3,2025-04-15_15h36.13.688,avatar_quest_3AFC_legacy,2022.1.3,Win32,59.52380952,67e7f3e23ebd43bbd2539bc7,67fe6e666cecbc9329ddf6d6,67fe7b1b8f061e28f8528e2c,,,,,,,,,,,,,,,,,,,,,,With Brainslug Difficult 2 With Money,12,images/assets/snowy_money.jpg,learning,20,images/assets/success_money.jpg,images/assets/gameover.jpg,,,,,,,,,,,,,0,2,2,2,1,,,,,,,,,,,,,,,,,,,,,,,,,,,,,,,,
,,,,,,,,,,,,67e7f3e23ebd43bbd2539bc7,001,3,2025-04-15_15h36.13.688,avatar_quest_3AFC_legacy,2022.1.3,Win32,59.52380952,67e7f3e23ebd43bbd2539bc7,67fe6e666cecbc9329ddf6d6,67fe7b1b8f061e28f8528e2c,,,,,,,,,,,,,,,,,,,,,,No Brainslug No Barriers No Money,0,images/assets/snowy_original.jpg,learning,10,images/assets/success.jpg,images/assets/gameover.jpg,,,,,,,,,,,,,0,3,3,10,1,,,,,,,,,,,,,,,,,,,,,,,,,,,,,,,,
,,,,,,,,,,,,67e7f3e23ebd43bbd2539bc7,001,3,2025-04-15_15h36.13.688,avatar_quest_3AFC_legacy,2022.1.3,Win32,59.52380952,67e7f3e23ebd43bbd2539bc7,67fe6e666cecbc9329ddf6d6,67fe7b1b8f061e28f8528e2c,,,,,,,,,,,,,,,,,,,,,,With Brainslug No Barriers With Money,0,images/assets/snowy_money.jpg,learning,10,images/assets/success_money.jpg,images/assets/gameover.jpg,,,,,,,,,,,,,0,4,4,4,1,,,,,,,,,,,,,,,,,,,,,,,,,,,,,,,,
,,,,,,,,,,,,67e7f3e23ebd43bbd2539bc7,001,3,2025-04-15_15h36.13.688,avatar_quest_3AFC_legacy,2022.1.3,Win32,59.52380952,67e7f3e23ebd43bbd2539bc7,67fe6e666cecbc9329ddf6d6,67fe7b1b8f061e28f8528e2c,,,,,,,,,,,,,,,,,,,,,,With Brainslug No Barriers No Money,0,images/assets/snowy_original.jpg,learning,10,images/assets/success.jpg,images/assets/gameover.jpg,,,,,,,,,,,,,0,5,5,5,1,,,,,,,,,,,,,,,,,,,,,,,,,,,,,,,,
,,,,,,,,,,,,67e7f3e23ebd43bbd2539bc7,001,3,2025-04-15_15h36.13.688,avatar_quest_3AFC_legacy,2022.1.3,Win32,59.52380952,67e7f3e23ebd43bbd2539bc7,67fe6e666cecbc9329ddf6d6,67fe7b1b8f061e28f8528e2c,,,,,,,,,,,,,,,,,,,,,,No Brainslug Difficult 1 No Money,6,images/assets/snowy_original.jpg,learning,20,images/assets/success.jpg,images/assets/gameover.jpg,,,,,,,,,,,,,0,6,6,6,1,,,,,,,,,,,,,,,,,,,,,,,,,,,,,,,,
,,,,,,,,,,,,67e7f3e23ebd43bbd2539bc7,001,3,2025-04-15_15h36.13.688,avatar_quest_3AFC_legacy,2022.1.3,Win32,59.52380952,67e7f3e23ebd43bbd2539bc7,67fe6e666cecbc9329ddf6d6,67fe7b1b8f061e28f8528e2c,"[""right"",""left"",""left"",""left"",""left"",""right"",""right"",""right"",""right"",""right"",""left"",""left"",""right"",""right"",""right"",""right"",""right"",""right"",""right"",""left"",""left"",""left"",""left"",""left"",""right"",""right"",""right"",""right"",""right"",""right"",""right"",""left"",""left"",""left"",""left"",""left"",""right"",""left"",""right"",""left"",""right"",""right"",""left"",""left"",""left"",""left""]","[0.8530999999940718,1.3161999999881004,1.7672999999821286,2.033599999994067,2.4160000000000537,2.6823999999762123,2.8660000000000423,3.034599999994043,3.2147999999821195,3.417399999976169,3.750399999976196,3.934099999994089,4.349299999982122,4.518000000000029,4.683099999994056,4.882899999976189,5.049799999982156,5.216699999988123,5.432699999988131,5.851399999976195,6.016699999988077,6.232799999982149,6.4328999999762,6.637699999988115,6.966199999988078,7.148699999988082,7.348699999988128,7.551000000000045,7.764899999976194,8.194500000000005,8.390699999988101,8.623299999982123,8.807000000000016,9.023599999994076,9.190500000000043,9.37700000000001,9.577500000000043,9.57759999999405,9.739799999982154,9.75679999998215,9.939999999999998,10.125899999976184,10.323799999982157,10.508199999988108,10.68029999998214,10.85650000000004]",,calibration,With Brainslug Difficult 2 No Money,7,11.02925,11.0384,25,9,0,FALSE,na,na,na,na,,,,,,,,,,,,,,,,,,,,,,,,,,,,,,,,,,0,0,0,0,1,,,,,,,,,,,,,,,,,,,,,,,
,,,,,,,,,,,,67e7f3e23ebd43bbd2539bc7,001,3,2025-04-15_15h36.13.688,avatar_quest_3AFC_legacy,2022.1.3,Win32,59.52380952,67e7f3e23ebd43bbd2539bc7,67fe6e666cecbc9329ddf6d6,67fe7b1b8f061e28f8528e2c,,,,,,,,,,,,,,,,,,,,,,With Brainslug Difficult 2 No Money,12,images/assets/snowy_original.jpg,learning,20,images/assets/success.jpg,images/assets/gameover.jpg,,,,,,,,,,,,,0,7,7,3,1,,,,,,,,,,,,,,,,,,,,,,,,,,,,,,,,
,,,,,,,,,,,,67e7f3e23ebd43bbd2539bc7,001,3,2025-04-15_15h36.13.688,avatar_quest_3AFC_legacy,2022.1.3,Win32,59.52380952,67e7f3e23ebd43bbd2539bc7,67fe6e666cecbc9329ddf6d6,67fe7b1b8f061e28f8528e2c,,,,,,,,,,,,,,,,,,,,,,With Brainslug Difficult 1 No Money,6,images/assets/snowy_original.jpg,learning,20,images/assets/success.jpg,images/assets/gameover.jpg,,,,,,,,,,,,,0,8,8,1,1,,,,,,,,,,,,,,,,,,,,,,,,,,,,,,,,
,,,,,,,,,,,,67e7f3e23ebd43bbd2539bc7,001,3,2025-04-15_15h36.13.688,avatar_quest_3AFC_legacy,2022.1.3,Win32,59.52380952,67e7f3e23ebd43bbd2539bc7,67fe6e666cecbc9329ddf6d6,67fe7b1b8f061e28f8528e2c,,,,,,,,,,,,,,,,,,,,,,No Brainslug Difficult 2 No Money,12,images/assets/snowy_original.jpg,learning,20,images/assets/success.jpg,images/assets/gameover.jpg,,,,,,,,,,,,,0,9,9,8,1,,,,,,,,,,,,,,,,,,,,,,,,,,,,,,,,
,,,,,,,,,,,,67e7f3e23ebd43bbd2539bc7,001,3,2025-04-15_15h36.13.688,avatar_quest_3AFC_legacy,2022.1.3,Win32,59.52380952,67e7f3e23ebd43bbd2539bc7,67fe6e666cecbc9329ddf6d6,67fe7b1b8f061e28f8528e2c,,,,,,,,,,,,,,,,,,,,,,With Brainslug Difficult 1 With Money,6,images/assets/snowy_money.jpg,learning,20,images/assets/success_money.jpg,images/assets/gameover.jpg,,,,,,,,,,,,,0,10,10,0,1,,,,,,,,,,,,,,,,,,,,,,,,,,,,,,,,
,,,,,,,,,,,,67e7f3e23ebd43bbd2539bc7,001,3,2025-04-15_15h36.13.688,avatar_quest_3AFC_legacy,2022.1.3,Win32,59.52380952,67e7f3e23ebd43bbd2539bc7,67fe6e666cecbc9329ddf6d6,67fe7b1b8f061e28f8528e2c,,,,,,,,,,,,,,,,,,,,,,,,,,,,,,,,,,,,,,,,,,,,,,,,,,,,,,,3,0,3,0,1,,,,,,,,,,,,,,,,,,
,,,,,,,,,,,,67e7f3e23ebd43bbd2539bc7,001,3,2025-04-15_15h36.13.688,avatar_quest_3AFC_legacy,2022.1.3,Win32,59.52380952,67e7f3e23ebd43bbd2539bc7,67fe6e666cecbc9329ddf6d6,67fe7b1b8f061e28f8528e2c,,,,,,,,,,,,,,,,,,,,,,No Brainslug No Barriers With Money,0,images/assets/snowy_money.jpg,learning,10,images/assets/success_money.jpg,images/assets/gameover.jpg,,,,,,,,With Brainslug Difficult 2 With Money,With Brainslug Difficult 1 No Money,right,10.4076,"[""With Brainslug Difficult 1 No Money"",""With Brainslug Difficult 2 No Money""]",0,0,0,9,1,,,,,,,,,,,,,,,,,,,,,,,,,,,,,,,,
,,,,,,,,,,,,67e7f3e23ebd43bbd2539bc7,001,3,2025-04-15_15h36.13.688,avatar_quest_3AFC_legacy,2022.1.3,Win32,59.52380952,67e7f3e23ebd43bbd2539bc7,67fe6e666cecbc9329ddf6d6,67fe7b1b8f061e28f8528e2c,,,,,,,,,,,,,,,,,,,,,,No Brainslug Difficult 1 No Money,6,images/assets/snowy_original.jpg,learning,20,images/assets/success.jpg,images/assets/gameover.jpg,,,,,,,,,,,,,0,1,1,6,1,,,,,,,,,,,,,,,,,,,,,,,,,,,,,,,,
,,,,,,,,,,,,67e7f3e23ebd43bbd2539bc7,001,3,2025-04-15_15h36.13.688,avatar_quest_3AFC_legacy,2022.1.3,Win32,59.52380952,67e7f3e23ebd43bbd2539bc7,67fe6e666cecbc9329ddf6d6,67fe7b1b8f061e28f8528e2c,,,,,,,,,,,,,,,,,,,,,,With Brainslug Difficult 1 With Money,6,images/assets/snowy_money.jpg,learning,20,images/assets/success_money.jpg,images/assets/gameover.jpg,,,,,,,,,,,,,0,2,2,0,1,,,,,,,,,,,,,,,,,,,,,,,,,,,,,,,,
,,,,,,,,,,,,67e7f3e23ebd43bbd2539bc7,001,3,2025-04-15_15h36.13.688,avatar_quest_3AFC_legacy,2022.1.3,Win32,59.52380952,67e7f3e23ebd43bbd2539bc7,67fe6e666cecbc9329ddf6d6,67fe7b1b8f061e28f8528e2c,,,,,,,,,,,,,,,,,,,,,,With Brainslug No Barriers With Money,0,images/assets/snowy_money.jpg,learning,10,images/assets/success_money.jpg,images/assets/gameover.jpg,,,,,,,,,,,,,0,3,3,4,1,,,,,,,,,,,,,,,,,,,,,,,,,,,,,,,,
,,,,,,,,,,,,67e7f3e23ebd43bbd2539bc7,001,3,2025-04-15_15h36.13.688,avatar_quest_3AFC_legacy,2022.1.3,Win32,59.52380952,67e7f3e23ebd43bbd2539bc7,67fe6e666cecbc9329ddf6d6,67fe7b1b8f061e28f8528e2c,"[""right"",""left"",""right"",""left"",""left"",""right"",""right"",""left"",""right"",""left"",""right"",""right"",""right"",""right"",""right"",""right""]","[1.2305999999940695,1.5135000000000218,2.2965000000000373,2.9460999999940327,4.496399999976177,5.063299999982121,5.496500000000026,6.217899999976169,6.865000000000009,7.496500000000026,9.115399999976148,9.47859999999406,9.699099999994075,9.980099999994081,10.196599999994078,10.528500000000008]",,calibration,With Brainslug Difficult 2 With Money,8,11.02925,10.8284,12,9,0,TRUE,na,na,na,na,,,,,,,,,,,,,,,,,,,,,,,,,,,,,,,,,,0,0,0,0,1,,,,,,,,,,,,,,,,,,,,,,,
,,,,,,,,,,,,67e7f3e23ebd43bbd2539bc7,001,3,2025-04-15_15h36.13.688,avatar_quest_3AFC_legacy,2022.1.3,Win32,59.52380952,67e7f3e23ebd43bbd2539bc7,67fe6e666cecbc9329ddf6d6,67fe7b1b8f061e28f8528e2c,,,,,,,,,,,,,,,,,,,,,,With Brainslug Difficult 2 With Money,12,images/assets/snowy_money.jpg,learning,20,images/assets/success_money.jpg,images/assets/gameover.jpg,,,,,,,,,,,,,0,4,4,2,1,,,,,,,,,,,,,,,,,,,,,,,,,,,,,,,,
,,,,,,,,,,,,67e7f3e23ebd43bbd2539bc7,001,3,2025-04-15_15h36.13.688,avatar_quest_3AFC_legacy,2022.1.3,Win32,59.52380952,67e7f3e23ebd43bbd2539bc7,67fe6e666cecbc9329ddf6d6,67fe7b1b8f061e28f8528e2c,,,,,,,,,,,,,,,,,,,,,,No Brainslug Difficult 2 With Money,12,images/assets/snowy_money.jpg,learning,20,images/assets/success_money.jpg,images/assets/gameover.jpg,,,,,,,,,,,,,0,5,5,7,1,,,,,,,,,,,,,,,,,,,,,,,,,,,,,,,,
,,,,,,,,,,,,67e7f3e23ebd43bbd2539bc7,001,3,2025-04-15_15h36.13.688,avatar_quest_3AFC_legacy,2022.1.3,Win32,59.52380952,67e7f3e23ebd43bbd2539bc7,67fe6e666cecbc9329ddf6d6,67fe7b1b8f061e28f8528e2c,,,,,,,,,,,,,,,,,,,,,,With Brainslug Difficult 2 No Money,12,images/assets/snowy_original.jpg,learning,20,images/assets/success.jpg,images/assets/gameover.jpg,,,,,,,,,,,,,0,6,6,3,1,,,,,,,,,,,,,,,,,,,,,,,,,,,,,,,,
,,,,,,,,,,,,67e7f3e23ebd43bbd2539bc7,001,3,2025-04-15_15h36.13.688,avatar_quest_3AFC_legacy,2022.1.3,Win32,59.52380952,67e7f3e23ebd43bbd2539bc7,67fe6e666cecbc9329ddf6d6,67fe7b1b8f061e28f8528e2c,,,,,,,,,,,,,,,,,,,,,,With Brainslug No Barriers No Money,0,images/assets/snowy_original.jpg,learning,10,images/assets/success.jpg,images/assets/gameover.jpg,,,,,,,,,,,,,0,7,7,5,1,,,,,,,,,,,,,,,,,,,,,,,,,,,,,,,,
,,,,,,,,,,,,67e7f3e23ebd43bbd2539bc7,001,3,2025-04-15_15h36.13.688,avatar_quest_3AFC_legacy,2022.1.3,Win32,59.52380952,67e7f3e23ebd43bbd2539bc7,67fe6e666cecbc9329ddf6d6,67fe7b1b8f061e28f8528e2c,,,,,,,,,,,,,,,,,,,,,,No Brainslug Difficult 2 No Money,12,images/assets/snowy_original.jpg,learning,20,images/assets/success.jpg,images/assets/gameover.jpg,,,,,,,,,,,,,0,8,8,8,1,,,,,,,,,,,,,,,,,,,,,,,,,,,,,,,,
,,,,,,,,,,,,67e7f3e23ebd43bbd2539bc7,001,3,2025-04-15_15h36.13.688,avatar_quest_3AFC_legacy,2022.1.3,Win32,59.52380952,67e7f3e23ebd43bbd2539bc7,67fe6e666cecbc9329ddf6d6,67fe7b1b8f061e28f8528e2c,,,,,,,,,,,,,,,,,,,,,,With Brainslug Difficult 1 No Money,6,images/assets/snowy_original.jpg,learning,20,images/assets/success.jpg,images/assets/gameover.jpg,,,,,,,,,,,,,0,9,9,1,1,,,,,,,,,,,,,,,,,,,,,,,,,,,,,,,,
,,,,,,,,,,,,67e7f3e23ebd43bbd2539bc7,001,3,2025-04-15_15h36.13.688,avatar_quest_3AFC_legacy,2022.1.3,Win32,59.52380952,67e7f3e23ebd43bbd2539bc7,67fe6e666cecbc9329ddf6d6,67fe7b1b8f061e28f8528e2c,,,,,,,,,,,,,,,,,,,,,,No Brainslug No Barriers No Money,0,images/assets/snowy_original.jpg,learning,10,images/assets/success.jpg,images/assets/gameover.jpg,,,,,,,,,,,,,0,10,10,10,1,,,,,,,,,,,,,,,,,,,,,,,,,,,,,,,,
,,,,,,,,,,,,67e7f3e23ebd43bbd2539bc7,001,3,2025-04-15_15h36.13.688,avatar_quest_3AFC_legacy,2022.1.3,Win32,59.52380952,67e7f3e23ebd43bbd2539bc7,67fe6e666cecbc9329ddf6d6,67fe7b1b8f061e28f8528e2c,,,,,,,,,,,,,,,,,,,,,,,,,,,,,,,,,,,,,,,,,,,,,,,,,,,,,,,4,0,4,0,1,,,,,,,,,,,,,,,,,,
,,,,,,,,,,,,67e7f3e23ebd43bbd2539bc7,001,3,2025-04-15_15h36.13.688,avatar_quest_3AFC_legacy,2022.1.3,Win32,59.52380952,67e7f3e23ebd43bbd2539bc7,67fe6e666cecbc9329ddf6d6,67fe7b1b8f061e28f8528e2c,,,,,,,,,,,,,,,,,,,,,,No Brainslug No Barriers No Money,0,images/assets/snowy_original.jpg,learning,10,images/assets/success.jpg,images/assets/gameover.jpg,,,,,,,,With Brainslug Difficult 2 With Money,With Brainslug Difficult 1 No Money,right,1.0347,"[""With Brainslug Difficult 1 No Money"",""With Brainslug Difficult 2 No Money""]",0,0,0,10,1,,,,,,,,,,,,,,,,,,,,,,,,,,,,,,,,
,,,,,,,,,,,,67e7f3e23ebd43bbd2539bc7,001,3,2025-04-15_15h36.13.688,avatar_quest_3AFC_legacy,2022.1.3,Win32,59.52380952,67e7f3e23ebd43bbd2539bc7,67fe6e666cecbc9329ddf6d6,67fe7b1b8f061e28f8528e2c,,,,,,,,,,,,,,,,,,,,,,With Brainslug No Barriers With Money,0,images/assets/snowy_money.jpg,learning,10,images/assets/success_money.jpg,images/assets/gameover.jpg,,,,,,,,,,,,,0,1,1,4,1,,,,,,,,,,,,,,,,,,,,,,,,,,,,,,,,
,,,,,,,,,,,,67e7f3e23ebd43bbd2539bc7,001,3,2025-04-15_15h36.13.688,avatar_quest_3AFC_legacy,2022.1.3,Win32,59.52380952,67e7f3e23ebd43bbd2539bc7,67fe6e666cecbc9329ddf6d6,67fe7b1b8f061e28f8528e2c,,,,,,,,,,,,,,,,,,,,,,With Brainslug Difficult 1 With Money,6,images/assets/snowy_money.jpg,learning,20,images/assets/success_money.jpg,images/assets/gameover.jpg,,,,,,,,,,,,,0,2,2,0,1,,,,,,,,,,,,,,,,,,,,,,,,,,,,,,,,
,,,,,,,,,,,,67e7f3e23ebd43bbd2539bc7,001,3,2025-04-15_15h36.13.688,avatar_quest_3AFC_legacy,2022.1.3,Win32,59.52380952,67e7f3e23ebd43bbd2539bc7,67fe6e666cecbc9329ddf6d6,67fe7b1b8f061e28f8528e2c,,,,,,,,,,,,,,,,,,,,,,With Brainslug Difficult 2 No Money,12,images/assets/snowy_original.jpg,learning,20,images/assets/success.jpg,images/assets/gameover.jpg,,,,,,,,,,,,,0,3,3,3,1,,,,,,,,,,,,,,,,,,,,,,,,,,,,,,,,
,,,,,,,,,,,,67e7f3e23ebd43bbd2539bc7,001,3,2025-04-15_15h36.13.688,avatar_quest_3AFC_legacy,2022.1.3,Win32,59.52380952,67e7f3e23ebd43bbd2539bc7,67fe6e666cecbc9329ddf6d6,67fe7b1b8f061e28f8528e2c,,,,,,,,,,,,,,,,,,,,,,No Brainslug Difficult 2 With Money,12,images/assets/snowy_money.jpg,learning,20,images/assets/success_money.jpg,images/assets/gameover.jpg,,,,,,,,,,,,,0,4,4,7,1,,,,,,,,,,,,,,,,,,,,,,,,,,,,,,,,
,,,,,,,,,,,,67e7f3e23ebd43bbd2539bc7,001,3,2025-04-15_15h36.13.688,avatar_quest_3AFC_legacy,2022.1.3,Win32,59.52380952,67e7f3e23ebd43bbd2539bc7,67fe6e666cecbc9329ddf6d6,67fe7b1b8f061e28f8528e2c,,,,,,,,,,,,,,,,,,,,,,With Brainslug Difficult 1 No Money,6,images/assets/snowy_original.jpg,learning,20,images/assets/success.jpg,images/assets/gameover.jpg,,,,,,,,,,,,,0,5,5,1,1,,,,,,,,,,,,,,,,,,,,,,,,,,,,,,,,
,,,,,,,,,,,,67e7f3e23ebd43bbd2539bc7,001,3,2025-04-15_15h36.13.688,avatar_quest_3AFC_legacy,2022.1.3,Win32,59.52380952,67e7f3e23ebd43bbd2539bc7,67fe6e666cecbc9329ddf6d6,67fe7b1b8f061e28f8528e2c,,,,,,,,,,,,,,,,,,,,,,No Brainslug No Barriers With Money,0,images/assets/snowy_money.jpg,learning,10,images/assets/success_money.jpg,images/assets/gameover.jpg,,,,,,,,,,,,,0,6,6,9,1,,,,,,,,,,,,,,,,,,,,,,,,,,,,,,,,
,,,,,,,,,,,,67e7f3e23ebd43bbd2539bc7,001,3,2025-04-15_15h36.13.688,avatar_quest_3AFC_legacy,2022.1.3,Win32,59.52380952,67e7f3e23ebd43bbd2539bc7,67fe6e666cecbc9329ddf6d6,67fe7b1b8f061e28f8528e2c,"[""right"",""left"",""left"",""left"",""left"",""left"",""left"",""left"",""left"",""right"",""right"",""right"",""right"",""left"",""left"",""left"",""left"",""left"",""right"",""right"",""right"",""right"",""right"",""right"",""right"",""right"",""right"",""left"",""left"",""left"",""right"",""right"",""right"",""right"",""right"",""right"",""right"",""right"",""left""]","[0.6920000000000073,1.0749000000059823,1.4753000000118845,1.7429999999999382,2.0418000000119036,2.342699999988099,2.5756999999880463,2.7944000000059077,3.0251999999881036,3.275300000011839,3.4583000000119455,3.6416999999880773,3.82549999999992,3.9583000000119455,4.125099999994063,4.292199999988043,4.475099999993972,4.646699999988073,4.908900000005929,5.075599999993983,5.2428000000119255,5.409800000011842,5.559300000011945,5.759199999988027,5.925800000011918,6.142400000005978,6.52590000000589,6.808699999987994,7.05959999999402,7.358999999999924,7.893199999988042,8.359300000011899,8.642199999988065,8.941900000005944,9.208400000005895,9.575199999988058,10.275999999999954,10.593099999994024,10.759599999994066]",,calibration,With Brainslug Difficult 2 With Money,9,11.02925,11.0381,16,7,0,FALSE,na,na,na,na,,,,,,,,,,,,,,,,,,,,,,,,,,,,,,,,,,0,0,0,0,1,,,,,,,,,,,,,,,,,,,,,,,
,,,,,,,,,,,,67e7f3e23ebd43bbd2539bc7,001,3,2025-04-15_15h36.13.688,avatar_quest_3AFC_legacy,2022.1.3,Win32,59.52380952,67e7f3e23ebd43bbd2539bc7,67fe6e666cecbc9329ddf6d6,67fe7b1b8f061e28f8528e2c,,,,,,,,,,,,,,,,,,,,,,With Brainslug Difficult 2 With Money,12,images/assets/snowy_money.jpg,learning,20,images/assets/success_money.jpg,images/assets/gameover.jpg,,,,,,,,,,,,,0,7,7,2,1,,,,,,,,,,,,,,,,,,,,,,,,,,,,,,,,
,,,,,,,,,,,,67e7f3e23ebd43bbd2539bc7,001,3,2025-04-15_15h36.13.688,avatar_quest_3AFC_legacy,2022.1.3,Win32,59.52380952,67e7f3e23ebd43bbd2539bc7,67fe6e666cecbc9329ddf6d6,67fe7b1b8f061e28f8528e2c,,,,,,,,,,,,,,,,,,,,,,With Brainslug No Barriers No Money,0,images/assets/snowy_original.jpg,learning,10,images/assets/success.jpg,images/assets/gameover.jpg,,,,,,,,,,,,,0,8,8,5,1,,,,,,,,,,,,,,,,,,,,,,,,,,,,,,,,
,,,,,,,,,,,,67e7f3e23ebd43bbd2539bc7,001,3,2025-04-15_15h36.13.688,avatar_quest_3AFC_legacy,2022.1.3,Win32,59.52380952,67e7f3e23ebd43bbd2539bc7,67fe6e666cecbc9329ddf6d6,67fe7b1b8f061e28f8528e2c,,,,,,,,,,,,,,,,,,,,,,No Brainslug Difficult 2 No Money,12,images/assets/snowy_original.jpg,learning,20,images/assets/success.jpg,images/assets/gameover.jpg,,,,,,,,,,,,,0,9,9,8,1,,,,,,,,,,,,,,,,,,,,,,,,,,,,,,,,
,,,,,,,,,,,,67e7f3e23ebd43bbd2539bc7,001,3,2025-04-15_15h36.13.688,avatar_quest_3AFC_legacy,2022.1.3,Win32,59.52380952,67e7f3e23ebd43bbd2539bc7,67fe6e666cecbc9329ddf6d6,67fe7b1b8f061e28f8528e2c,,,,,,,,,,,,,,,,,,,,,,No Brainslug Difficult 1 No Money,6,images/assets/snowy_original.jpg,learning,20,images/assets/success.jpg,images/assets/gameover.jpg,,,,,,,,,,,,,0,10,10,6,1,,,,,,,,,,,,,,,,,,,,,,,,,,,,,,,,
,,,,,,,,,,,,67e7f3e23ebd43bbd2539bc7,001,3,2025-04-15_15h36.13.688,avatar_quest_3AFC_legacy,2022.1.3,Win32,59.52380952,67e7f3e23ebd43bbd2539bc7,67fe6e666cecbc9329ddf6d6,67fe7b1b8f061e28f8528e2c,,,,,,,,,,,,,,,,,,,,,,,,,,,,,,,,,,,,,,,,,,,,,,,,,,,,,,,5,0,5,0,1,,,,,,,,,,,,,,,,,,
,,,,,,,,,,,,67e7f3e23ebd43bbd2539bc7,001,3,2025-04-15_15h36.13.688,avatar_quest_3AFC_legacy,2022.1.3,Win32,59.52380952,67e7f3e23ebd43bbd2539bc7,67fe6e666cecbc9329ddf6d6,67fe7b1b8f061e28f8528e2c,,,,,,,,,,,,,,,,,,,,,,With Brainslug Difficult 1 With Money,6,images/assets/snowy_money.jpg,learning,20,images/assets/success_money.jpg,images/assets/gameover.jpg,,,,,,,,With Brainslug Difficult 2 With Money,With Brainslug Difficult 1 No Money,right,0.4509,"[""With Brainslug Difficult 1 No Money"",""With Brainslug Difficult 2 No Money""]",0,0,0,0,1,,,,,,,,,,,,,,,,,,,,,,,,,,,,,,,,
,,,,,,,,,,,,67e7f3e23ebd43bbd2539bc7,001,3,2025-04-15_15h36.13.688,avatar_quest_3AFC_legacy,2022.1.3,Win32,59.52380952,67e7f3e23ebd43bbd2539bc7,67fe6e666cecbc9329ddf6d6,67fe7b1b8f061e28f8528e2c,,,,,,,,,,,,,,,,,,,,,,No Brainslug Difficult 2 With Money,12,images/assets/snowy_money.jpg,learning,20,images/assets/success_money.jpg,images/assets/gameover.jpg,,,,,,,,,,,,,0,1,1,7,1,,,,,,,,,,,,,,,,,,,,,,,,,,,,,,,,
,,,,,,,,,,,,67e7f3e23ebd43bbd2539bc7,001,3,2025-04-15_15h36.13.688,avatar_quest_3AFC_legacy,2022.1.3,Win32,59.52380952,67e7f3e23ebd43bbd2539bc7,67fe6e666cecbc9329ddf6d6,67fe7b1b8f061e28f8528e2c,"[""left"",""left"",""right"",""left"",""left"",""right"",""right"",""right"",""right"",""left"",""left"",""right"",""left"",""right"",""right"",""left"",""right"",""right"",""right"",""left"",""left"",""left"",""left"",""right"",""right"",""right"",""right"",""left""]","[0.38420000001792687,1.2154000000059568,1.8005000000000564,2.000499999999988,2.2193000000119127,2.5334000000059405,3.216000000000008,3.548200000017914,3.7673000000119146,4.0003000000119755,4.335000000000036,4.732300000011946,5.333099999994033,5.81720000001792,6.2000000000000455,7.015900000006013,7.483300000011923,7.751400000006015,7.98320000001786,8.23240000000601,8.466900000005921,8.665499999999952,8.867099999994025,9.500499999999988,9.86640000000591,10.116300000011961,10.450500000000034,10.767500000000041]",,calibration,With Brainslug Difficult 2 With Money,10,11.02925,11.033,15,9,0,FALSE,na,na,na,na,,,,,,,,,,,,,,,,,,,,,,,,,,,,,,,,,,0,0,0,0,1,,,,,,,,,,,,,,,,,,,,,,,
,,,,,,,,,,,,67e7f3e23ebd43bbd2539bc7,001,3,2025-04-15_15h36.13.688,avatar_quest_3AFC_legacy,2022.1.3,Win32,59.52380952,67e7f3e23ebd43bbd2539bc7,67fe6e666cecbc9329ddf6d6,67fe7b1b8f061e28f8528e2c,,,,,,,,,,,,,,,,,,,,,,With Brainslug Difficult 2 With Money,12,images/assets/snowy_money.jpg,learning,20,images/assets/success_money.jpg,images/assets/gameover.jpg,,,,,,,,,,,,,0,2,2,2,1,,,,,,,,,,,,,,,,,,,,,,,,,,,,,,,,
,,,,,,,,,,,,67e7f3e23ebd43bbd2539bc7,001,3,2025-04-15_15h36.13.688,avatar_quest_3AFC_legacy,2022.1.3,Win32,59.52380952,67e7f3e23ebd43bbd2539bc7,67fe6e666cecbc9329ddf6d6,67fe7b1b8f061e28f8528e2c,,,,,,,,,,,,,,,,,,,,,,With Brainslug No Barriers With Money,0,images/assets/snowy_money.jpg,learning,10,images/assets/success_money.jpg,images/assets/gameover.jpg,,,,,,,,,,,,,0,3,3,4,1,,,,,,,,,,,,,,,,,,,,,,,,,,,,,,,,
,,,,,,,,,,,,67e7f3e23ebd43bbd2539bc7,001,3,2025-04-15_15h36.13.688,avatar_quest_3AFC_legacy,2022.1.3,Win32,59.52380952,67e7f3e23ebd43bbd2539bc7,67fe6e666cecbc9329ddf6d6,67fe7b1b8f061e28f8528e2c,,,,,,,,,,,,,,,,,,,,,,No Brainslug No Barriers No Money,0,images/assets/snowy_original.jpg,learning,10,images/assets/success.jpg,images/assets/gameover.jpg,,,,,,,,,,,,,0,4,4,10,1,,,,,,,,,,,,,,,,,,,,,,,,,,,,,,,,
,,,,,,,,,,,,67e7f3e23ebd43bbd2539bc7,001,3,2025-04-15_15h36.13.688,avatar_quest_3AFC_legacy,2022.1.3,Win32,59.52380952,67e7f3e23ebd43bbd2539bc7,67fe6e666cecbc9329ddf6d6,67fe7b1b8f061e28f8528e2c,,,,,,,,,,,,,,,,,,,,,,No Brainslug Difficult 1 No Money,6,images/assets/snowy_original.jpg,learning,20,images/assets/success.jpg,images/assets/gameover.jpg,,,,,,,,,,,,,0,5,5,6,1,,,,,,,,,,,,,,,,,,,,,,,,,,,,,,,,
,,,,,,,,,,,,67e7f3e23ebd43bbd2539bc7,001,3,2025-04-15_15h36.13.688,avatar_quest_3AFC_legacy,2022.1.3,Win32,59.52380952,67e7f3e23ebd43bbd2539bc7,67fe6e666cecbc9329ddf6d6,67fe7b1b8f061e28f8528e2c,,,,,,,,,,,,,,,,,,,,,,With Brainslug Difficult 1 No Money,6,images/assets/snowy_original.jpg,learning,20,images/assets/success.jpg,images/assets/gameover.jpg,,,,,,,,,,,,,0,6,6,1,1,,,,,,,,,,,,,,,,,,,,,,,,,,,,,,,,
,,,,,,,,,,,,67e7f3e23ebd43bbd2539bc7,001,3,2025-04-15_15h36.13.688,avatar_quest_3AFC_legacy,2022.1.3,Win32,59.52380952,67e7f3e23ebd43bbd2539bc7,67fe6e666cecbc9329ddf6d6,67fe7b1b8f061e28f8528e2c,,,,,,,,,,,,,,,,,,,,,,No Brainslug Difficult 2 No Money,12,images/assets/snowy_original.jpg,learning,20,images/assets/success.jpg,images/assets/gameover.jpg,,,,,,,,,,,,,0,7,7,8,1,,,,,,,,,,,,,,,,,,,,,,,,,,,,,,,,
,,,,,,,,,,,,67e7f3e23ebd43bbd2539bc7,001,3,2025-04-15_15h36.13.688,avatar_quest_3AFC_legacy,2022.1.3,Win32,59.52380952,67e7f3e23ebd43bbd2539bc7,67fe6e666cecbc9329ddf6d6,67fe7b1b8f061e28f8528e2c,,,,,,,,,,,,,,,,,,,,,,With Brainslug No Barriers No Money,0,images/assets/snowy_original.jpg,learning,10,images/assets/success.jpg,images/assets/gameover.jpg,,,,,,,,,,,,,0,8,8,5,1,,,,,,,,,,,,,,,,,,,,,,,,,,,,,,,,
,,,,,,,,,,,,67e7f3e23ebd43bbd2539bc7,001,3,2025-04-15_15h36.13.688,avatar_quest_3AFC_legacy,2022.1.3,Win32,59.52380952,67e7f3e23ebd43bbd2539bc7,67fe6e666cecbc9329ddf6d6,67fe7b1b8f061e28f8528e2c,,,,,,,,,,,,,,,,,,,,,,With Brainslug Difficult 2 No Money,12,images/assets/snowy_original.jpg,learning,20,images/assets/success.jpg,images/assets/gameover.jpg,,,,,,,,,,,,,0,9,9,3,1,,,,,,,,,,,,,,,,,,,,,,,,,,,,,,,,
,,,,,,,,,,,,67e7f3e23ebd43bbd2539bc7,001,3,2025-04-15_15h36.13.688,avatar_quest_3AFC_legacy,2022.1.3,Win32,59.52380952,67e7f3e23ebd43bbd2539bc7,67fe6e666cecbc9329ddf6d6,67fe7b1b8f061e28f8528e2c,,,,,,,,,,,,,,,,,,,,,,No Brainslug No Barriers With Money,0,images/assets/snowy_money.jpg,learning,10,images/assets/success_money.jpg,images/assets/gameover.jpg,,,,,,,,,,,,,0,10,10,9,1,,,,,,,,,,,,,,,,,,,,,,,,,,,,,,,,
,,,,,,,,,,,,67e7f3e23ebd43bbd2539bc7,001,3,2025-04-15_15h36.13.688,avatar_quest_3AFC_legacy,2022.1.3,Win32,59.52380952,67e7f3e23ebd43bbd2539bc7,67fe6e666cecbc9329ddf6d6,67fe7b1b8f061e28f8528e2c,,,,,,,,,,,,,,,,,,,,,,,,,,,,,,,,,,,,,,,,,,,,,,,,,,,,,,,6,0,6,0,1,,,,,,,,,,,,,,,,,,
,,,,,,,,,,,,67e7f3e23ebd43bbd2539bc7,001,3,2025-04-15_15h36.13.688,avatar_quest_3AFC_legacy,2022.1.3,Win32,59.52380952,67e7f3e23ebd43bbd2539bc7,67fe6e666cecbc9329ddf6d6,67fe7b1b8f061e28f8528e2c,,,,,,,,,,,,,,,,,,,,,,No Brainslug Difficult 1 No Money,6,images/assets/snowy_original.jpg,learning,20,images/assets/success.jpg,images/assets/gameover.jpg,,,,,,,,With Brainslug Difficult 2 With Money,With Brainslug Difficult 1 No Money,right,1.7086,"[""With Brainslug Difficult 1 No Money"",""With Brainslug Difficult 2 No Money""]",0,0,0,6,1,,,,,,,,,,,,,,,,,,,,,,,,,,,,,,,,
,,,,,,,,,,,,67e7f3e23ebd43bbd2539bc7,001,3,2025-04-15_15h36.13.688,avatar_quest_3AFC_legacy,2022.1.3,Win32,59.52380952,67e7f3e23ebd43bbd2539bc7,67fe6e666cecbc9329ddf6d6,67fe7b1b8f061e28f8528e2c,,,,,,,,,,,,,,,,,,,,,,With Brainslug No Barriers With Money,0,images/assets/snowy_money.jpg,learning,10,images/assets/success_money.jpg,images/assets/gameover.jpg,,,,,,,,,,,,,0,1,1,4,1,,,,,,,,,,,,,,,,,,,,,,,,,,,,,,,,
,,,,,,,,,,,,67e7f3e23ebd43bbd2539bc7,001,3,2025-04-15_15h36.13.688,avatar_quest_3AFC_legacy,2022.1.3,Win32,59.52380952,67e7f3e23ebd43bbd2539bc7,67fe6e666cecbc9329ddf6d6,67fe7b1b8f061e28f8528e2c,,,,,,,,,,,,,,,,,,,,,,With Brainslug Difficult 1 With Money,6,images/assets/snowy_money.jpg,learning,20,images/assets/success_money.jpg,images/assets/gameover.jpg,,,,,,,,,,,,,0,2,2,0,1,,,,,,,,,,,,,,,,,,,,,,,,,,,,,,,,
,,,,,,,,,,,,67e7f3e23ebd43bbd2539bc7,001,3,2025-04-15_15h36.13.688,avatar_quest_3AFC_legacy,2022.1.3,Win32,59.52380952,67e7f3e23ebd43bbd2539bc7,67fe6e666cecbc9329ddf6d6,67fe7b1b8f061e28f8528e2c,,,,,,,,,,,,,,,,,,,,,,With Brainslug Difficult 1 No Money,6,images/assets/snowy_original.jpg,learning,20,images/assets/success.jpg,images/assets/gameover.jpg,,,,,,,,,,,,,0,3,3,1,1,,,,,,,,,,,,,,,,,,,,,,,,,,,,,,,,
,,,,,,,,,,,,67e7f3e23ebd43bbd2539bc7,001,3,2025-04-15_15h36.13.688,avatar_quest_3AFC_legacy,2022.1.3,Win32,59.52380952,67e7f3e23ebd43bbd2539bc7,67fe6e666cecbc9329ddf6d6,67fe7b1b8f061e28f8528e2c,,,,,,,,,,,,,,,,,,,,,,No Brainslug Difficult 2 No Money,12,images/assets/snowy_original.jpg,learning,20,images/assets/success.jpg,images/assets/gameover.jpg,,,,,,,,,,,,,0,4,4,8,1,,,,,,,,,,,,,,,,,,,,,,,,,,,,,,,,
,,,,,,,,,,,,67e7f3e23ebd43bbd2539bc7,001,3,2025-04-15_15h36.13.688,avatar_quest_3AFC_legacy,2022.1.3,Win32,59.52380952,67e7f3e23ebd43bbd2539bc7,67fe6e666cecbc9329ddf6d6,67fe7b1b8f061e28f8528e2c,,,,,,,,,,,,,,,,,,,,,,No Brainslug Difficult 2 With Money,12,images/assets/snowy_money.jpg,learning,20,images/assets/success_money.jpg,images/assets/gameover.jpg,,,,,,,,,,,,,0,5,5,7,1,,,,,,,,,,,,,,,,,,,,,,,,,,,,,,,,
,,,,,,,,,,,,67e7f3e23ebd43bbd2539bc7,001,3,2025-04-15_15h36.13.688,avatar_quest_3AFC_legacy,2022.1.3,Win32,59.52380952,67e7f3e23ebd43bbd2539bc7,67fe6e666cecbc9329ddf6d6,67fe7b1b8f061e28f8528e2c,,,,,,,,,,,,,,,,,,,,,,With Brainslug Difficult 2 No Money,12,images/assets/snowy_original.jpg,learning,20,images/assets/success.jpg,images/assets/gameover.jpg,,,,,,,,,,,,,0,6,6,3,1,,,,,,,,,,,,,,,,,,,,,,,,,,,,,,,,
,,,,,,,,,,,,67e7f3e23ebd43bbd2539bc7,001,3,2025-04-15_15h36.13.688,avatar_quest_3AFC_legacy,2022.1.3,Win32,59.52380952,67e7f3e23ebd43bbd2539bc7,67fe6e666cecbc9329ddf6d6,67fe7b1b8f061e28f8528e2c,,,,,,,,,,,,,,,,,,,,,,With Brainslug No Barriers No Money,0,images/assets/snowy_original.jpg,learning,10,images/assets/success.jpg,images/assets/gameover.jpg,,,,,,,,,,,,,0,7,7,5,1,,,,,,,,,,,,,,,,,,,,,,,,,,,,,,,,
,,,,,,,,,,,,67e7f3e23ebd43bbd2539bc7,001,3,2025-04-15_15h36.13.688,avatar_quest_3AFC_legacy,2022.1.3,Win32,59.52380952,67e7f3e23ebd43bbd2539bc7,67fe6e666cecbc9329ddf6d6,67fe7b1b8f061e28f8528e2c,"[""right"",""left"",""right"",""right"",""left"",""right"",""left"",""left"",""right"",""right"",""right"",""right"",""left"",""left"",""left"",""left"",""left"",""left"",""right"",""left"",""left"",""left""]","[0.15759999999409047,0.98989999997616,1.8475000000000819,2.564199999988091,3.09800000000007,3.7807999999821504,4.447699999988117,4.903599999994071,5.631299999982161,5.9665999999940595,6.214099999994119,6.614699999988147,7.064299999982154,7.347899999976221,7.648299999982214,7.981399999976247,8.514799999982188,8.881599999994137,9.397799999982226,10.048099999994065,10.631099999994149,10.980699999988133]",,calibration,With Brainslug Difficult 2 With Money,11,11.02925,11.0381,9,5,0,FALSE,na,na,na,na,,,,,,,,,,,,,,,,,,,,,,,,,,,,,,,,,,0,0,0,0,1,,,,,,,,,,,,,,,,,,,,,,,
,,,,,,,,,,,,67e7f3e23ebd43bbd2539bc7,001,3,2025-04-15_15h36.13.688,avatar_quest_3AFC_legacy,2022.1.3,Win32,59.52380952,67e7f3e23ebd43bbd2539bc7,67fe6e666cecbc9329ddf6d6,67fe7b1b8f061e28f8528e2c,,,,,,,,,,,,,,,,,,,,,,With Brainslug Difficult 2 With Money,12,images/assets/snowy_money.jpg,learning,20,images/assets/success_money.jpg,images/assets/gameover.jpg,,,,,,,,,,,,,0,8,8,2,1,,,,,,,,,,,,,,,,,,,,,,,,,,,,,,,,
,,,,,,,,,,,,67e7f3e23ebd43bbd2539bc7,001,3,2025-04-15_15h36.13.688,avatar_quest_3AFC_legacy,2022.1.3,Win32,59.52380952,67e7f3e23ebd43bbd2539bc7,67fe6e666cecbc9329ddf6d6,67fe7b1b8f061e28f8528e2c,,,,,,,,,,,,,,,,,,,,,,No Brainslug No Barriers No Money,0,images/assets/snowy_original.jpg,learning,10,images/assets/success.jpg,images/assets/gameover.jpg,,,,,,,,,,,,,0,9,9,10,1,,,,,,,,,,,,,,,,,,,,,,,,,,,,,,,,
,,,,,,,,,,,,67e7f3e23ebd43bbd2539bc7,001,3,2025-04-15_15h36.13.688,avatar_quest_3AFC_legacy,2022.1.3,Win32,59.52380952,67e7f3e23ebd43bbd2539bc7,67fe6e666cecbc9329ddf6d6,67fe7b1b8f061e28f8528e2c,,,,,,,,,,,,,,,,,,,,,,No Brainslug No Barriers With Money,0,images/assets/snowy_money.jpg,learning,10,images/assets/success_money.jpg,images/assets/gameover.jpg,,,,,,,,,,,,,0,10,10,9,1,,,,,,,,,,,,,,,,,,,,,,,,,,,,,,,,
,,,,,,,,,,,,67e7f3e23ebd43bbd2539bc7,001,3,2025-04-15_15h36.13.688,avatar_quest_3AFC_legacy,2022.1.3,Win32,59.52380952,67e7f3e23ebd43bbd2539bc7,67fe6e666cecbc9329ddf6d6,67fe7b1b8f061e28f8528e2c,,,,,,,,,,,,,,,,,,,,,,,,,,,,,,,,,,,,,,,,,,,,,,,,,,,,,,,7,0,7,0,1,,,,,,,,,,,,,,,,,,
,,,,,,,,,,,,67e7f3e23ebd43bbd2539bc7,001,3,2025-04-15_15h36.13.688,avatar_quest_3AFC_legacy,2022.1.3,Win32,59.52380952,67e7f3e23ebd43bbd2539bc7,67fe6e666cecbc9329ddf6d6,67fe7b1b8f061e28f8528e2c,,,,,,,,,,,,,,,,,,,,,,No Brainslug Difficult 2 No Money,12,images/assets/snowy_original.jpg,learning,20,images/assets/success.jpg,images/assets/gameover.jpg,,,,,,,,With Brainslug Difficult 2 No Money,With Brainslug Difficult 1 No Money,down,1.2516,"[""With Brainslug Difficult 1 No Money"",""With Brainslug Difficult 2 With Money""]",0,0,0,8,1,,,,,,,,,,,,,,,,,,,,,,,,,,,,,,,,
,,,,,,,,,,,,67e7f3e23ebd43bbd2539bc7,001,3,2025-04-15_15h36.13.688,avatar_quest_3AFC_legacy,2022.1.3,Win32,59.52380952,67e7f3e23ebd43bbd2539bc7,67fe6e666cecbc9329ddf6d6,67fe7b1b8f061e28f8528e2c,,,,,,,,,,,,,,,,,,,,,,No Brainslug Difficult 2 With Money,12,images/assets/snowy_money.jpg,learning,20,images/assets/success_money.jpg,images/assets/gameover.jpg,,,,,,,,,,,,,0,1,1,7,1,,,,,,,,,,,,,,,,,,,,,,,,,,,,,,,,
,,,,,,,,,,,,67e7f3e23ebd43bbd2539bc7,001,3,2025-04-15_15h36.13.688,avatar_quest_3AFC_legacy,2022.1.3,Win32,59.52380952,67e7f3e23ebd43bbd2539bc7,67fe6e666cecbc9329ddf6d6,67fe7b1b8f061e28f8528e2c,,,,,,,,,,,,,,,,,,,,,,With Brainslug Difficult 1 With Money,6,images/assets/snowy_money.jpg,learning,20,images/assets/success_money.jpg,images/assets/gameover.jpg,,,,,,,,,,,,,0,2,2,0,1,,,,,,,,,,,,,,,,,,,,,,,,,,,,,,,,
,,,,,,,,,,,,67e7f3e23ebd43bbd2539bc7,001,3,2025-04-15_15h36.13.688,avatar_quest_3AFC_legacy,2022.1.3,Win32,59.52380952,67e7f3e23ebd43bbd2539bc7,67fe6e666cecbc9329ddf6d6,67fe7b1b8f061e28f8528e2c,,,,,,,,,,,,,,,,,,,,,,No Brainslug Difficult 1 No Money,6,images/assets/snowy_original.jpg,learning,20,images/assets/success.jpg,images/assets/gameover.jpg,,,,,,,,,,,,,0,3,3,6,1,,,,,,,,,,,,,,,,,,,,,,,,,,,,,,,,
,,,,,,,,,,,,67e7f3e23ebd43bbd2539bc7,001,3,2025-04-15_15h36.13.688,avatar_quest_3AFC_legacy,2022.1.3,Win32,59.52380952,67e7f3e23ebd43bbd2539bc7,67fe6e666cecbc9329ddf6d6,67fe7b1b8f061e28f8528e2c,"[""left"",""left"",""left"",""left"",""right"",""right"",""right"",""left"",""left"",""left"",""up"",""down"",""down"",""left"",""left"",""right"",""left"",""right"",""right"",""right"",""right"",""left"",""right"",""down"",""right"",""down""]","[1.0387000000179114,1.5578000000118664,2.1889999999999645,2.7223000000119555,3.022700000017835,3.4578000000119573,4.050100000023804,4.050499999999943,4.178600000023835,4.441400000005956,4.623400000005972,5.072499999999991,5.455800000011891,5.689700000017865,5.97199999999998,6.439499999999953,7.024499999999989,7.641999999999939,8.271499999999946,8.971200000017916,9.439900000005991,10.006700000017872,10.389300000011872,10.69010000002379,10.690300000011916,10.839900000005969]",,calibration,With Brainslug Difficult 2 No Money,12,11.02925,11.0324,4,4,0,FALSE,na,na,na,na,,,,,,,,,,,,,,,,,,,,,,,,,,,,,,,,,,0,0,0,0,1,,,,,,,,,,,,,,,,,,,,,,,
,,,,,,,,,,,,67e7f3e23ebd43bbd2539bc7,001,3,2025-04-15_15h36.13.688,avatar_quest_3AFC_legacy,2022.1.3,Win32,59.52380952,67e7f3e23ebd43bbd2539bc7,67fe6e666cecbc9329ddf6d6,67fe7b1b8f061e28f8528e2c,,,,,,,,,,,,,,,,,,,,,,With Brainslug Difficult 2 No Money,12,images/assets/snowy_original.jpg,learning,20,images/assets/success.jpg,images/assets/gameover.jpg,,,,,,,,,,,,,0,4,4,3,1,,,,,,,,,,,,,,,,,,,,,,,,,,,,,,,,
,,,,,,,,,,,,67e7f3e23ebd43bbd2539bc7,001,3,2025-04-15_15h36.13.688,avatar_quest_3AFC_legacy,2022.1.3,Win32,59.52380952,67e7f3e23ebd43bbd2539bc7,67fe6e666cecbc9329ddf6d6,67fe7b1b8f061e28f8528e2c,,,,,,,,,,,,,,,,,,,,,,With Brainslug No Barriers With Money,0,images/assets/snowy_money.jpg,learning,10,images/assets/success_money.jpg,images/assets/gameover.jpg,,,,,,,,,,,,,0,5,5,4,1,,,,,,,,,,,,,,,,,,,,,,,,,,,,,,,,
,,,,,,,,,,,,67e7f3e23ebd43bbd2539bc7,001,3,2025-04-15_15h36.13.688,avatar_quest_3AFC_legacy,2022.1.3,Win32,59.52380952,67e7f3e23ebd43bbd2539bc7,67fe6e666cecbc9329ddf6d6,67fe7b1b8f061e28f8528e2c,,,,,,,,,,,,,,,,,,,,,,With Brainslug Difficult 2 With Money,12,images/assets/snowy_money.jpg,learning,20,images/assets/success_money.jpg,images/assets/gameover.jpg,,,,,,,,,,,,,0,6,6,2,1,,,,,,,,,,,,,,,,,,,,,,,,,,,,,,,,
,,,,,,,,,,,,67e7f3e23ebd43bbd2539bc7,001,3,2025-04-15_15h36.13.688,avatar_quest_3AFC_legacy,2022.1.3,Win32,59.52380952,67e7f3e23ebd43bbd2539bc7,67fe6e666cecbc9329ddf6d6,67fe7b1b8f061e28f8528e2c,,,,,,,,,,,,,,,,,,,,,,With Brainslug Difficult 1 No Money,6,images/assets/snowy_original.jpg,learning,20,images/assets/success.jpg,images/assets/gameover.jpg,,,,,,,,,,,,,0,7,7,1,1,,,,,,,,,,,,,,,,,,,,,,,,,,,,,,,,
,,,,,,,,,,,,67e7f3e23ebd43bbd2539bc7,001,3,2025-04-15_15h36.13.688,avatar_quest_3AFC_legacy,2022.1.3,Win32,59.52380952,67e7f3e23ebd43bbd2539bc7,67fe6e666cecbc9329ddf6d6,67fe7b1b8f061e28f8528e2c,,,,,,,,,,,,,,,,,,,,,,With Brainslug No Barriers No Money,0,images/assets/snowy_original.jpg,learning,10,images/assets/success.jpg,images/assets/gameover.jpg,,,,,,,,,,,,,0,8,8,5,1,,,,,,,,,,,,,,,,,,,,,,,,,,,,,,,,
,,,,,,,,,,,,67e7f3e23ebd43bbd2539bc7,001,3,2025-04-15_15h36.13.688,avatar_quest_3AFC_legacy,2022.1.3,Win32,59.52380952,67e7f3e23ebd43bbd2539bc7,67fe6e666cecbc9329ddf6d6,67fe7b1b8f061e28f8528e2c,,,,,,,,,,,,,,,,,,,,,,No Brainslug No Barriers With Money,0,images/assets/snowy_money.jpg,learning,10,images/assets/success_money.jpg,images/assets/gameover.jpg,,,,,,,,,,,,,0,9,9,9,1,,,,,,,,,,,,,,,,,,,,,,,,,,,,,,,,
,,,,,,,,,,,,67e7f3e23ebd43bbd2539bc7,001,3,2025-04-15_15h36.13.688,avatar_quest_3AFC_legacy,2022.1.3,Win32,59.52380952,67e7f3e23ebd43bbd2539bc7,67fe6e666cecbc9329ddf6d6,67fe7b1b8f061e28f8528e2c,,,,,,,,,,,,,,,,,,,,,,No Brainslug No Barriers No Money,0,images/assets/snowy_original.jpg,learning,10,images/assets/success.jpg,images/assets/gameover.jpg,,,,,,,,,,,,,0,10,10,10,1,,,,,,,,,,,,,,,,,,,,,,,,,,,,,,,,
,,,,,,,,,,,,67e7f3e23ebd43bbd2539bc7,001,3,2025-04-15_15h36.13.688,avatar_quest_3AFC_legacy,2022.1.3,Win32,59.52380952,67e7f3e23ebd43bbd2539bc7,67fe6e666cecbc9329ddf6d6,67fe7b1b8f061e28f8528e2c,,,,,,,,,,,,,,,,,,,,,,,,,,,,,,,,,,,,,,,,,,,,,,,,,,,,,,,8,0,8,0,1,,,,,,,,,,,,,,,,,,
,,,,,,,,,,,,67e7f3e23ebd43bbd2539bc7,001,3,2025-04-15_15h36.13.688,avatar_quest_3AFC_legacy,2022.1.3,Win32,59.52380952,67e7f3e23ebd43bbd2539bc7,67fe6e666cecbc9329ddf6d6,67fe7b1b8f061e28f8528e2c,,,,,,,,,,,,,,,,,,,,,,With Brainslug No Barriers No Money,0,images/assets/snowy_original.jpg,learning,10,images/assets/success.jpg,images/assets/gameover.jpg,,,,,,,,With Brainslug Difficult 1 No Money,With Brainslug Difficult 1 No Money,left,0.8209,"[""With Brainslug Difficult 2 No Money"",""With Brainslug Difficult 2 With Money""]",0,0,0,5,1,,,,,,,,,,,,,,,,,,,,,,,,,,,,,,,,
,,,,,,,,,,,,67e7f3e23ebd43bbd2539bc7,001,3,2025-04-15_15h36.13.688,avatar_quest_3AFC_legacy,2022.1.3,Win32,59.52380952,67e7f3e23ebd43bbd2539bc7,67fe6e666cecbc9329ddf6d6,67fe7b1b8f061e28f8528e2c,,,,,,,,,,,,,,,,,,,,,,No Brainslug No Barriers No Money,0,images/assets/snowy_original.jpg,learning,10,images/assets/success.jpg,images/assets/gameover.jpg,,,,,,,,,,,,,0,1,1,10,1,,,,,,,,,,,,,,,,,,,,,,,,,,,,,,,,
,,,,,,,,,,,,67e7f3e23ebd43bbd2539bc7,001,3,2025-04-15_15h36.13.688,avatar_quest_3AFC_legacy,2022.1.3,Win32,59.52380952,67e7f3e23ebd43bbd2539bc7,67fe6e666cecbc9329ddf6d6,67fe7b1b8f061e28f8528e2c,"[""left"",""left"",""right"",""left"",""left"",""left"",""right"",""right"",""left""]","[1.094500000000039,1.678400000006036,2.7443000000120037,3.5451999999880854,4.22769999998809,4.577800000011962,5.2140000000000555,5.877599999994118,6.8616999999881045]",,calibration,With Brainslug Difficult 1 No Money,13,11.02925,7.4834,7,5,0,TRUE,na,na,na,na,,,,,,,,,,,,,,,,,,,,,,,,,,,,,,,,,,0,0,0,0,1,,,,,,,,,,,,,,,,,,,,,,,
,,,,,,,,,,,,67e7f3e23ebd43bbd2539bc7,001,3,2025-04-15_15h36.13.688,avatar_quest_3AFC_legacy,2022.1.3,Win32,59.52380952,67e7f3e23ebd43bbd2539bc7,67fe6e666cecbc9329ddf6d6,67fe7b1b8f061e28f8528e2c,,,,,,,,,,,,,,,,,,,,,,With Brainslug Difficult 1 No Money,6,images/assets/snowy_original.jpg,learning,20,images/assets/success.jpg,images/assets/gameover.jpg,,,,,,,,,,,,,0,2,2,1,1,,,,,,,,,,,,,,,,,,,,,,,,,,,,,,,,
,,,,,,,,,,,,67e7f3e23ebd43bbd2539bc7,001,3,2025-04-15_15h36.13.688,avatar_quest_3AFC_legacy,2022.1.3,Win32,59.52380952,67e7f3e23ebd43bbd2539bc7,67fe6e666cecbc9329ddf6d6,67fe7b1b8f061e28f8528e2c,,,,,,,,,,,,,,,,,,,,,,With Brainslug Difficult 2 No Money,12,images/assets/snowy_original.jpg,learning,20,images/assets/success.jpg,images/assets/gameover.jpg,,,,,,,,,,,,,0,3,3,3,1,,,,,,,,,,,,,,,,,,,,,,,,,,,,,,,,
,,,,,,,,,,,,67e7f3e23ebd43bbd2539bc7,001,3,2025-04-15_15h36.13.688,avatar_quest_3AFC_legacy,2022.1.3,Win32,59.52380952,67e7f3e23ebd43bbd2539bc7,67fe6e666cecbc9329ddf6d6,67fe7b1b8f061e28f8528e2c,,,,,,,,,,,,,,,,,,,,,,With Brainslug No Barriers With Money,0,images/assets/snowy_money.jpg,learning,10,images/assets/success_money.jpg,images/assets/gameover.jpg,,,,,,,,,,,,,0,4,4,4,1,,,,,,,,,,,,,,,,,,,,,,,,,,,,,,,,
,,,,,,,,,,,,67e7f3e23ebd43bbd2539bc7,001,3,2025-04-15_15h36.13.688,avatar_quest_3AFC_legacy,2022.1.3,Win32,59.52380952,67e7f3e23ebd43bbd2539bc7,67fe6e666cecbc9329ddf6d6,67fe7b1b8f061e28f8528e2c,,,,,,,,,,,,,,,,,,,,,,No Brainslug Difficult 2 With Money,12,images/assets/snowy_money.jpg,learning,20,images/assets/success_money.jpg,images/assets/gameover.jpg,,,,,,,,,,,,,0,5,5,7,1,,,,,,,,,,,,,,,,,,,,,,,,,,,,,,,,
,,,,,,,,,,,,67e7f3e23ebd43bbd2539bc7,001,3,2025-04-15_15h36.13.688,avatar_quest_3AFC_legacy,2022.1.3,Win32,59.52380952,67e7f3e23ebd43bbd2539bc7,67fe6e666cecbc9329ddf6d6,67fe7b1b8f061e28f8528e2c,,,,,,,,,,,,,,,,,,,,,,With Brainslug Difficult 1 With Money,6,images/assets/snowy_money.jpg,learning,20,images/assets/success_money.jpg,images/assets/gameover.jpg,,,,,,,,,,,,,0,6,6,0,1,,,,,,,,,,,,,,,,,,,,,,,,,,,,,,,,
,,,,,,,,,,,,67e7f3e23ebd43bbd2539bc7,001,3,2025-04-15_15h36.13.688,avatar_quest_3AFC_legacy,2022.1.3,Win32,59.52380952,67e7f3e23ebd43bbd2539bc7,67fe6e666cecbc9329ddf6d6,67fe7b1b8f061e28f8528e2c,,,,,,,,,,,,,,,,,,,,,,With Brainslug Difficult 2 With Money,12,images/assets/snowy_money.jpg,learning,20,images/assets/success_money.jpg,images/assets/gameover.jpg,,,,,,,,,,,,,0,7,7,2,1,,,,,,,,,,,,,,,,,,,,,,,,,,,,,,,,
,,,,,,,,,,,,67e7f3e23ebd43bbd2539bc7,001,3,2025-04-15_15h36.13.688,avatar_quest_3AFC_legacy,2022.1.3,Win32,59.52380952,67e7f3e23ebd43bbd2539bc7,67fe6e666cecbc9329ddf6d6,67fe7b1b8f061e28f8528e2c,,,,,,,,,,,,,,,,,,,,,,No Brainslug No Barriers With Money,0,images/assets/snowy_money.jpg,learning,10,images/assets/success_money.jpg,images/assets/gameover.jpg,,,,,,,,,,,,,0,8,8,9,1,,,,,,,,,,,,,,,,,,,,,,,,,,,,,,,,
,,,,,,,,,,,,67e7f3e23ebd43bbd2539bc7,001,3,2025-04-15_15h36.13.688,avatar_quest_3AFC_legacy,2022.1.3,Win32,59.52380952,67e7f3e23ebd43bbd2539bc7,67fe6e666cecbc9329ddf6d6,67fe7b1b8f061e28f8528e2c,,,,,,,,,,,,,,,,,,,,,,No Brainslug Difficult 2 No Money,12,images/assets/snowy_original.jpg,learning,20,images/assets/success.jpg,images/assets/gameover.jpg,,,,,,,,,,,,,0,9,9,8,1,,,,,,,,,,,,,,,,,,,,,,,,,,,,,,,,
,,,,,,,,,,,,67e7f3e23ebd43bbd2539bc7,001,3,2025-04-15_15h36.13.688,avatar_quest_3AFC_legacy,2022.1.3,Win32,59.52380952,67e7f3e23ebd43bbd2539bc7,67fe6e666cecbc9329ddf6d6,67fe7b1b8f061e28f8528e2c,,,,,,,,,,,,,,,,,,,,,,No Brainslug Difficult 1 No Money,6,images/assets/snowy_original.jpg,learning,20,images/assets/success.jpg,images/assets/gameover.jpg,,,,,,,,,,,,,0,10,10,6,1,,,,,,,,,,,,,,,,,,,,,,,,,,,,,,,,
,,,,,,,,,,,,67e7f3e23ebd43bbd2539bc7,001,3,2025-04-15_15h36.13.688,avatar_quest_3AFC_legacy,2022.1.3,Win32,59.52380952,67e7f3e23ebd43bbd2539bc7,67fe6e666cecbc9329ddf6d6,67fe7b1b8f061e28f8528e2c,,,,,,,,,,,,,,,,,,,,,,,,,,,,,,,,,,,,,,,,,,,,,,,,,,,,,,,9,0,9,0,1,,,,,,,,,,,,,,,,,,
,,,,,,,,,,,,67e7f3e23ebd43bbd2539bc7,001,3,2025-04-15_15h36.13.688,avatar_quest_3AFC_legacy,2022.1.3,Win32,59.52380952,67e7f3e23ebd43bbd2539bc7,67fe6e666cecbc9329ddf6d6,67fe7b1b8f061e28f8528e2c,,,,,,,,,,,,,,,,,,,,,,With Brainslug No Barriers With Money,0,images/assets/snowy_money.jpg,learning,10,images/assets/success_money.jpg,images/assets/gameover.jpg,,,,,,,,With Brainslug Difficult 2 With Money,With Brainslug Difficult 1 No Money,right,1.0912,"[""With Brainslug Difficult 1 No Money"",""With Brainslug Difficult 2 No Money""]",0,0,0,4,1,,,,,,,,,,,,,,,,,,,,,,,,,,,,,,,,
,,,,,,,,,,,,67e7f3e23ebd43bbd2539bc7,001,3,2025-04-15_15h36.13.688,avatar_quest_3AFC_legacy,2022.1.3,Win32,59.52380952,67e7f3e23ebd43bbd2539bc7,67fe6e666cecbc9329ddf6d6,67fe7b1b8f061e28f8528e2c,,,,,,,,,,,,,,,,,,,,,,No Brainslug Difficult 2 With Money,12,images/assets/snowy_money.jpg,learning,20,images/assets/success_money.jpg,images/assets/gameover.jpg,,,,,,,,,,,,,0,1,1,7,1,,,,,,,,,,,,,,,,,,,,,,,,,,,,,,,,
,,,,,,,,,,,,67e7f3e23ebd43bbd2539bc7,001,3,2025-04-15_15h36.13.688,avatar_quest_3AFC_legacy,2022.1.3,Win32,59.52380952,67e7f3e23ebd43bbd2539bc7,67fe6e666cecbc9329ddf6d6,67fe7b1b8f061e28f8528e2c,"[""left"",""left"",""right"",""right"",""right"",""left"",""right"",""right"",""right"",""left"",""left"",""left"",""down"",""down"",""left"",""left"",""left"",""down"",""down"",""left"",""left"",""left"",""down"",""down"",""right"",""left""]","[0.22540000000594773,0.6567000000178496,1.5085999999940896,1.8402000000178305,2.1409000000058995,2.4905999999940605,3.1392000000179223,3.706300000011879,3.924800000011942,4.0919999999999845,4.5924000000059095,5.055800000011914,5.14270000001784,5.6064000000059195,5.707400000005919,6.074400000005994,6.474599999993984,7.1640999999940504,7.633099999993988,8.064200000017877,8.413999999999987,8.714700000017842,8.999200000017822,9.280900000006,10.26649999999995,10.680599999994001]",,calibration,With Brainslug Difficult 2 With Money,14,11.02925,11.0388,7,7,0,FALSE,na,na,na,na,,,,,,,,,,,,,,,,,,,,,,,,,,,,,,,,,,0,0,0,0,1,,,,,,,,,,,,,,,,,,,,,,,
,,,,,,,,,,,,67e7f3e23ebd43bbd2539bc7,001,3,2025-04-15_15h36.13.688,avatar_quest_3AFC_legacy,2022.1.3,Win32,59.52380952,67e7f3e23ebd43bbd2539bc7,67fe6e666cecbc9329ddf6d6,67fe7b1b8f061e28f8528e2c,,,,,,,,,,,,,,,,,,,,,,With Brainslug Difficult 2 With Money,12,images/assets/snowy_money.jpg,learning,20,images/assets/success_money.jpg,images/assets/gameover.jpg,,,,,,,,,,,,,0,2,2,2,1,,,,,,,,,,,,,,,,,,,,,,,,,,,,,,,,
,,,,,,,,,,,,67e7f3e23ebd43bbd2539bc7,001,3,2025-04-15_15h36.13.688,avatar_quest_3AFC_legacy,2022.1.3,Win32,59.52380952,67e7f3e23ebd43bbd2539bc7,67fe6e666cecbc9329ddf6d6,67fe7b1b8f061e28f8528e2c,,,,,,,,,,,,,,,,,,,,,,No Brainslug No Barriers No Money,0,images/assets/snowy_original.jpg,learning,10,images/assets/success.jpg,images/assets/gameover.jpg,,,,,,,,,,,,,0,3,3,10,1,,,,,,,,,,,,,,,,,,,,,,,,,,,,,,,,
,,,,,,,,,,,,67e7f3e23ebd43bbd2539bc7,001,3,2025-04-15_15h36.13.688,avatar_quest_3AFC_legacy,2022.1.3,Win32,59.52380952,67e7f3e23ebd43bbd2539bc7,67fe6e666cecbc9329ddf6d6,67fe7b1b8f061e28f8528e2c,,,,,,,,,,,,,,,,,,,,,,No Brainslug No Barriers With Money,0,images/assets/snowy_money.jpg,learning,10,images/assets/success_money.jpg,images/assets/gameover.jpg,,,,,,,,,,,,,0,4,4,9,1,,,,,,,,,,,,,,,,,,,,,,,,,,,,,,,,
,,,,,,,,,,,,67e7f3e23ebd43bbd2539bc7,001,3,2025-04-15_15h36.13.688,avatar_quest_3AFC_legacy,2022.1.3,Win32,59.52380952,67e7f3e23ebd43bbd2539bc7,67fe6e666cecbc9329ddf6d6,67fe7b1b8f061e28f8528e2c,,,,,,,,,,,,,,,,,,,,,,With Brainslug Difficult 1 With Money,6,images/assets/snowy_money.jpg,learning,20,images/assets/success_money.jpg,images/assets/gameover.jpg,,,,,,,,,,,,,0,5,5,0,1,,,,,,,,,,,,,,,,,,,,,,,,,,,,,,,,
,,,,,,,,,,,,67e7f3e23ebd43bbd2539bc7,001,3,2025-04-15_15h36.13.688,avatar_quest_3AFC_legacy,2022.1.3,Win32,59.52380952,67e7f3e23ebd43bbd2539bc7,67fe6e666cecbc9329ddf6d6,67fe7b1b8f061e28f8528e2c,,,,,,,,,,,,,,,,,,,,,,No Brainslug Difficult 1 No Money,6,images/assets/snowy_original.jpg,learning,20,images/assets/success.jpg,images/assets/gameover.jpg,,,,,,,,,,,,,0,6,6,6,1,,,,,,,,,,,,,,,,,,,,,,,,,,,,,,,,
,,,,,,,,,,,,67e7f3e23ebd43bbd2539bc7,001,3,2025-04-15_15h36.13.688,avatar_quest_3AFC_legacy,2022.1.3,Win32,59.52380952,67e7f3e23ebd43bbd2539bc7,67fe6e666cecbc9329ddf6d6,67fe7b1b8f061e28f8528e2c,,,,,,,,,,,,,,,,,,,,,,With Brainslug Difficult 1 No Money,6,images/assets/snowy_original.jpg,learning,20,images/assets/success.jpg,images/assets/gameover.jpg,,,,,,,,,,,,,0,7,7,1,1,,,,,,,,,,,,,,,,,,,,,,,,,,,,,,,,
,,,,,,,,,,,,67e7f3e23ebd43bbd2539bc7,001,3,2025-04-15_15h36.13.688,avatar_quest_3AFC_legacy,2022.1.3,Win32,59.52380952,67e7f3e23ebd43bbd2539bc7,67fe6e666cecbc9329ddf6d6,67fe7b1b8f061e28f8528e2c,,,,,,,,,,,,,,,,,,,,,,With Brainslug No Barriers No Money,0,images/assets/snowy_original.jpg,learning,10,images/assets/success.jpg,images/assets/gameover.jpg,,,,,,,,,,,,,0,8,8,5,1,,,,,,,,,,,,,,,,,,,,,,,,,,,,,,,,
,,,,,,,,,,,,67e7f3e23ebd43bbd2539bc7,001,3,2025-04-15_15h36.13.688,avatar_quest_3AFC_legacy,2022.1.3,Win32,59.52380952,67e7f3e23ebd43bbd2539bc7,67fe6e666cecbc9329ddf6d6,67fe7b1b8f061e28f8528e2c,,,,,,,,,,,,,,,,,,,,,,No Brainslug Difficult 2 No Money,12,images/assets/snowy_original.jpg,learning,20,images/assets/success.jpg,images/assets/gameover.jpg,,,,,,,,,,,,,0,9,9,8,1,,,,,,,,,,,,,,,,,,,,,,,,,,,,,,,,
,,,,,,,,,,,,67e7f3e23ebd43bbd2539bc7,001,3,2025-04-15_15h36.13.688,avatar_quest_3AFC_legacy,2022.1.3,Win32,59.52380952,67e7f3e23ebd43bbd2539bc7,67fe6e666cecbc9329ddf6d6,67fe7b1b8f061e28f8528e2c,,,,,,,,,,,,,,,,,,,,,,With Brainslug Difficult 2 No Money,12,images/assets/snowy_original.jpg,learning,20,images/assets/success.jpg,images/assets/gameover.jpg,,,,,,,,,,,,,0,10,10,3,1,,,,,,,,,,,,,,,,,,,,,,,,,,,,,,,,
,,,,,,,,,,,,67e7f3e23ebd43bbd2539bc7,001,3,2025-04-15_15h36.13.688,avatar_quest_3AFC_legacy,2022.1.3,Win32,59.52380952,67e7f3e23ebd43bbd2539bc7,67fe6e666cecbc9329ddf6d6,67fe7b1b8f061e28f8528e2c,,,,,,,,,,,,,,,,,,,,,,,,,,,,,,,,,,,,,,,,,,,,,,,,,,,,,,,10,0,10,0,1,,,,,,,,,,,,,,,,,,
,,,,,,,,,,,,67e7f3e23ebd43bbd2539bc7,001,3,2025-04-15_15h36.13.688,avatar_quest_3AFC_legacy,2022.1.3,Win32,59.52380952,67e7f3e23ebd43bbd2539bc7,67fe6e666cecbc9329ddf6d6,67fe7b1b8f061e28f8528e2c,,,,,,,,,,,,,,,,,,,,,,With Brainslug No Barriers With Money,0,images/assets/snowy_money.jpg,learning,10,images/assets/success_money.jpg,images/assets/gameover.jpg,,,,,,,,With Brainslug Difficult 2 With Money,With Brainslug Difficult 1 No Money,right,0.5683,"[""With Brainslug Difficult 1 No Money"",""With Brainslug Difficult 2 No Money""]",0,0,0,4,1,,,,,,,,,,,,,,,,,,,,,,,,,,,,,,,,
,,,,,,,,,,,,67e7f3e23ebd43bbd2539bc7,001,3,2025-04-15_15h36.13.688,avatar_quest_3AFC_legacy,2022.1.3,Win32,59.52380952,67e7f3e23ebd43bbd2539bc7,67fe6e666cecbc9329ddf6d6,67fe7b1b8f061e28f8528e2c,"[""left"",""right"",""left"",""left"",""right"",""left"",""right"",""right"",""left"",""left"",""left"",""left"",""left"",""left"",""left"",""right"",""right"",""right"",""right"",""left"",""right"",""left"",""left"",""left"",""right"",""left"",""right"",""left"",""right"",""right"",""left""]","[0.9934999999999263,1.3104999999999336,1.7590000000000146,2.1588999999761427,2.5091999999880272,2.9108999999760954,3.3108999999760726,3.69399999999996,3.82650000000001,4.193399999976123,4.375999999999976,4.609099999993987,4.9101999999880945,5.175999999999931,5.393599999993967,5.661699999988059,6.027099999993993,6.342399999976124,6.992599999994013,7.3764999999999645,7.826799999982086,8.27629999998203,8.609799999982101,8.826699999988023,9.076199999988035,9.377099999994016,9.843199999988087,10.076699999988023,10.459399999976085,10.727099999994039,10.912500000000023]",,calibration,With Brainslug Difficult 2 With Money,15,11.02925,11.0327,17,7,0,FALSE,na,na,na,na,,,,,,,,,,,,,,,,,,,,,,,,,,,,,,,,,,0,0,0,0,1,,,,,,,,,,,,,,,,,,,,,,,
,,,,,,,,,,,,67e7f3e23ebd43bbd2539bc7,001,3,2025-04-15_15h36.13.688,avatar_quest_3AFC_legacy,2022.1.3,Win32,59.52380952,67e7f3e23ebd43bbd2539bc7,67fe6e666cecbc9329ddf6d6,67fe7b1b8f061e28f8528e2c,,,,,,,,,,,,,,,,,,,,,,With Brainslug Difficult 2 With Money,12,images/assets/snowy_money.jpg,learning,20,images/assets/success_money.jpg,images/assets/gameover.jpg,,,,,,,,,,,,,0,1,1,2,1,,,,,,,,,,,,,,,,,,,,,,,,,,,,,,,,
,,,,,,,,,,,,67e7f3e23ebd43bbd2539bc7,001,3,2025-04-15_15h36.13.688,avatar_quest_3AFC_legacy,2022.1.3,Win32,59.52380952,67e7f3e23ebd43bbd2539bc7,67fe6e666cecbc9329ddf6d6,67fe7b1b8f061e28f8528e2c,,,,,,,,,,,,,,,,,,,,,,No Brainslug No Barriers No Money,0,images/assets/snowy_original.jpg,learning,10,images/assets/success.jpg,images/assets/gameover.jpg,,,,,,,,,,,,,0,2,2,10,1,,,,,,,,,,,,,,,,,,,,,,,,,,,,,,,,
,,,,,,,,,,,,67e7f3e23ebd43bbd2539bc7,001,3,2025-04-15_15h36.13.688,avatar_quest_3AFC_legacy,2022.1.3,Win32,59.52380952,67e7f3e23ebd43bbd2539bc7,67fe6e666cecbc9329ddf6d6,67fe7b1b8f061e28f8528e2c,,,,,,,,,,,,,,,,,,,,,,No Brainslug No Barriers With Money,0,images/assets/snowy_money.jpg,learning,10,images/assets/success_money.jpg,images/assets/gameover.jpg,,,,,,,,,,,,,0,3,3,9,1,,,,,,,,,,,,,,,,,,,,,,,,,,,,,,,,
,,,,,,,,,,,,67e7f3e23ebd43bbd2539bc7,001,3,2025-04-15_15h36.13.688,avatar_quest_3AFC_legacy,2022.1.3,Win32,59.52380952,67e7f3e23ebd43bbd2539bc7,67fe6e666cecbc9329ddf6d6,67fe7b1b8f061e28f8528e2c,,,,,,,,,,,,,,,,,,,,,,With Brainslug Difficult 2 No Money,12,images/assets/snowy_original.jpg,learning,20,images/assets/success.jpg,images/assets/gameover.jpg,,,,,,,,,,,,,0,4,4,3,1,,,,,,,,,,,,,,,,,,,,,,,,,,,,,,,,
,,,,,,,,,,,,67e7f3e23ebd43bbd2539bc7,001,3,2025-04-15_15h36.13.688,avatar_quest_3AFC_legacy,2022.1.3,Win32,59.52380952,67e7f3e23ebd43bbd2539bc7,67fe6e666cecbc9329ddf6d6,67fe7b1b8f061e28f8528e2c,,,,,,,,,,,,,,,,,,,,,,No Brainslug Difficult 1 No Money,6,images/assets/snowy_original.jpg,learning,20,images/assets/success.jpg,images/assets/gameover.jpg,,,,,,,,,,,,,0,5,5,6,1,,,,,,,,,,,,,,,,,,,,,,,,,,,,,,,,
,,,,,,,,,,,,67e7f3e23ebd43bbd2539bc7,001,3,2025-04-15_15h36.13.688,avatar_quest_3AFC_legacy,2022.1.3,Win32,59.52380952,67e7f3e23ebd43bbd2539bc7,67fe6e666cecbc9329ddf6d6,67fe7b1b8f061e28f8528e2c,,,,,,,,,,,,,,,,,,,,,,With Brainslug Difficult 1 With Money,6,images/assets/snowy_money.jpg,learning,20,images/assets/success_money.jpg,images/assets/gameover.jpg,,,,,,,,,,,,,0,6,6,0,1,,,,,,,,,,,,,,,,,,,,,,,,,,,,,,,,
,,,,,,,,,,,,67e7f3e23ebd43bbd2539bc7,001,3,2025-04-15_15h36.13.688,avatar_quest_3AFC_legacy,2022.1.3,Win32,59.52380952,67e7f3e23ebd43bbd2539bc7,67fe6e666cecbc9329ddf6d6,67fe7b1b8f061e28f8528e2c,,,,,,,,,,,,,,,,,,,,,,With Brainslug No Barriers No Money,0,images/assets/snowy_original.jpg,learning,10,images/assets/success.jpg,images/assets/gameover.jpg,,,,,,,,,,,,,0,7,7,5,1,,,,,,,,,,,,,,,,,,,,,,,,,,,,,,,,
,,,,,,,,,,,,67e7f3e23ebd43bbd2539bc7,001,3,2025-04-15_15h36.13.688,avatar_quest_3AFC_legacy,2022.1.3,Win32,59.52380952,67e7f3e23ebd43bbd2539bc7,67fe6e666cecbc9329ddf6d6,67fe7b1b8f061e28f8528e2c,,,,,,,,,,,,,,,,,,,,,,No Brainslug Difficult 2 With Money,12,images/assets/snowy_money.jpg,learning,20,images/assets/success_money.jpg,images/assets/gameover.jpg,,,,,,,,,,,,,0,8,8,7,1,,,,,,,,,,,,,,,,,,,,,,,,,,,,,,,,
,,,,,,,,,,,,67e7f3e23ebd43bbd2539bc7,001,3,2025-04-15_15h36.13.688,avatar_quest_3AFC_legacy,2022.1.3,Win32,59.52380952,67e7f3e23ebd43bbd2539bc7,67fe6e666cecbc9329ddf6d6,67fe7b1b8f061e28f8528e2c,,,,,,,,,,,,,,,,,,,,,,No Brainslug Difficult 2 No Money,12,images/assets/snowy_original.jpg,learning,20,images/assets/success.jpg,images/assets/gameover.jpg,,,,,,,,,,,,,0,9,9,8,1,,,,,,,,,,,,,,,,,,,,,,,,,,,,,,,,
,,,,,,,,,,,,67e7f3e23ebd43bbd2539bc7,001,3,2025-04-15_15h36.13.688,avatar_quest_3AFC_legacy,2022.1.3,Win32,59.52380952,67e7f3e23ebd43bbd2539bc7,67fe6e666cecbc9329ddf6d6,67fe7b1b8f061e28f8528e2c,,,,,,,,,,,,,,,,,,,,,,With Brainslug Difficult 1 No Money,6,images/assets/snowy_original.jpg,learning,20,images/assets/success.jpg,images/assets/gameover.jpg,,,,,,,,,,,,,0,10,10,1,1,,,,,,,,,,,,,,,,,,,,,,,,,,,,,,,,
,,,,,,,,,,,,67e7f3e23ebd43bbd2539bc7,001,3,2025-04-15_15h36.13.688,avatar_quest_3AFC_legacy,2022.1.3,Win32,59.52380952,67e7f3e23ebd43bbd2539bc7,67fe6e666cecbc9329ddf6d6,67fe7b1b8f061e28f8528e2c,,,,,,,,,,,,,,,,,,,,,,,,,,,,,,,,,,,,,,,,,,,,,,,,,,,,,,,11,0,11,0,1,,,,,,,,,,,,,,,,,,
,,,,,,,,,,,,67e7f3e23ebd43bbd2539bc7,001,3,2025-04-15_15h36.13.688,avatar_quest_3AFC_legacy,2022.1.3,Win32,59.52380952,67e7f3e23ebd43bbd2539bc7,67fe6e666cecbc9329ddf6d6,67fe7b1b8f061e28f8528e2c,,,,,,,,,,,,,,,,,,,,,,,,,,,,,,,,,,,,,,,,,,,,,,,,,,,,,,,,,,,,0,0,0,0,1,1,With Brainslug Difficult 1 No Money,images/assets/With Brainslug Difficult 1 No Money.png,With Brainslug Difficult 2 No Money,images/assets/With Brainslug Difficult 2 No Money.png,With Brainslug Difficult 2 With Money,images/assets/With Brainslug Difficult 2 With Money.png,Achievement vs. money,,,,,
,,,,,,,,,,,,67e7f3e23ebd43bbd2539bc7,001,3,2025-04-15_15h36.13.688,avatar_quest_3AFC_legacy,2022.1.3,Win32,59.52380952,67e7f3e23ebd43bbd2539bc7,67fe6e666cecbc9329ddf6d6,67fe7b1b8f061e28f8528e2c,,,,,,,,,,,,,,,,,,,,,,With Brainslug Difficult 1 With Money,6,images/assets/snowy_money.jpg,learning,20,images/assets/success_money.jpg,images/assets/gameover.jpg,,,,,,,,No Brainslug No Barriers With Money,No Brainslug No Barriers No Money,right,0.5316,"[""No Brainslug No Barriers No Money"",""No Brainslug Difficult 1 No Money""]",0,0,0,0,1,,,,,,,,,,,,,,,,,,,,,,,,,,,,,,,,
,,,,,,,,,,,,67e7f3e23ebd43bbd2539bc7,001,3,2025-04-15_15h36.13.688,avatar_quest_3AFC_legacy,2022.1.3,Win32,59.52380952,67e7f3e23ebd43bbd2539bc7,67fe6e666cecbc9329ddf6d6,67fe7b1b8f061e28f8528e2c,,,,,,,,,,,,,,,,,,,,,,No Brainslug Difficult 1 No Money,6,images/assets/snowy_original.jpg,learning,20,images/assets/success.jpg,images/assets/gameover.jpg,,,,,,,,,,,,,0,1,1,6,1,,,,,,,,,,,,,,,,,,,,,,,,,,,,,,,,
,,,,,,,,,,,,67e7f3e23ebd43bbd2539bc7,001,3,2025-04-15_15h36.13.688,avatar_quest_3AFC_legacy,2022.1.3,Win32,59.52380952,67e7f3e23ebd43bbd2539bc7,67fe6e666cecbc9329ddf6d6,67fe7b1b8f061e28f8528e2c,,,,,,,,,,,,,,,,,,,,,,With Brainslug Difficult 1 No Money,6,images/assets/snowy_original.jpg,learning,20,images/assets/success.jpg,images/assets/gameover.jpg,,,,,,,,,,,,,0,2,2,1,1,,,,,,,,,,,,,,,,,,,,,,,,,,,,,,,,
,,,,,,,,,,,,67e7f3e23ebd43bbd2539bc7,001,3,2025-04-15_15h36.13.688,avatar_quest_3AFC_legacy,2022.1.3,Win32,59.52380952,67e7f3e23ebd43bbd2539bc7,67fe6e666cecbc9329ddf6d6,67fe7b1b8f061e28f8528e2c,,,,,,,,,,,,,,,,,,,,,,No Brainslug No Barriers No Money,0,images/assets/snowy_original.jpg,learning,10,images/assets/success.jpg,images/assets/gameover.jpg,,,,,,,,,,,,,0,3,3,10,1,,,,,,,,,,,,,,,,,,,,,,,,,,,,,,,,
,,,,,,,,,,,,67e7f3e23ebd43bbd2539bc7,001,3,2025-04-15_15h36.13.688,avatar_quest_3AFC_legacy,2022.1.3,Win32,59.52380952,67e7f3e23ebd43bbd2539bc7,67fe6e666cecbc9329ddf6d6,67fe7b1b8f061e28f8528e2c,,,,,,,,,,,,,,,,,,,,,,With Brainslug Difficult 2 No Money,12,images/assets/snowy_original.jpg,learning,20,images/assets/success.jpg,images/assets/gameover.jpg,,,,,,,,,,,,,0,4,4,3,1,,,,,,,,,,,,,,,,,,,,,,,,,,,,,,,,
,,,,,,,,,,,,67e7f3e23ebd43bbd2539bc7,001,3,2025-04-15_15h36.13.688,avatar_quest_3AFC_legacy,2022.1.3,Win32,59.52380952,67e7f3e23ebd43bbd2539bc7,67fe6e666cecbc9329ddf6d6,67fe7b1b8f061e28f8528e2c,,,,,,,,,,,,,,,,,,,,,,With Brainslug No Barriers With Money,0,images/assets/snowy_money.jpg,learning,10,images/assets/success_money.jpg,images/assets/gameover.jpg,,,,,,,,,,,,,0,5,5,4,1,,,,,,,,,,,,,,,,,,,,,,,,,,,,,,,,
,,,,,,,,,,,,67e7f3e23ebd43bbd2539bc7,001,3,2025-04-15_15h36.13.688,avatar_quest_3AFC_legacy,2022.1.3,Win32,59.52380952,67e7f3e23ebd43bbd2539bc7,67fe6e666cecbc9329ddf6d6,67fe7b1b8f061e28f8528e2c,,,,,,,,,,,,,,,,,,,,,,With Brainslug Difficult 2 With Money,12,images/assets/snowy_money.jpg,learning,20,images/assets/success_money.jpg,images/assets/gameover.jpg,,,,,,,,,,,,,0,6,6,2,1,,,,,,,,,,,,,,,,,,,,,,,,,,,,,,,,
,,,,,,,,,,,,67e7f3e23ebd43bbd2539bc7,001,3,2025-04-15_15h36.13.688,avatar_quest_3AFC_legacy,2022.1.3,Win32,59.52380952,67e7f3e23ebd43bbd2539bc7,67fe6e666cecbc9329ddf6d6,67fe7b1b8f061e28f8528e2c,,,,,,,,,,,,,,,,,,,,,,No Brainslug Difficult 2 With Money,12,images/assets/snowy_money.jpg,learning,20,images/assets/success_money.jpg,images/assets/gameover.jpg,,,,,,,,,,,,,0,7,7,7,1,,,,,,,,,,,,,,,,,,,,,,,,,,,,,,,,
,,,,,,,,,,,,67e7f3e23ebd43bbd2539bc7,001,3,2025-04-15_15h36.13.688,avatar_quest_3AFC_legacy,2022.1.3,Win32,59.52380952,67e7f3e23ebd43bbd2539bc7,67fe6e666cecbc9329ddf6d6,67fe7b1b8f061e28f8528e2c,"[""left"",""right"",""right"",""left"",""left"",""left"",""right""]","[0.5004999999999882,0.9836999999880618,6.767699999988054,7.151599999994005,7.467499999999973,7.684499999999957,8.117599999994013]",,calibration,No Brainslug No Barriers With Money,16,8.8234,8.8342,7,0,275,FALSE,na,na,na,na,,,,,,,,,,,,,,,,,,,,,,,,,,,,,,,,,,0,0,0,0,1,,,,,,,,,,,,,,,,,,,,,,,
,,,,,,,,,,,,67e7f3e23ebd43bbd2539bc7,001,3,2025-04-15_15h36.13.688,avatar_quest_3AFC_legacy,2022.1.3,Win32,59.52380952,67e7f3e23ebd43bbd2539bc7,67fe6e666cecbc9329ddf6d6,67fe7b1b8f061e28f8528e2c,,,,,,,,,,,,,,,,,,,,,,No Brainslug No Barriers With Money,0,images/assets/snowy_money.jpg,learning,10,images/assets/success_money.jpg,images/assets/gameover.jpg,,,,,,,,,,,,,0,8,8,9,1,,,,,,,,,,,,,,,,,,,,,,,,,,,,,,,,
,,,,,,,,,,,,67e7f3e23ebd43bbd2539bc7,001,3,2025-04-15_15h36.13.688,avatar_quest_3AFC_legacy,2022.1.3,Win32,59.52380952,67e7f3e23ebd43bbd2539bc7,67fe6e666cecbc9329ddf6d6,67fe7b1b8f061e28f8528e2c,,,,,,,,,,,,,,,,,,,,,,No Brainslug Difficult 2 No Money,12,images/assets/snowy_original.jpg,learning,20,images/assets/success.jpg,images/assets/gameover.jpg,,,,,,,,,,,,,0,9,9,8,1,,,,,,,,,,,,,,,,,,,,,,,,,,,,,,,,
,,,,,,,,,,,,67e7f3e23ebd43bbd2539bc7,001,3,2025-04-15_15h36.13.688,avatar_quest_3AFC_legacy,2022.1.3,Win32,59.52380952,67e7f3e23ebd43bbd2539bc7,67fe6e666cecbc9329ddf6d6,67fe7b1b8f061e28f8528e2c,,,,,,,,,,,,,,,,,,,,,,With Brainslug No Barriers No Money,0,images/assets/snowy_original.jpg,learning,10,images/assets/success.jpg,images/assets/gameover.jpg,,,,,,,,,,,,,0,10,10,5,1,,,,,,,,,,,,,,,,,,,,,,,,,,,,,,,,
,,,,,,,,,,,,67e7f3e23ebd43bbd2539bc7,001,3,2025-04-15_15h36.13.688,avatar_quest_3AFC_legacy,2022.1.3,Win32,59.52380952,67e7f3e23ebd43bbd2539bc7,67fe6e666cecbc9329ddf6d6,67fe7b1b8f061e28f8528e2c,,,,,,,,,,,,,,,,,,,,,,,,,,,,,,,,,,,,,,,,,,,,,,,,,,,,,,,0,0,0,0,1,,,,,,,,,,,,,,,,,,
,,,,,,,,,,,,67e7f3e23ebd43bbd2539bc7,001,3,2025-04-15_15h36.13.688,avatar_quest_3AFC_legacy,2022.1.3,Win32,59.52380952,67e7f3e23ebd43bbd2539bc7,67fe6e666cecbc9329ddf6d6,67fe7b1b8f061e28f8528e2c,,,,,,,,,,,,,,,,,,,,,,No Brainslug Difficult 2 With Money,12,images/assets/snowy_money.jpg,learning,20,images/assets/success_money.jpg,images/assets/gameover.jpg,,,,,,,,No Brainslug No Barriers With Money,No Brainslug No Barriers No Money,right,0.1699,"[""No Brainslug No Barriers No Money"",""No Brainslug Difficult 1 No Money""]",0,0,0,7,1,,,,,,,,,,,,,,,,,,,,,,,,,,,,,,,,
,,,,,,,,,,,,67e7f3e23ebd43bbd2539bc7,001,3,2025-04-15_15h36.13.688,avatar_quest_3AFC_legacy,2022.1.3,Win32,59.52380952,67e7f3e23ebd43bbd2539bc7,67fe6e666cecbc9329ddf6d6,67fe7b1b8f061e28f8528e2c,"[""right"",""left"",""left""]","[0.40080000001182725,2.016900000005876,2.534800000011842]",,calibration,No Brainslug No Barriers With Money,17,8.8234,5.4542,3,0,0,TRUE,na,na,na,na,,,,,,,,,,,,,,,,,,,,,,,,,,,,,,,,,,0,0,0,0,1,,,,,,,,,,,,,,,,,,,,,,,
,,,,,,,,,,,,67e7f3e23ebd43bbd2539bc7,001,3,2025-04-15_15h36.13.688,avatar_quest_3AFC_legacy,2022.1.3,Win32,59.52380952,67e7f3e23ebd43bbd2539bc7,67fe6e666cecbc9329ddf6d6,67fe7b1b8f061e28f8528e2c,,,,,,,,,,,,,,,,,,,,,,No Brainslug No Barriers With Money,0,images/assets/snowy_money.jpg,learning,10,images/assets/success_money.jpg,images/assets/gameover.jpg,,,,,,,,,,,,,0,1,1,9,1,,,,,,,,,,,,,,,,,,,,,,,,,,,,,,,,
,,,,,,,,,,,,67e7f3e23ebd43bbd2539bc7,001,3,2025-04-15_15h36.13.688,avatar_quest_3AFC_legacy,2022.1.3,Win32,59.52380952,67e7f3e23ebd43bbd2539bc7,67fe6e666cecbc9329ddf6d6,67fe7b1b8f061e28f8528e2c,,,,,,,,,,,,,,,,,,,,,,With Brainslug Difficult 1 With Money,6,images/assets/snowy_money.jpg,learning,20,images/assets/success_money.jpg,images/assets/gameover.jpg,,,,,,,,,,,,,0,2,2,0,1,,,,,,,,,,,,,,,,,,,,,,,,,,,,,,,,
,,,,,,,,,,,,67e7f3e23ebd43bbd2539bc7,001,3,2025-04-15_15h36.13.688,avatar_quest_3AFC_legacy,2022.1.3,Win32,59.52380952,67e7f3e23ebd43bbd2539bc7,67fe6e666cecbc9329ddf6d6,67fe7b1b8f061e28f8528e2c,,,,,,,,,,,,,,,,,,,,,,With Brainslug Difficult 2 No Money,12,images/assets/snowy_original.jpg,learning,20,images/assets/success.jpg,images/assets/gameover.jpg,,,,,,,,,,,,,0,3,3,3,1,,,,,,,,,,,,,,,,,,,,,,,,,,,,,,,,
,,,,,,,,,,,,67e7f3e23ebd43bbd2539bc7,001,3,2025-04-15_15h36.13.688,avatar_quest_3AFC_legacy,2022.1.3,Win32,59.52380952,67e7f3e23ebd43bbd2539bc7,67fe6e666cecbc9329ddf6d6,67fe7b1b8f061e28f8528e2c,,,,,,,,,,,,,,,,,,,,,,With Brainslug Difficult 1 No Money,6,images/assets/snowy_original.jpg,learning,20,images/assets/success.jpg,images/assets/gameover.jpg,,,,,,,,,,,,,0,4,4,1,1,,,,,,,,,,,,,,,,,,,,,,,,,,,,,,,,
,,,,,,,,,,,,67e7f3e23ebd43bbd2539bc7,001,3,2025-04-15_15h36.13.688,avatar_quest_3AFC_legacy,2022.1.3,Win32,59.52380952,67e7f3e23ebd43bbd2539bc7,67fe6e666cecbc9329ddf6d6,67fe7b1b8f061e28f8528e2c,,,,,,,,,,,,,,,,,,,,,,With Brainslug Difficult 2 With Money,12,images/assets/snowy_money.jpg,learning,20,images/assets/success_money.jpg,images/assets/gameover.jpg,,,,,,,,,,,,,0,5,5,2,1,,,,,,,,,,,,,,,,,,,,,,,,,,,,,,,,
,,,,,,,,,,,,67e7f3e23ebd43bbd2539bc7,001,3,2025-04-15_15h36.13.688,avatar_quest_3AFC_legacy,2022.1.3,Win32,59.52380952,67e7f3e23ebd43bbd2539bc7,67fe6e666cecbc9329ddf6d6,67fe7b1b8f061e28f8528e2c,,,,,,,,,,,,,,,,,,,,,,No Brainslug No Barriers No Money,0,images/assets/snowy_original.jpg,learning,10,images/assets/success.jpg,images/assets/gameover.jpg,,,,,,,,,,,,,0,6,6,10,1,,,,,,,,,,,,,,,,,,,,,,,,,,,,,,,,
,,,,,,,,,,,,67e7f3e23ebd43bbd2539bc7,001,3,2025-04-15_15h36.13.688,avatar_quest_3AFC_legacy,2022.1.3,Win32,59.52380952,67e7f3e23ebd43bbd2539bc7,67fe6e666cecbc9329ddf6d6,67fe7b1b8f061e28f8528e2c,,,,,,,,,,,,,,,,,,,,,,No Brainslug Difficult 1 No Money,6,images/assets/snowy_original.jpg,learning,20,images/assets/success.jpg,images/assets/gameover.jpg,,,,,,,,,,,,,0,7,7,6,1,,,,,,,,,,,,,,,,,,,,,,,,,,,,,,,,
,,,,,,,,,,,,67e7f3e23ebd43bbd2539bc7,001,3,2025-04-15_15h36.13.688,avatar_quest_3AFC_legacy,2022.1.3,Win32,59.52380952,67e7f3e23ebd43bbd2539bc7,67fe6e666cecbc9329ddf6d6,67fe7b1b8f061e28f8528e2c,,,,,,,,,,,,,,,,,,,,,,With Brainslug No Barriers With Money,0,images/assets/snowy_money.jpg,learning,10,images/assets/success_money.jpg,images/assets/gameover.jpg,,,,,,,,,,,,,0,8,8,4,1,,,,,,,,,,,,,,,,,,,,,,,,,,,,,,,,
,,,,,,,,,,,,67e7f3e23ebd43bbd2539bc7,001,3,2025-04-15_15h36.13.688,avatar_quest_3AFC_legacy,2022.1.3,Win32,59.52380952,67e7f3e23ebd43bbd2539bc7,67fe6e666cecbc9329ddf6d6,67fe7b1b8f061e28f8528e2c,,,,,,,,,,,,,,,,,,,,,,No Brainslug Difficult 2 No Money,12,images/assets/snowy_original.jpg,learning,20,images/assets/success.jpg,images/assets/gameover.jpg,,,,,,,,,,,,,0,9,9,8,1,,,,,,,,,,,,,,,,,,,,,,,,,,,,,,,,
,,,,,,,,,,,,67e7f3e23ebd43bbd2539bc7,001,3,2025-04-15_15h36.13.688,avatar_quest_3AFC_legacy,2022.1.3,Win32,59.52380952,67e7f3e23ebd43bbd2539bc7,67fe6e666cecbc9329ddf6d6,67fe7b1b8f061e28f8528e2c,,,,,,,,,,,,,,,,,,,,,,With Brainslug No Barriers No Money,0,images/assets/snowy_original.jpg,learning,10,images/assets/success.jpg,images/assets/gameover.jpg,,,,,,,,,,,,,0,10,10,5,1,,,,,,,,,,,,,,,,,,,,,,,,,,,,,,,,
,,,,,,,,,,,,67e7f3e23ebd43bbd2539bc7,001,3,2025-04-15_15h36.13.688,avatar_quest_3AFC_legacy,2022.1.3,Win32,59.52380952,67e7f3e23ebd43bbd2539bc7,67fe6e666cecbc9329ddf6d6,67fe7b1b8f061e28f8528e2c,,,,,,,,,,,,,,,,,,,,,,,,,,,,,,,,,,,,,,,,,,,,,,,,,,,,,,,1,0,1,0,1,,,,,,,,,,,,,,,,,,
,,,,,,,,,,,,67e7f3e23ebd43bbd2539bc7,001,3,2025-04-15_15h36.13.688,avatar_quest_3AFC_legacy,2022.1.3,Win32,59.52380952,67e7f3e23ebd43bbd2539bc7,67fe6e666cecbc9329ddf6d6,67fe7b1b8f061e28f8528e2c,,,,,,,,,,,,,,,,,,,,,,With Brainslug Difficult 1 With Money,6,images/assets/snowy_money.jpg,learning,20,images/assets/success_money.jpg,images/assets/gameover.jpg,,,,,,,,No Brainslug No Barriers With Money,No Brainslug No Barriers No Money,right,61.3689,"[""No Brainslug No Barriers No Money"",""No Brainslug Difficult 1 No Money""]",0,0,0,0,1,,,,,,,,,,,,,,,,,,,,,,,,,,,,,,,,
,,,,,,,,,,,,67e7f3e23ebd43bbd2539bc7,001,3,2025-04-15_15h36.13.688,avatar_quest_3AFC_legacy,2022.1.3,Win32,59.52380952,67e7f3e23ebd43bbd2539bc7,67fe6e666cecbc9329ddf6d6,67fe7b1b8f061e28f8528e2c,,,,,,,,,,,,,,,,,,,,,,With Brainslug No Barriers With Money,0,images/assets/snowy_money.jpg,learning,10,images/assets/success_money.jpg,images/assets/gameover.jpg,,,,,,,,,,,,,0,1,1,4,1,,,,,,,,,,,,,,,,,,,,,,,,,,,,,,,,
,,,,,,,,,,,,67e7f3e23ebd43bbd2539bc7,001,3,2025-04-15_15h36.13.688,avatar_quest_3AFC_legacy,2022.1.3,Win32,59.52380952,67e7f3e23ebd43bbd2539bc7,67fe6e666cecbc9329ddf6d6,67fe7b1b8f061e28f8528e2c,,,,,,,,,,,,,,,,,,,,,,No Brainslug Difficult 1 No Money,6,images/assets/snowy_original.jpg,learning,20,images/assets/success.jpg,images/assets/gameover.jpg,,,,,,,,,,,,,0,2,2,6,1,,,,,,,,,,,,,,,,,,,,,,,,,,,,,,,,
,,,,,,,,,,,,67e7f3e23ebd43bbd2539bc7,001,3,2025-04-15_15h36.13.688,avatar_quest_3AFC_legacy,2022.1.3,Win32,59.52380952,67e7f3e23ebd43bbd2539bc7,67fe6e666cecbc9329ddf6d6,67fe7b1b8f061e28f8528e2c,,,,,,,,,,,,,,,,,,,,,,No Brainslug No Barriers No Money,0,images/assets/snowy_original.jpg,learning,10,images/assets/success.jpg,images/assets/gameover.jpg,,,,,,,,,,,,,0,3,3,10,1,,,,,,,,,,,,,,,,,,,,,,,,,,,,,,,,
,,,,,,,,,,,,67e7f3e23ebd43bbd2539bc7,001,3,2025-04-15_15h36.13.688,avatar_quest_3AFC_legacy,2022.1.3,Win32,59.52380952,67e7f3e23ebd43bbd2539bc7,67fe6e666cecbc9329ddf6d6,67fe7b1b8f061e28f8528e2c,"[""right"",""left"",""left"",""left"",""right"",""right"",""right"",""left"",""right"",""right"",""right""]","[0.3757999999821777,1.9754000000059477,2.458099999994033,2.6939000000060105,3.508199999988051,3.9754000000059477,4.307999999999993,4.625099999994063,5.142000000000053,5.40869999998813,5.6920999999940705]",,calibration,No Brainslug No Barriers With Money,18,8.8234,5.7383,9,0,19,TRUE,na,na,na,na,,,,,,,,,,,,,,,,,,,,,,,,,,,,,,,,,,0,0,0,0,1,,,,,,,,,,,,,,,,,,,,,,,
,,,,,,,,,,,,67e7f3e23ebd43bbd2539bc7,001,3,2025-04-15_15h36.13.688,avatar_quest_3AFC_legacy,2022.1.3,Win32,59.52380952,67e7f3e23ebd43bbd2539bc7,67fe6e666cecbc9329ddf6d6,67fe7b1b8f061e28f8528e2c,,,,,,,,,,,,,,,,,,,,,,No Brainslug No Barriers With Money,0,images/assets/snowy_money.jpg,learning,10,images/assets/success_money.jpg,images/assets/gameover.jpg,,,,,,,,,,,,,0,4,4,9,1,,,,,,,,,,,,,,,,,,,,,,,,,,,,,,,,
,,,,,,,,,,,,67e7f3e23ebd43bbd2539bc7,001,3,2025-04-15_15h36.13.688,avatar_quest_3AFC_legacy,2022.1.3,Win32,59.52380952,67e7f3e23ebd43bbd2539bc7,67fe6e666cecbc9329ddf6d6,67fe7b1b8f061e28f8528e2c,,,,,,,,,,,,,,,,,,,,,,With Brainslug Difficult 1 No Money,6,images/assets/snowy_original.jpg,learning,20,images/assets/success.jpg,images/assets/gameover.jpg,,,,,,,,,,,,,0,5,5,1,1,,,,,,,,,,,,,,,,,,,,,,,,,,,,,,,,
,,,,,,,,,,,,67e7f3e23ebd43bbd2539bc7,001,3,2025-04-15_15h36.13.688,avatar_quest_3AFC_legacy,2022.1.3,Win32,59.52380952,67e7f3e23ebd43bbd2539bc7,67fe6e666cecbc9329ddf6d6,67fe7b1b8f061e28f8528e2c,,,,,,,,,,,,,,,,,,,,,,With Brainslug Difficult 2 With Money,12,images/assets/snowy_money.jpg,learning,20,images/assets/success_money.jpg,images/assets/gameover.jpg,,,,,,,,,,,,,0,6,6,2,1,,,,,,,,,,,,,,,,,,,,,,,,,,,,,,,,
,,,,,,,,,,,,67e7f3e23ebd43bbd2539bc7,001,3,2025-04-15_15h36.13.688,avatar_quest_3AFC_legacy,2022.1.3,Win32,59.52380952,67e7f3e23ebd43bbd2539bc7,67fe6e666cecbc9329ddf6d6,67fe7b1b8f061e28f8528e2c,,,,,,,,,,,,,,,,,,,,,,With Brainslug No Barriers No Money,0,images/assets/snowy_original.jpg,learning,10,images/assets/success.jpg,images/assets/gameover.jpg,,,,,,,,,,,,,0,7,7,5,1,,,,,,,,,,,,,,,,,,,,,,,,,,,,,,,,
,,,,,,,,,,,,67e7f3e23ebd43bbd2539bc7,001,3,2025-04-15_15h36.13.688,avatar_quest_3AFC_legacy,2022.1.3,Win32,59.52380952,67e7f3e23ebd43bbd2539bc7,67fe6e666cecbc9329ddf6d6,67fe7b1b8f061e28f8528e2c,,,,,,,,,,,,,,,,,,,,,,No Brainslug Difficult 2 With Money,12,images/assets/snowy_money.jpg,learning,20,images/assets/success_money.jpg,images/assets/gameover.jpg,,,,,,,,,,,,,0,8,8,7,1,,,,,,,,,,,,,,,,,,,,,,,,,,,,,,,,
,,,,,,,,,,,,67e7f3e23ebd43bbd2539bc7,001,3,2025-04-15_15h36.13.688,avatar_quest_3AFC_legacy,2022.1.3,Win32,59.52380952,67e7f3e23ebd43bbd2539bc7,67fe6e666cecbc9329ddf6d6,67fe7b1b8f061e28f8528e2c,,,,,,,,,,,,,,,,,,,,,,No Brainslug Difficult 2 No Money,12,images/assets/snowy_original.jpg,learning,20,images/assets/success.jpg,images/assets/gameover.jpg,,,,,,,,,,,,,0,9,9,8,1,,,,,,,,,,,,,,,,,,,,,,,,,,,,,,,,
,,,,,,,,,,,,67e7f3e23ebd43bbd2539bc7,001,3,2025-04-15_15h36.13.688,avatar_quest_3AFC_legacy,2022.1.3,Win32,59.52380952,67e7f3e23ebd43bbd2539bc7,67fe6e666cecbc9329ddf6d6,67fe7b1b8f061e28f8528e2c,,,,,,,,,,,,,,,,,,,,,,With Brainslug Difficult 2 No Money,12,images/assets/snowy_original.jpg,learning,20,images/assets/success.jpg,images/assets/gameover.jpg,,,,,,,,,,,,,0,10,10,3,1,,,,,,,,,,,,,,,,,,,,,,,,,,,,,,,,
,,,,,,,,,,,,67e7f3e23ebd43bbd2539bc7,001,3,2025-04-15_15h36.13.688,avatar_quest_3AFC_legacy,2022.1.3,Win32,59.52380952,67e7f3e23ebd43bbd2539bc7,67fe6e666cecbc9329ddf6d6,67fe7b1b8f061e28f8528e2c,,,,,,,,,,,,,,,,,,,,,,,,,,,,,,,,,,,,,,,,,,,,,,,,,,,,,,,2,0,2,0,1,,,,,,,,,,,,,,,,,,
,,,,,,,,,,,,67e7f3e23ebd43bbd2539bc7,001,3,2025-04-15_15h36.13.688,avatar_quest_3AFC_legacy,2022.1.3,Win32,59.52380952,67e7f3e23ebd43bbd2539bc7,67fe6e666cecbc9329ddf6d6,67fe7b1b8f061e28f8528e2c,,,,,,,,,,,,,,,,,,,,,,With Brainslug No Barriers No Money,0,images/assets/snowy_original.jpg,learning,10,images/assets/success.jpg,images/assets/gameover.jpg,,,,,,,,No Brainslug No Barriers With Money,No Brainslug No Barriers No Money,right,0.501,"[""No Brainslug No Barriers No Money"",""No Brainslug Difficult 1 No Money""]",0,0,0,5,1,,,,,,,,,,,,,,,,,,,,,,,,,,,,,,,,
,,,,,,,,,,,,67e7f3e23ebd43bbd2539bc7,001,3,2025-04-15_15h36.13.688,avatar_quest_3AFC_legacy,2022.1.3,Win32,59.52380952,67e7f3e23ebd43bbd2539bc7,67fe6e666cecbc9329ddf6d6,67fe7b1b8f061e28f8528e2c,"[""left"",""left"",""right"",""right"",""right"",""left"",""left"",""left"",""right"",""right"",""right"",""right""]","[1.9845000000000255,2.251400000006015,3.133800000011888,3.700599999994097,3.917500000000018,4.684500000000071,4.884800000011978,5.051099999994108,5.334599999994111,5.534699999988106,5.767599999994104,6.234599999994089]",,calibration,No Brainslug No Barriers With Money,19,8.8234,6.5158,11,0,71,TRUE,na,na,na,na,,,,,,,,,,,,,,,,,,,,,,,,,,,,,,,,,,0,0,0,0,1,,,,,,,,,,,,,,,,,,,,,,,
,,,,,,,,,,,,67e7f3e23ebd43bbd2539bc7,001,3,2025-04-15_15h36.13.688,avatar_quest_3AFC_legacy,2022.1.3,Win32,59.52380952,67e7f3e23ebd43bbd2539bc7,67fe6e666cecbc9329ddf6d6,67fe7b1b8f061e28f8528e2c,,,,,,,,,,,,,,,,,,,,,,No Brainslug No Barriers With Money,0,images/assets/snowy_money.jpg,learning,10,images/assets/success_money.jpg,images/assets/gameover.jpg,,,,,,,,,,,,,0,1,1,9,1,,,,,,,,,,,,,,,,,,,,,,,,,,,,,,,,
,,,,,,,,,,,,67e7f3e23ebd43bbd2539bc7,001,3,2025-04-15_15h36.13.688,avatar_quest_3AFC_legacy,2022.1.3,Win32,59.52380952,67e7f3e23ebd43bbd2539bc7,67fe6e666cecbc9329ddf6d6,67fe7b1b8f061e28f8528e2c,,,,,,,,,,,,,,,,,,,,,,With Brainslug Difficult 2 No Money,12,images/assets/snowy_original.jpg,learning,20,images/assets/success.jpg,images/assets/gameover.jpg,,,,,,,,,,,,,0,2,2,3,1,,,,,,,,,,,,,,,,,,,,,,,,,,,,,,,,
,,,,,,,,,,,,67e7f3e23ebd43bbd2539bc7,001,3,2025-04-15_15h36.13.688,avatar_quest_3AFC_legacy,2022.1.3,Win32,59.52380952,67e7f3e23ebd43bbd2539bc7,67fe6e666cecbc9329ddf6d6,67fe7b1b8f061e28f8528e2c,,,,,,,,,,,,,,,,,,,,,,No Brainslug Difficult 2 With Money,12,images/assets/snowy_money.jpg,learning,20,images/assets/success_money.jpg,images/assets/gameover.jpg,,,,,,,,,,,,,0,3,3,7,1,,,,,,,,,,,,,,,,,,,,,,,,,,,,,,,,
,,,,,,,,,,,,67e7f3e23ebd43bbd2539bc7,001,3,2025-04-15_15h36.13.688,avatar_quest_3AFC_legacy,2022.1.3,Win32,59.52380952,67e7f3e23ebd43bbd2539bc7,67fe6e666cecbc9329ddf6d6,67fe7b1b8f061e28f8528e2c,,,,,,,,,,,,,,,,,,,,,,With Brainslug Difficult 1 No Money,6,images/assets/snowy_original.jpg,learning,20,images/assets/success.jpg,images/assets/gameover.jpg,,,,,,,,,,,,,0,4,4,1,1,,,,,,,,,,,,,,,,,,,,,,,,,,,,,,,,
,,,,,,,,,,,,67e7f3e23ebd43bbd2539bc7,001,3,2025-04-15_15h36.13.688,avatar_quest_3AFC_legacy,2022.1.3,Win32,59.52380952,67e7f3e23ebd43bbd2539bc7,67fe6e666cecbc9329ddf6d6,67fe7b1b8f061e28f8528e2c,,,,,,,,,,,,,,,,,,,,,,With Brainslug Difficult 2 With Money,12,images/assets/snowy_money.jpg,learning,20,images/assets/success_money.jpg,images/assets/gameover.jpg,,,,,,,,,,,,,0,5,5,2,1,,,,,,,,,,,,,,,,,,,,,,,,,,,,,,,,
,,,,,,,,,,,,67e7f3e23ebd43bbd2539bc7,001,3,2025-04-15_15h36.13.688,avatar_quest_3AFC_legacy,2022.1.3,Win32,59.52380952,67e7f3e23ebd43bbd2539bc7,67fe6e666cecbc9329ddf6d6,67fe7b1b8f061e28f8528e2c,,,,,,,,,,,,,,,,,,,,,,No Brainslug Difficult 1 No Money,6,images/assets/snowy_original.jpg,learning,20,images/assets/success.jpg,images/assets/gameover.jpg,,,,,,,,,,,,,0,6,6,6,1,,,,,,,,,,,,,,,,,,,,,,,,,,,,,,,,
