instruction_mouse.x,instruction_mouse.y,instruction_mouse.leftButton,instruction_mouse.midButton,instruction_mouse.rightButton,instruction_mouse.clicked_name,introduce_general.thisRepN,introduce_general.thisTrialN,introduce_general.thisN,introduce_general.thisIndex,introduce_general.ran,thisInstruction,participant,session,game version,date,expName,psychopyVersion,OS,frameRate,PROLIFIC PID,STUDY ID,SESSION ID,move_resp.keys,move_resp.rt,end_resp.keys,phase,condition,trial_num,time_limit,completion_time,left_right_steps,number_of_obsticle_blocks,number_of_tree_blocks,quest_complete,responsivity_summary,av_inter_brainslug_intervals,proportion_jitter,jitter_direction_proportion_right,calibration_phase.thisRepN,calibration_phase.thisTrialN,calibration_phase.thisN,calibration_phase.thisIndex,calibration_phase.ran,BlockLabel,nObsticles,backgroundImage,phaseLabel,n_side_steps,success_im,gameover_im,success_condition,introduce_learning_or_choice.thisRepN,introduce_learning_or_choice.thisTrialN,introduce_learning_or_choice.thisN,introduce_learning_or_choice.thisIndex,introduce_learning_or_choice.ran,choice_resp.keys,chosen_quest,unchosen_quest,choice_resp_3afc.keys,choice_resp_3afc.rt,unchosen_quests,forced_choice_trial.thisRepN,forced_choice_trial.thisTrialN,forced_choice_trial.thisN,forced_choice_trial.thisIndex,forced_choice_trial.ran,enjoyment_slider.response,enjoyment_slider.rt,effort_slider.response,effort_slider.rt,show_loop2.thisRepN,show_loop2.thisTrialN,show_loop2.thisN,show_loop2.thisIndex,show_loop2.ran,trials_per_block.thisRepN,trials_per_block.thisTrialN,trials_per_block.thisN,trials_per_block.thisIndex,trials_per_block.ran,decision_phase_AFC.thisRepN,decision_phase_AFC.thisTrialN,decision_phase_AFC.thisN,decision_phase_AFC.thisIndex,decision_phase_AFC.ran,blockN,BlockLabel1,questIm1,BlockLabel2,questIm2,BlockLabel3,questIm3,quest_condition,showForcedChoice.thisRepN,showForcedChoice.thisTrialN,showForcedChoice.thisN,showForcedChoice.thisIndex,showForcedChoice.ran
0.421800948,-0.403633491,1,0,0,instruction_button,0,0,0,0,1,images/instructions_part1_LSM_taskversion1/Slide1.JPG,67f41aadb805ee4c476ddb19,001,3,2025-04-15_11h39.59.073,avatar_quest_3AFC_legacy,2022.1.3,Win32,59.88023952,67f41aadb805ee4c476ddb19,67fe6e666cecbc9329ddf6d6,67fe701944b434c9ccee4417,,,,,,,,,,,,,,,,,,,,,,,,,,,,,,,,,,,,,,,,,,,,,,,,,,,,,,,,,,,,,,,,,,,,,,,,,,,,,
0.421800948,-0.403633491,1,0,0,instruction_button,0,1,1,1,1,images/instructions_part1_LSM_taskversion1/Slide2.JPG,67f41aadb805ee4c476ddb19,001,3,2025-04-15_11h39.59.073,avatar_quest_3AFC_legacy,2022.1.3,Win32,59.88023952,67f41aadb805ee4c476ddb19,67fe6e666cecbc9329ddf6d6,67fe701944b434c9ccee4417,,,,,,,,,,,,,,,,,,,,,,,,,,,,,,,,,,,,,,,,,,,,,,,,,,,,,,,,,,,,,,,,,,,,,,,,,,,,,
0.421800948,-0.403633491,1,0,0,instruction_button,0,2,2,2,1,images/instructions_part1_LSM_taskversion1/Slide3.JPG,67f41aadb805ee4c476ddb19,001,3,2025-04-15_11h39.59.073,avatar_quest_3AFC_legacy,2022.1.3,Win32,59.88023952,67f41aadb805ee4c476ddb19,67fe6e666cecbc9329ddf6d6,67fe701944b434c9ccee4417,,,,,,,,,,,,,,,,,,,,,,,,,,,,,,,,,,,,,,,,,,,,,,,,,,,,,,,,,,,,,,,,,,,,,,,,,,,,,
0.421800948,-0.403633491,1,0,0,instruction_button,0,3,3,3,1,images/instructions_part1_LSM_taskversion1/Slide3.5.JPG,67f41aadb805ee4c476ddb19,001,3,2025-04-15_11h39.59.073,avatar_quest_3AFC_legacy,2022.1.3,Win32,59.88023952,67f41aadb805ee4c476ddb19,67fe6e666cecbc9329ddf6d6,67fe701944b434c9ccee4417,,,,,,,,,,,,,,,,,,,,,,,,,,,,,,,,,,,,,,,,,,,,,,,,,,,,,,,,,,,,,,,,,,,,,,,,,,,,,
0.421800948,-0.403633491,1,0,0,instruction_button,0,4,4,4,1,images/instructions_part1_LSM_taskversion1/Slide4.JPG,67f41aadb805ee4c476ddb19,001,3,2025-04-15_11h39.59.073,avatar_quest_3AFC_legacy,2022.1.3,Win32,59.88023952,67f41aadb805ee4c476ddb19,67fe6e666cecbc9329ddf6d6,67fe701944b434c9ccee4417,,,,,,,,,,,,,,,,,,,,,,,,,,,,,,,,,,,,,,,,,,,,,,,,,,,,,,,,,,,,,,,,,,,,,,,,,,,,,
0.421800948,-0.403633491,1,0,0,instruction_button,0,5,5,5,1,images/instructions_part1_LSM_taskversion1/Slide6.5.JPG,67f41aadb805ee4c476ddb19,001,3,2025-04-15_11h39.59.073,avatar_quest_3AFC_legacy,2022.1.3,Win32,59.88023952,67f41aadb805ee4c476ddb19,67fe6e666cecbc9329ddf6d6,67fe701944b434c9ccee4417,,,,,,,,,,,,,,,,,,,,,,,,,,,,,,,,,,,,,,,,,,,,,,,,,,,,,,,,,,,,,,,,,,,,,,,,,,,,,
,,,,,,,,,,,,67f41aadb805ee4c476ddb19,001,3,2025-04-15_11h39.59.073,avatar_quest_3AFC_legacy,2022.1.3,Win32,59.88023952,67f41aadb805ee4c476ddb19,67fe6e666cecbc9329ddf6d6,67fe701944b434c9ccee4417,"[""left"",""left"",""right""]","[2.0936000000238444,2.30819999998808,2.7729999999999997]",,calibration,No Brainslug No Barriers No Money,1,100,5.4309,3,0,0,TRUE,na,na,na,na,0,0,0,1,1,No Brainslug No Barriers No Money,0,images/assets/snowy_original.jpg,calibration,10,images/assets/success.jpg,images/assets/gameover.jpg,never,,,,,,,,,,,,,,,,,,,,,,,,,,,,,,,,,,,,,,,,,,,,,,,,
,,,,,,,,,,,,67f41aadb805ee4c476ddb19,001,3,2025-04-15_11h39.59.073,avatar_quest_3AFC_legacy,2022.1.3,Win32,59.88023952,67f41aadb805ee4c476ddb19,67fe6e666cecbc9329ddf6d6,67fe701944b434c9ccee4417,"[""left""]",[1.1068000000119298],,calibration,No Brainslug No Barriers No Money,2,100,5.4198,1,0,0,TRUE,na,na,na,na,0,1,1,2,1,No Brainslug No Barriers No Money,0,images/assets/snowy_original.jpg,calibration,10,images/assets/success.jpg,images/assets/gameover.jpg,never,,,,,,,,,,,,,,,,,,,,,,,,,,,,,,,,,,,,,,,,,,,,,,,,
,,,,,,,,,,,,67f41aadb805ee4c476ddb19,001,3,2025-04-15_11h39.59.073,avatar_quest_3AFC_legacy,2022.1.3,Win32,59.88023952,67f41aadb805ee4c476ddb19,67fe6e666cecbc9329ddf6d6,67fe701944b434c9ccee4417,"[""left""]",[0.4148000000119225],,calibration,No Brainslug No Barriers No Money,3,100,5.4432,1,0,0,TRUE,na,na,na,na,0,2,2,0,1,No Brainslug No Barriers No Money,0,images/assets/snowy_original.jpg,calibration,10,images/assets/success.jpg,images/assets/gameover.jpg,never,,,,,,,,,,,,,,,,,,,,,,,,,,,,,,,,,,,,,,,,,,,,,,,,
0.399684044,-0.406793049,1,0,0,instruction_button,,,,,,images/instructions_part2_LSM_taskversion3.jpg,67f41aadb805ee4c476ddb19,001,3,2025-04-15_11h39.59.073,avatar_quest_3AFC_legacy,2022.1.3,Win32,59.88023952,67f41aadb805ee4c476ddb19,67fe6e666cecbc9329ddf6d6,67fe701944b434c9ccee4417,,,,,,,,,,,,,,,,,,,,,,,,,,,,,,0,0,0,0,1,,,,,,,,,,,,,,,,,,,,,,,,,,,,,,,,,,,,,,,,,,,
,,,,,,,,,,,,67f41aadb805ee4c476ddb19,001,3,2025-04-15_11h39.59.073,avatar_quest_3AFC_legacy,2022.1.3,Win32,59.88023952,67f41aadb805ee4c476ddb19,67fe6e666cecbc9329ddf6d6,67fe701944b434c9ccee4417,,,,,,,,,,,,,,,,,,,,,,With Brainslug No Barriers No Money,0,images/assets/snowy_original.jpg,learning,10,images/assets/success.jpg,images/assets/gameover.jpg,,,,,,,,With Brainslug Difficult 1 No Money,With Brainslug Difficult 1 No Money,left,6.9911,"[""With Brainslug Difficult 2 No Money"",""With Brainslug Difficult 2 With Money""]",0,0,0,5,1,,,,,,,,,,,,,,,,,,,,,,,,,,,,,,,,
,,,,,,,,,,,,67f41aadb805ee4c476ddb19,001,3,2025-04-15_11h39.59.073,avatar_quest_3AFC_legacy,2022.1.3,Win32,59.88023952,67f41aadb805ee4c476ddb19,67fe6e666cecbc9329ddf6d6,67fe701944b434c9ccee4417,,,,,,,,,,,,,,,,,,,,,,With Brainslug Difficult 1 With Money,6,images/assets/snowy_money.jpg,learning,20,images/assets/success_money.jpg,images/assets/gameover.jpg,,,,,,,,,,,,,0,1,1,0,1,,,,,,,,,,,,,,,,,,,,,,,,,,,,,,,,
,,,,,,,,,,,,67f41aadb805ee4c476ddb19,001,3,2025-04-15_11h39.59.073,avatar_quest_3AFC_legacy,2022.1.3,Win32,59.88023952,67f41aadb805ee4c476ddb19,67fe6e666cecbc9329ddf6d6,67fe701944b434c9ccee4417,,,,,,,,,,,,,,,,,,,,,,No Brainslug No Barriers No Money,0,images/assets/snowy_original.jpg,learning,10,images/assets/success.jpg,images/assets/gameover.jpg,,,,,,,,,,,,,0,2,2,10,1,,,,,,,,,,,,,,,,,,,,,,,,,,,,,,,,
,,,,,,,,,,,,67f41aadb805ee4c476ddb19,001,3,2025-04-15_11h39.59.073,avatar_quest_3AFC_legacy,2022.1.3,Win32,59.88023952,67f41aadb805ee4c476ddb19,67fe6e666cecbc9329ddf6d6,67fe701944b434c9ccee4417,,,,,,,,,,,,,,,,,,,,,,No Brainslug Difficult 2 No Money,12,images/assets/snowy_original.jpg,learning,20,images/assets/success.jpg,images/assets/gameover.jpg,,,,,,,,,,,,,0,3,3,8,1,,,,,,,,,,,,,,,,,,,,,,,,,,,,,,,,
,,,,,,,,,,,,67f41aadb805ee4c476ddb19,001,3,2025-04-15_11h39.59.073,avatar_quest_3AFC_legacy,2022.1.3,Win32,59.88023952,67f41aadb805ee4c476ddb19,67fe6e666cecbc9329ddf6d6,67fe701944b434c9ccee4417,,,,,,,,,,,,,,,,,,,,,,With Brainslug Difficult 2 No Money,12,images/assets/snowy_original.jpg,learning,20,images/assets/success.jpg,images/assets/gameover.jpg,,,,,,,,,,,,,0,4,4,3,1,,,,,,,,,,,,,,,,,,,,,,,,,,,,,,,,
,,,,,,,,,,,,67f41aadb805ee4c476ddb19,001,3,2025-04-15_11h39.59.073,avatar_quest_3AFC_legacy,2022.1.3,Win32,59.88023952,67f41aadb805ee4c476ddb19,67fe6e666cecbc9329ddf6d6,67fe701944b434c9ccee4417,,,,,,,,,,,,,,,,,,,,,,No Brainslug Difficult 2 With Money,12,images/assets/snowy_money.jpg,learning,20,images/assets/success_money.jpg,images/assets/gameover.jpg,,,,,,,,,,,,,0,5,5,7,1,,,,,,,,,,,,,,,,,,,,,,,,,,,,,,,,
,,,,,,,,,,,,67f41aadb805ee4c476ddb19,001,3,2025-04-15_11h39.59.073,avatar_quest_3AFC_legacy,2022.1.3,Win32,59.88023952,67f41aadb805ee4c476ddb19,67fe6e666cecbc9329ddf6d6,67fe701944b434c9ccee4417,"[""left"",""left"",""right"",""right"",""left"",""right"",""right"",""right"",""left"",""left"",""right"",""right"",""right"",""right"",""right"",""right"",""right"",""left"",""left"",""left""]","[0.4777000000476903,0.9010000000000105,1.3968000000119218,1.6703000000119204,2.1154000000357627,2.584000000000003,2.821300000011931,3.1159999999999997,3.5551000000238417,3.761900000035766,4.081000000000003,4.336100000023848,4.616,4.823400000035775,5.020200000047694,5.32950000000001,5.545800000011923,5.852500000000006,6.039500000000004,6.2320000000000135]",,calibration,With Brainslug Difficult 1 No Money,4,8.14695,6.8071,11,3,0,TRUE,na,na,na,na,,,,,,,,,,,,,,,,,,,,,,,,,,,,,,,,,,0,0,0,0,1,,,,,,,,,,,,,,,,,,,,,,,
,,,,,,,,,,,,67f41aadb805ee4c476ddb19,001,3,2025-04-15_11h39.59.073,avatar_quest_3AFC_legacy,2022.1.3,Win32,59.88023952,67f41aadb805ee4c476ddb19,67fe6e666cecbc9329ddf6d6,67fe701944b434c9ccee4417,,,,,,,,,,,,,,,,,,,,,,With Brainslug Difficult 1 No Money,6,images/assets/snowy_original.jpg,learning,20,images/assets/success.jpg,images/assets/gameover.jpg,,,,,,,,,,,,,0,6,6,1,1,,,,,,,,,,,,,,,,,,,,,,,,,,,,,,,,
,,,,,,,,,,,,67f41aadb805ee4c476ddb19,001,3,2025-04-15_11h39.59.073,avatar_quest_3AFC_legacy,2022.1.3,Win32,59.88023952,67f41aadb805ee4c476ddb19,67fe6e666cecbc9329ddf6d6,67fe701944b434c9ccee4417,,,,,,,,,,,,,,,,,,,,,,No Brainslug No Barriers With Money,0,images/assets/snowy_money.jpg,learning,10,images/assets/success_money.jpg,images/assets/gameover.jpg,,,,,,,,,,,,,0,7,7,9,1,,,,,,,,,,,,,,,,,,,,,,,,,,,,,,,,
,,,,,,,,,,,,67f41aadb805ee4c476ddb19,001,3,2025-04-15_11h39.59.073,avatar_quest_3AFC_legacy,2022.1.3,Win32,59.88023952,67f41aadb805ee4c476ddb19,67fe6e666cecbc9329ddf6d6,67fe701944b434c9ccee4417,,,,,,,,,,,,,,,,,,,,,,With Brainslug Difficult 2 With Money,12,images/assets/snowy_money.jpg,learning,20,images/assets/success_money.jpg,images/assets/gameover.jpg,,,,,,,,,,,,,0,8,8,2,1,,,,,,,,,,,,,,,,,,,,,,,,,,,,,,,,
,,,,,,,,,,,,67f41aadb805ee4c476ddb19,001,3,2025-04-15_11h39.59.073,avatar_quest_3AFC_legacy,2022.1.3,Win32,59.88023952,67f41aadb805ee4c476ddb19,67fe6e666cecbc9329ddf6d6,67fe701944b434c9ccee4417,,,,,,,,,,,,,,,,,,,,,,With Brainslug No Barriers With Money,0,images/assets/snowy_money.jpg,learning,10,images/assets/success_money.jpg,images/assets/gameover.jpg,,,,,,,,,,,,,0,9,9,4,1,,,,,,,,,,,,,,,,,,,,,,,,,,,,,,,,
,,,,,,,,,,,,67f41aadb805ee4c476ddb19,001,3,2025-04-15_11h39.59.073,avatar_quest_3AFC_legacy,2022.1.3,Win32,59.88023952,67f41aadb805ee4c476ddb19,67fe6e666cecbc9329ddf6d6,67fe701944b434c9ccee4417,,,,,,,,,,,,,,,,,,,,,,No Brainslug Difficult 1 No Money,6,images/assets/snowy_original.jpg,learning,20,images/assets/success.jpg,images/assets/gameover.jpg,,,,,,,,,,,,,0,10,10,6,1,,,,,,,,,,,,,,,,,,,,,,,,,,,,,,,,
,,,,,,,,,,,,67f41aadb805ee4c476ddb19,001,3,2025-04-15_11h39.59.073,avatar_quest_3AFC_legacy,2022.1.3,Win32,59.88023952,67f41aadb805ee4c476ddb19,67fe6e666cecbc9329ddf6d6,67fe701944b434c9ccee4417,,,,,,,,,,,,,,,,,,,,,,,,,,,,,,,,,,,,,,,,,,,,,,,,,,,,,,,0,0,0,0,1,,,,,,,,,,,,,,,,,,
,,,,,,,,,,,,67f41aadb805ee4c476ddb19,001,3,2025-04-15_11h39.59.073,avatar_quest_3AFC_legacy,2022.1.3,Win32,59.88023952,67f41aadb805ee4c476ddb19,67fe6e666cecbc9329ddf6d6,67fe701944b434c9ccee4417,,,,,,,,,,,,,,,,,,,,,,No Brainslug Difficult 1 No Money,6,images/assets/snowy_original.jpg,learning,20,images/assets/success.jpg,images/assets/gameover.jpg,,,,,,,,With Brainslug Difficult 1 No Money,With Brainslug Difficult 1 No Money,left,1.0214,"[""With Brainslug Difficult 2 No Money"",""With Brainslug Difficult 2 With Money""]",0,0,0,6,1,,,,,,,,,,,,,,,,,,,,,,,,,,,,,,,,
,,,,,,,,,,,,67f41aadb805ee4c476ddb19,001,3,2025-04-15_11h39.59.073,avatar_quest_3AFC_legacy,2022.1.3,Win32,59.88023952,67f41aadb805ee4c476ddb19,67fe6e666cecbc9329ddf6d6,67fe701944b434c9ccee4417,,,,,,,,,,,,,,,,,,,,,,No Brainslug No Barriers No Money,0,images/assets/snowy_original.jpg,learning,10,images/assets/success.jpg,images/assets/gameover.jpg,,,,,,,,,,,,,0,1,1,10,1,,,,,,,,,,,,,,,,,,,,,,,,,,,,,,,,
,,,,,,,,,,,,67f41aadb805ee4c476ddb19,001,3,2025-04-15_11h39.59.073,avatar_quest_3AFC_legacy,2022.1.3,Win32,59.88023952,67f41aadb805ee4c476ddb19,67fe6e666cecbc9329ddf6d6,67fe701944b434c9ccee4417,,,,,,,,,,,,,,,,,,,,,,No Brainslug No Barriers With Money,0,images/assets/snowy_money.jpg,learning,10,images/assets/success_money.jpg,images/assets/gameover.jpg,,,,,,,,,,,,,0,2,2,9,1,,,,,,,,,,,,,,,,,,,,,,,,,,,,,,,,
,,,,,,,,,,,,67f41aadb805ee4c476ddb19,001,3,2025-04-15_11h39.59.073,avatar_quest_3AFC_legacy,2022.1.3,Win32,59.88023952,67f41aadb805ee4c476ddb19,67fe6e666cecbc9329ddf6d6,67fe701944b434c9ccee4417,,,,,,,,,,,,,,,,,,,,,,With Brainslug Difficult 2 No Money,12,images/assets/snowy_original.jpg,learning,20,images/assets/success.jpg,images/assets/gameover.jpg,,,,,,,,,,,,,0,3,3,3,1,,,,,,,,,,,,,,,,,,,,,,,,,,,,,,,,
,,,,,,,,,,,,67f41aadb805ee4c476ddb19,001,3,2025-04-15_11h39.59.073,avatar_quest_3AFC_legacy,2022.1.3,Win32,59.88023952,67f41aadb805ee4c476ddb19,67fe6e666cecbc9329ddf6d6,67fe701944b434c9ccee4417,,,,,,,,,,,,,,,,,,,,,,With Brainslug Difficult 2 With Money,12,images/assets/snowy_money.jpg,learning,20,images/assets/success_money.jpg,images/assets/gameover.jpg,,,,,,,,,,,,,0,4,4,2,1,,,,,,,,,,,,,,,,,,,,,,,,,,,,,,,,
,,,,,,,,,,,,67f41aadb805ee4c476ddb19,001,3,2025-04-15_11h39.59.073,avatar_quest_3AFC_legacy,2022.1.3,Win32,59.88023952,67f41aadb805ee4c476ddb19,67fe6e666cecbc9329ddf6d6,67fe701944b434c9ccee4417,"[""left"",""left"",""right"",""right"",""right"",""left"",""left"",""left"",""left"",""left"",""right"",""right"",""right"",""right"",""left"",""left"",""left"",""left"",""left""]","[0.42960000002383936,0.6884000000357702,1.6282000000476842,1.946200000047682,2.1300000000000097,2.4381000000238515,2.6209000000357605,2.7978000000119323,3.008600000023847,3.2331000000238532,3.4599000000357734,3.657499999999999,3.847400000035762,4.064000000000007,4.264300000011929,4.488200000047684,4.6718000000119275,4.83470000004769,5.020100000023845]",,calibration,With Brainslug Difficult 1 No Money,5,8.14695,5.8317,10,2,0,TRUE,na,na,na,na,,,,,,,,,,,,,,,,,,,,,,,,,,,,,,,,,,0,0,0,0,1,,,,,,,,,,,,,,,,,,,,,,,
,,,,,,,,,,,,67f41aadb805ee4c476ddb19,001,3,2025-04-15_11h39.59.073,avatar_quest_3AFC_legacy,2022.1.3,Win32,59.88023952,67f41aadb805ee4c476ddb19,67fe6e666cecbc9329ddf6d6,67fe701944b434c9ccee4417,,,,,,,,,,,,,,,,,,,,,,With Brainslug Difficult 1 No Money,6,images/assets/snowy_original.jpg,learning,20,images/assets/success.jpg,images/assets/gameover.jpg,,,,,,,,,,,,,0,5,5,1,1,,,,,,,,,,,,,,,,,,,,,,,,,,,,,,,,
,,,,,,,,,,,,67f41aadb805ee4c476ddb19,001,3,2025-04-15_11h39.59.073,avatar_quest_3AFC_legacy,2022.1.3,Win32,59.88023952,67f41aadb805ee4c476ddb19,67fe6e666cecbc9329ddf6d6,67fe701944b434c9ccee4417,,,,,,,,,,,,,,,,,,,,,,With Brainslug No Barriers No Money,0,images/assets/snowy_original.jpg,learning,10,images/assets/success.jpg,images/assets/gameover.jpg,,,,,,,,,,,,,0,6,6,5,1,,,,,,,,,,,,,,,,,,,,,,,,,,,,,,,,
,,,,,,,,,,,,67f41aadb805ee4c476ddb19,001,3,2025-04-15_11h39.59.073,avatar_quest_3AFC_legacy,2022.1.3,Win32,59.88023952,67f41aadb805ee4c476ddb19,67fe6e666cecbc9329ddf6d6,67fe701944b434c9ccee4417,,,,,,,,,,,,,,,,,,,,,,With Brainslug Difficult 1 With Money,6,images/assets/snowy_money.jpg,learning,20,images/assets/success_money.jpg,images/assets/gameover.jpg,,,,,,,,,,,,,0,7,7,0,1,,,,,,,,,,,,,,,,,,,,,,,,,,,,,,,,
,,,,,,,,,,,,67f41aadb805ee4c476ddb19,001,3,2025-04-15_11h39.59.073,avatar_quest_3AFC_legacy,2022.1.3,Win32,59.88023952,67f41aadb805ee4c476ddb19,67fe6e666cecbc9329ddf6d6,67fe701944b434c9ccee4417,,,,,,,,,,,,,,,,,,,,,,No Brainslug Difficult 2 With Money,12,images/assets/snowy_money.jpg,learning,20,images/assets/success_money.jpg,images/assets/gameover.jpg,,,,,,,,,,,,,0,8,8,7,1,,,,,,,,,,,,,,,,,,,,,,,,,,,,,,,,
,,,,,,,,,,,,67f41aadb805ee4c476ddb19,001,3,2025-04-15_11h39.59.073,avatar_quest_3AFC_legacy,2022.1.3,Win32,59.88023952,67f41aadb805ee4c476ddb19,67fe6e666cecbc9329ddf6d6,67fe701944b434c9ccee4417,,,,,,,,,,,,,,,,,,,,,,No Brainslug Difficult 2 No Money,12,images/assets/snowy_original.jpg,learning,20,images/assets/success.jpg,images/assets/gameover.jpg,,,,,,,,,,,,,0,9,9,8,1,,,,,,,,,,,,,,,,,,,,,,,,,,,,,,,,
,,,,,,,,,,,,67f41aadb805ee4c476ddb19,001,3,2025-04-15_11h39.59.073,avatar_quest_3AFC_legacy,2022.1.3,Win32,59.88023952,67f41aadb805ee4c476ddb19,67fe6e666cecbc9329ddf6d6,67fe701944b434c9ccee4417,,,,,,,,,,,,,,,,,,,,,,With Brainslug No Barriers With Money,0,images/assets/snowy_money.jpg,learning,10,images/assets/success_money.jpg,images/assets/gameover.jpg,,,,,,,,,,,,,0,10,10,4,1,,,,,,,,,,,,,,,,,,,,,,,,,,,,,,,,
,,,,,,,,,,,,67f41aadb805ee4c476ddb19,001,3,2025-04-15_11h39.59.073,avatar_quest_3AFC_legacy,2022.1.3,Win32,59.88023952,67f41aadb805ee4c476ddb19,67fe6e666cecbc9329ddf6d6,67fe701944b434c9ccee4417,,,,,,,,,,,,,,,,,,,,,,,,,,,,,,,,,,,,,,,,,,,,,,,,,,,,,,,1,0,1,0,1,,,,,,,,,,,,,,,,,,
,,,,,,,,,,,,67f41aadb805ee4c476ddb19,001,3,2025-04-15_11h39.59.073,avatar_quest_3AFC_legacy,2022.1.3,Win32,59.88023952,67f41aadb805ee4c476ddb19,67fe6e666cecbc9329ddf6d6,67fe701944b434c9ccee4417,,,,,,,,,,,,,,,,,,,,,,No Brainslug Difficult 1 No Money,6,images/assets/snowy_original.jpg,learning,20,images/assets/success.jpg,images/assets/gameover.jpg,,,,,,,,With Brainslug Difficult 1 No Money,With Brainslug Difficult 1 No Money,left,0.7833,"[""With Brainslug Difficult 2 No Money"",""With Brainslug Difficult 2 With Money""]",0,0,0,6,1,,,,,,,,,,,,,,,,,,,,,,,,,,,,,,,,
,,,,,,,,,,,,67f41aadb805ee4c476ddb19,001,3,2025-04-15_11h39.59.073,avatar_quest_3AFC_legacy,2022.1.3,Win32,59.88023952,67f41aadb805ee4c476ddb19,67fe6e666cecbc9329ddf6d6,67fe701944b434c9ccee4417,,,,,,,,,,,,,,,,,,,,,,No Brainslug Difficult 2 With Money,12,images/assets/snowy_money.jpg,learning,20,images/assets/success_money.jpg,images/assets/gameover.jpg,,,,,,,,,,,,,0,1,1,7,1,,,,,,,,,,,,,,,,,,,,,,,,,,,,,,,,
,,,,,,,,,,,,67f41aadb805ee4c476ddb19,001,3,2025-04-15_11h39.59.073,avatar_quest_3AFC_legacy,2022.1.3,Win32,59.88023952,67f41aadb805ee4c476ddb19,67fe6e666cecbc9329ddf6d6,67fe701944b434c9ccee4417,,,,,,,,,,,,,,,,,,,,,,No Brainslug No Barriers No Money,0,images/assets/snowy_original.jpg,learning,10,images/assets/success.jpg,images/assets/gameover.jpg,,,,,,,,,,,,,0,2,2,10,1,,,,,,,,,,,,,,,,,,,,,,,,,,,,,,,,
,,,,,,,,,,,,67f41aadb805ee4c476ddb19,001,3,2025-04-15_11h39.59.073,avatar_quest_3AFC_legacy,2022.1.3,Win32,59.88023952,67f41aadb805ee4c476ddb19,67fe6e666cecbc9329ddf6d6,67fe701944b434c9ccee4417,"[""left"",""left"",""left"",""right"",""right"",""left"",""left"",""right"",""right"",""right"",""left"",""left"",""left"",""right"",""right"",""right"",""right"",""right"",""right"",""right"",""right"",""right"",""left"",""left"",""left"",""left"",""left""]","[0.45480000001191456,0.6202000000476744,0.8274000000357518,1.2788000000119126,1.4951000000238395,1.9688000000119104,2.1672000000476714,2.46070000004768,2.676700000047674,2.8877000000476727,3.0931000000238384,3.285600000023834,3.4642000000476827,3.7048000000119146,4.095400000035752,4.284200000047676,4.5804999999999865,4.9694999999999965,5.362800000011902,5.586600000023822,5.791200000047667,6.030900000035757,6.509700000047673,6.730600000023827,6.872500000000002,7.072000000000003,7.248400000035758]",,calibration,With Brainslug Difficult 1 No Money,6,8.14695,7.8579,11,3,0,TRUE,na,na,na,na,,,,,,,,,,,,,,,,,,,,,,,,,,,,,,,,,,0,0,0,0,1,,,,,,,,,,,,,,,,,,,,,,,
,,,,,,,,,,,,67f41aadb805ee4c476ddb19,001,3,2025-04-15_11h39.59.073,avatar_quest_3AFC_legacy,2022.1.3,Win32,59.88023952,67f41aadb805ee4c476ddb19,67fe6e666cecbc9329ddf6d6,67fe701944b434c9ccee4417,,,,,,,,,,,,,,,,,,,,,,With Brainslug Difficult 1 No Money,6,images/assets/snowy_original.jpg,learning,20,images/assets/success.jpg,images/assets/gameover.jpg,,,,,,,,,,,,,0,3,3,1,1,,,,,,,,,,,,,,,,,,,,,,,,,,,,,,,,
,,,,,,,,,,,,67f41aadb805ee4c476ddb19,001,3,2025-04-15_11h39.59.073,avatar_quest_3AFC_legacy,2022.1.3,Win32,59.88023952,67f41aadb805ee4c476ddb19,67fe6e666cecbc9329ddf6d6,67fe701944b434c9ccee4417,,,,,,,,,,,,,,,,,,,,,,With Brainslug No Barriers No Money,0,images/assets/snowy_original.jpg,learning,10,images/assets/success.jpg,images/assets/gameover.jpg,,,,,,,,,,,,,0,4,4,5,1,,,,,,,,,,,,,,,,,,,,,,,,,,,,,,,,
,,,,,,,,,,,,67f41aadb805ee4c476ddb19,001,3,2025-04-15_11h39.59.073,avatar_quest_3AFC_legacy,2022.1.3,Win32,59.88023952,67f41aadb805ee4c476ddb19,67fe6e666cecbc9329ddf6d6,67fe701944b434c9ccee4417,,,,,,,,,,,,,,,,,,,,,,With Brainslug Difficult 2 With Money,12,images/assets/snowy_money.jpg,learning,20,images/assets/success_money.jpg,images/assets/gameover.jpg,,,,,,,,,,,,,0,5,5,2,1,,,,,,,,,,,,,,,,,,,,,,,,,,,,,,,,
,,,,,,,,,,,,67f41aadb805ee4c476ddb19,001,3,2025-04-15_11h39.59.073,avatar_quest_3AFC_legacy,2022.1.3,Win32,59.88023952,67f41aadb805ee4c476ddb19,67fe6e666cecbc9329ddf6d6,67fe701944b434c9ccee4417,,,,,,,,,,,,,,,,,,,,,,With Brainslug No Barriers With Money,0,images/assets/snowy_money.jpg,learning,10,images/assets/success_money.jpg,images/assets/gameover.jpg,,,,,,,,,,,,,0,6,6,4,1,,,,,,,,,,,,,,,,,,,,,,,,,,,,,,,,
,,,,,,,,,,,,67f41aadb805ee4c476ddb19,001,3,2025-04-15_11h39.59.073,avatar_quest_3AFC_legacy,2022.1.3,Win32,59.88023952,67f41aadb805ee4c476ddb19,67fe6e666cecbc9329ddf6d6,67fe701944b434c9ccee4417,,,,,,,,,,,,,,,,,,,,,,With Brainslug Difficult 1 With Money,6,images/assets/snowy_money.jpg,learning,20,images/assets/success_money.jpg,images/assets/gameover.jpg,,,,,,,,,,,,,0,7,7,0,1,,,,,,,,,,,,,,,,,,,,,,,,,,,,,,,,
,,,,,,,,,,,,67f41aadb805ee4c476ddb19,001,3,2025-04-15_11h39.59.073,avatar_quest_3AFC_legacy,2022.1.3,Win32,59.88023952,67f41aadb805ee4c476ddb19,67fe6e666cecbc9329ddf6d6,67fe701944b434c9ccee4417,,,,,,,,,,,,,,,,,,,,,,With Brainslug Difficult 2 No Money,12,images/assets/snowy_original.jpg,learning,20,images/assets/success.jpg,images/assets/gameover.jpg,,,,,,,,,,,,,0,8,8,3,1,,,,,,,,,,,,,,,,,,,,,,,,,,,,,,,,
,,,,,,,,,,,,67f41aadb805ee4c476ddb19,001,3,2025-04-15_11h39.59.073,avatar_quest_3AFC_legacy,2022.1.3,Win32,59.88023952,67f41aadb805ee4c476ddb19,67fe6e666cecbc9329ddf6d6,67fe701944b434c9ccee4417,,,,,,,,,,,,,,,,,,,,,,No Brainslug No Barriers With Money,0,images/assets/snowy_money.jpg,learning,10,images/assets/success_money.jpg,images/assets/gameover.jpg,,,,,,,,,,,,,0,9,9,9,1,,,,,,,,,,,,,,,,,,,,,,,,,,,,,,,,
,,,,,,,,,,,,67f41aadb805ee4c476ddb19,001,3,2025-04-15_11h39.59.073,avatar_quest_3AFC_legacy,2022.1.3,Win32,59.88023952,67f41aadb805ee4c476ddb19,67fe6e666cecbc9329ddf6d6,67fe701944b434c9ccee4417,,,,,,,,,,,,,,,,,,,,,,No Brainslug Difficult 2 No Money,12,images/assets/snowy_original.jpg,learning,20,images/assets/success.jpg,images/assets/gameover.jpg,,,,,,,,,,,,,0,10,10,8,1,,,,,,,,,,,,,,,,,,,,,,,,,,,,,,,,
,,,,,,,,,,,,67f41aadb805ee4c476ddb19,001,3,2025-04-15_11h39.59.073,avatar_quest_3AFC_legacy,2022.1.3,Win32,59.88023952,67f41aadb805ee4c476ddb19,67fe6e666cecbc9329ddf6d6,67fe701944b434c9ccee4417,,,,,,,,,,,,,,,,,,,,,,,,,,,,,,,,,,,,,,,,,,,,,,,,,,,,,,,2,0,2,0,1,,,,,,,,,,,,,,,,,,
,,,,,,,,,,,,67f41aadb805ee4c476ddb19,001,3,2025-04-15_11h39.59.073,avatar_quest_3AFC_legacy,2022.1.3,Win32,59.88023952,67f41aadb805ee4c476ddb19,67fe6e666cecbc9329ddf6d6,67fe701944b434c9ccee4417,,,,,,,,,,,,,,,,,,,,,,With Brainslug No Barriers No Money,0,images/assets/snowy_original.jpg,learning,10,images/assets/success.jpg,images/assets/gameover.jpg,,,,,,,,With Brainslug Difficult 1 No Money,With Brainslug Difficult 1 No Money,left,0.846,"[""With Brainslug Difficult 2 No Money"",""With Brainslug Difficult 2 With Money""]",0,0,0,5,1,,,,,,,,,,,,,,,,,,,,,,,,,,,,,,,,
,,,,,,,,,,,,67f41aadb805ee4c476ddb19,001,3,2025-04-15_11h39.59.073,avatar_quest_3AFC_legacy,2022.1.3,Win32,59.88023952,67f41aadb805ee4c476ddb19,67fe6e666cecbc9329ddf6d6,67fe701944b434c9ccee4417,,,,,,,,,,,,,,,,,,,,,,With Brainslug No Barriers With Money,0,images/assets/snowy_money.jpg,learning,10,images/assets/success_money.jpg,images/assets/gameover.jpg,,,,,,,,,,,,,0,1,1,4,1,,,,,,,,,,,,,,,,,,,,,,,,,,,,,,,,
,,,,,,,,,,,,67f41aadb805ee4c476ddb19,001,3,2025-04-15_11h39.59.073,avatar_quest_3AFC_legacy,2022.1.3,Win32,59.88023952,67f41aadb805ee4c476ddb19,67fe6e666cecbc9329ddf6d6,67fe701944b434c9ccee4417,,,,,,,,,,,,,,,,,,,,,,With Brainslug Difficult 1 With Money,6,images/assets/snowy_money.jpg,learning,20,images/assets/success_money.jpg,images/assets/gameover.jpg,,,,,,,,,,,,,0,2,2,0,1,,,,,,,,,,,,,,,,,,,,,,,,,,,,,,,,
,,,,,,,,,,,,67f41aadb805ee4c476ddb19,001,3,2025-04-15_11h39.59.073,avatar_quest_3AFC_legacy,2022.1.3,Win32,59.88023952,67f41aadb805ee4c476ddb19,67fe6e666cecbc9329ddf6d6,67fe701944b434c9ccee4417,,,,,,,,,,,,,,,,,,,,,,No Brainslug Difficult 1 No Money,6,images/assets/snowy_original.jpg,learning,20,images/assets/success.jpg,images/assets/gameover.jpg,,,,,,,,,,,,,0,3,3,6,1,,,,,,,,,,,,,,,,,,,,,,,,,,,,,,,,
,,,,,,,,,,,,67f41aadb805ee4c476ddb19,001,3,2025-04-15_11h39.59.073,avatar_quest_3AFC_legacy,2022.1.3,Win32,59.88023952,67f41aadb805ee4c476ddb19,67fe6e666cecbc9329ddf6d6,67fe701944b434c9ccee4417,,,,,,,,,,,,,,,,,,,,,,With Brainslug Difficult 2 With Money,12,images/assets/snowy_money.jpg,learning,20,images/assets/success_money.jpg,images/assets/gameover.jpg,,,,,,,,,,,,,0,4,4,2,1,,,,,,,,,,,,,,,,,,,,,,,,,,,,,,,,
,,,,,,,,,,,,67f41aadb805ee4c476ddb19,001,3,2025-04-15_11h39.59.073,avatar_quest_3AFC_legacy,2022.1.3,Win32,59.88023952,67f41aadb805ee4c476ddb19,67fe6e666cecbc9329ddf6d6,67fe701944b434c9ccee4417,,,,,,,,,,,,,,,,,,,,,,No Brainslug Difficult 2 With Money,12,images/assets/snowy_money.jpg,learning,20,images/assets/success_money.jpg,images/assets/gameover.jpg,,,,,,,,,,,,,0,5,5,7,1,,,,,,,,,,,,,,,,,,,,,,,,,,,,,,,,
,,,,,,,,,,,,67f41aadb805ee4c476ddb19,001,3,2025-04-15_11h39.59.073,avatar_quest_3AFC_legacy,2022.1.3,Win32,59.88023952,67f41aadb805ee4c476ddb19,67fe6e666cecbc9329ddf6d6,67fe701944b434c9ccee4417,,,,,,,,,,,,,,,,,,,,,,No Brainslug Difficult 2 No Money,12,images/assets/snowy_original.jpg,learning,20,images/assets/success.jpg,images/assets/gameover.jpg,,,,,,,,,,,,,0,6,6,8,1,,,,,,,,,,,,,,,,,,,,,,,,,,,,,,,,
,,,,,,,,,,,,67f41aadb805ee4c476ddb19,001,3,2025-04-15_11h39.59.073,avatar_quest_3AFC_legacy,2022.1.3,Win32,59.88023952,67f41aadb805ee4c476ddb19,67fe6e666cecbc9329ddf6d6,67fe701944b434c9ccee4417,,,,,,,,,,,,,,,,,,,,,,No Brainslug No Barriers With Money,0,images/assets/snowy_money.jpg,learning,10,images/assets/success_money.jpg,images/assets/gameover.jpg,,,,,,,,,,,,,0,7,7,9,1,,,,,,,,,,,,,,,,,,,,,,,,,,,,,,,,
,,,,,,,,,,,,67f41aadb805ee4c476ddb19,001,3,2025-04-15_11h39.59.073,avatar_quest_3AFC_legacy,2022.1.3,Win32,59.88023952,67f41aadb805ee4c476ddb19,67fe6e666cecbc9329ddf6d6,67fe701944b434c9ccee4417,,,,,,,,,,,,,,,,,,,,,,With Brainslug Difficult 2 No Money,12,images/assets/snowy_original.jpg,learning,20,images/assets/success.jpg,images/assets/gameover.jpg,,,,,,,,,,,,,0,8,8,3,1,,,,,,,,,,,,,,,,,,,,,,,,,,,,,,,,
,,,,,,,,,,,,67f41aadb805ee4c476ddb19,001,3,2025-04-15_11h39.59.073,avatar_quest_3AFC_legacy,2022.1.3,Win32,59.88023952,67f41aadb805ee4c476ddb19,67fe6e666cecbc9329ddf6d6,67fe701944b434c9ccee4417,,,,,,,,,,,,,,,,,,,,,,No Brainslug No Barriers No Money,0,images/assets/snowy_original.jpg,learning,10,images/assets/success.jpg,images/assets/gameover.jpg,,,,,,,,,,,,,0,9,9,10,1,,,,,,,,,,,,,,,,,,,,,,,,,,,,,,,,
,,,,,,,,,,,,67f41aadb805ee4c476ddb19,001,3,2025-04-15_11h39.59.073,avatar_quest_3AFC_legacy,2022.1.3,Win32,59.88023952,67f41aadb805ee4c476ddb19,67fe6e666cecbc9329ddf6d6,67fe701944b434c9ccee4417,"[""left"",""left"",""left"",""right"",""right"",""right"",""right"",""right"",""right"",""right"",""right"",""left"",""left"",""left"",""left"",""left"",""right"",""right"",""right"",""right"",""left"",""left"",""left"",""left""]","[0.47630000001191775,0.633499999999998,0.850300000011913,1.4680000000000177,1.6758000000119182,1.8715999999642463,2.0480999999642506,2.2588999999761654,2.486099999964239,2.7251999999880923,2.9715999999642406,3.239099999964253,3.4475999999642397,3.629399999976158,3.801699999988074,3.999500000000012,4.244800000011935,4.45750000000001,4.64500000000001,4.82259999996424,5.2903999999761595,5.479099999964234,5.67119999998809,5.928099999964246]",,calibration,With Brainslug Difficult 1 No Money,7,8.14695,6.6171,11,3,0,TRUE,na,na,na,na,,,,,,,,,,,,,,,,,,,,,,,,,,,,,,,,,,0,0,0,0,1,,,,,,,,,,,,,,,,,,,,,,,
,,,,,,,,,,,,67f41aadb805ee4c476ddb19,001,3,2025-04-15_11h39.59.073,avatar_quest_3AFC_legacy,2022.1.3,Win32,59.88023952,67f41aadb805ee4c476ddb19,67fe6e666cecbc9329ddf6d6,67fe701944b434c9ccee4417,,,,,,,,,,,,,,,,,,,,,,With Brainslug Difficult 1 No Money,6,images/assets/snowy_original.jpg,learning,20,images/assets/success.jpg,images/assets/gameover.jpg,,,,,,,,,,,,,0,10,10,1,1,,,,,,,,,,,,,,,,,,,,,,,,,,,,,,,,
,,,,,,,,,,,,67f41aadb805ee4c476ddb19,001,3,2025-04-15_11h39.59.073,avatar_quest_3AFC_legacy,2022.1.3,Win32,59.88023952,67f41aadb805ee4c476ddb19,67fe6e666cecbc9329ddf6d6,67fe701944b434c9ccee4417,,,,,,,,,,,,,,,,,,,,,,,,,,,,,,,,,,,,,,,,,,,,,,,,,,,,,,,3,0,3,0,1,,,,,,,,,,,,,,,,,,
,,,,,,,,,,,,67f41aadb805ee4c476ddb19,001,3,2025-04-15_11h39.59.073,avatar_quest_3AFC_legacy,2022.1.3,Win32,59.88023952,67f41aadb805ee4c476ddb19,67fe6e666cecbc9329ddf6d6,67fe701944b434c9ccee4417,,,,,,,,,,,,,,,,,,,,,,With Brainslug No Barriers With Money,0,images/assets/snowy_money.jpg,learning,10,images/assets/success_money.jpg,images/assets/gameover.jpg,,,,,,,,With Brainslug Difficult 2 No Money,With Brainslug Difficult 1 No Money,down,0.6981,"[""With Brainslug Difficult 1 No Money"",""With Brainslug Difficult 2 With Money""]",0,0,0,4,1,,,,,,,,,,,,,,,,,,,,,,,,,,,,,,,,
,,,,,,,,,,,,67f41aadb805ee4c476ddb19,001,3,2025-04-15_11h39.59.073,avatar_quest_3AFC_legacy,2022.1.3,Win32,59.88023952,67f41aadb805ee4c476ddb19,67fe6e666cecbc9329ddf6d6,67fe701944b434c9ccee4417,,,,,,,,,,,,,,,,,,,,,,No Brainslug No Barriers With Money,0,images/assets/snowy_money.jpg,learning,10,images/assets/success_money.jpg,images/assets/gameover.jpg,,,,,,,,,,,,,0,1,1,9,1,,,,,,,,,,,,,,,,,,,,,,,,,,,,,,,,
,,,,,,,,,,,,67f41aadb805ee4c476ddb19,001,3,2025-04-15_11h39.59.073,avatar_quest_3AFC_legacy,2022.1.3,Win32,59.88023952,67f41aadb805ee4c476ddb19,67fe6e666cecbc9329ddf6d6,67fe701944b434c9ccee4417,,,,,,,,,,,,,,,,,,,,,,No Brainslug Difficult 1 No Money,6,images/assets/snowy_original.jpg,learning,20,images/assets/success.jpg,images/assets/gameover.jpg,,,,,,,,,,,,,0,2,2,6,1,,,,,,,,,,,,,,,,,,,,,,,,,,,,,,,,
,,,,,,,,,,,,67f41aadb805ee4c476ddb19,001,3,2025-04-15_11h39.59.073,avatar_quest_3AFC_legacy,2022.1.3,Win32,59.88023952,67f41aadb805ee4c476ddb19,67fe6e666cecbc9329ddf6d6,67fe701944b434c9ccee4417,,,,,,,,,,,,,,,,,,,,,,No Brainslug Difficult 2 No Money,12,images/assets/snowy_original.jpg,learning,20,images/assets/success.jpg,images/assets/gameover.jpg,,,,,,,,,,,,,0,3,3,8,1,,,,,,,,,,,,,,,,,,,,,,,,,,,,,,,,
,,,,,,,,,,,,67f41aadb805ee4c476ddb19,001,3,2025-04-15_11h39.59.073,avatar_quest_3AFC_legacy,2022.1.3,Win32,59.88023952,67f41aadb805ee4c476ddb19,67fe6e666cecbc9329ddf6d6,67fe701944b434c9ccee4417,,,,,,,,,,,,,,,,,,,,,,With Brainslug Difficult 1 No Money,6,images/assets/snowy_original.jpg,learning,20,images/assets/success.jpg,images/assets/gameover.jpg,,,,,,,,,,,,,0,4,4,1,1,,,,,,,,,,,,,,,,,,,,,,,,,,,,,,,,
,,,,,,,,,,,,67f41aadb805ee4c476ddb19,001,3,2025-04-15_11h39.59.073,avatar_quest_3AFC_legacy,2022.1.3,Win32,59.88023952,67f41aadb805ee4c476ddb19,67fe6e666cecbc9329ddf6d6,67fe701944b434c9ccee4417,,,,,,,,,,,,,,,,,,,,,,No Brainslug Difficult 2 With Money,12,images/assets/snowy_money.jpg,learning,20,images/assets/success_money.jpg,images/assets/gameover.jpg,,,,,,,,,,,,,0,5,5,7,1,,,,,,,,,,,,,,,,,,,,,,,,,,,,,,,,
,,,,,,,,,,,,67f41aadb805ee4c476ddb19,001,3,2025-04-15_11h39.59.073,avatar_quest_3AFC_legacy,2022.1.3,Win32,59.88023952,67f41aadb805ee4c476ddb19,67fe6e666cecbc9329ddf6d6,67fe701944b434c9ccee4417,,,,,,,,,,,,,,,,,,,,,,With Brainslug Difficult 1 With Money,6,images/assets/snowy_money.jpg,learning,20,images/assets/success_money.jpg,images/assets/gameover.jpg,,,,,,,,,,,,,0,6,6,0,1,,,,,,,,,,,,,,,,,,,,,,,,,,,,,,,,
,,,,,,,,,,,,67f41aadb805ee4c476ddb19,001,3,2025-04-15_11h39.59.073,avatar_quest_3AFC_legacy,2022.1.3,Win32,59.88023952,67f41aadb805ee4c476ddb19,67fe6e666cecbc9329ddf6d6,67fe701944b434c9ccee4417,,,,,,,,,,,,,,,,,,,,,,With Brainslug No Barriers No Money,0,images/assets/snowy_original.jpg,learning,10,images/assets/success.jpg,images/assets/gameover.jpg,,,,,,,,,,,,,0,7,7,5,1,,,,,,,,,,,,,,,,,,,,,,,,,,,,,,,,
,,,,,,,,,,,,67f41aadb805ee4c476ddb19,001,3,2025-04-15_11h39.59.073,avatar_quest_3AFC_legacy,2022.1.3,Win32,59.88023952,67f41aadb805ee4c476ddb19,67fe6e666cecbc9329ddf6d6,67fe701944b434c9ccee4417,"[""left"",""left"",""left"",""right"",""right"",""left"",""left"",""left"",""right"",""right"",""right"",""left"",""left"",""right"",""right"",""left"",""left"",""left"",""right"",""right"",""left"",""left"",""left"",""right"",""left"",""left"",""left"",""left"",""right"",""right""]","[0.4591999999880727,0.6433999999761681,0.8900000000000148,1.485099999964234,1.729199999988083,2.0821999999880916,2.327899999976154,2.5481999999880713,2.7381999999880975,2.939899999976177,3.1462999999523333,3.4250000000000114,3.606399999976162,3.8303999999761515,4.057299999952335,4.355799999952325,4.553399999976165,4.70339999997617,5.0650999999642465,5.344099999964243,5.446199999988096,5.6653999999761595,5.8559999999999945,6.382099999964254,6.652399999976154,6.846599999964241,7.067000000000007,7.259299999952333,7.481299999952313,7.696899999976154]",,calibration,With Brainslug Difficult 2 No Money,8,8.14695,8.1555,16,9,0,FALSE,na,na,na,na,,,,,,,,,,,,,,,,,,,,,,,,,,,,,,,,,,0,0,0,0,1,,,,,,,,,,,,,,,,,,,,,,,
,,,,,,,,,,,,67f41aadb805ee4c476ddb19,001,3,2025-04-15_11h39.59.073,avatar_quest_3AFC_legacy,2022.1.3,Win32,59.88023952,67f41aadb805ee4c476ddb19,67fe6e666cecbc9329ddf6d6,67fe701944b434c9ccee4417,,,,,,,,,,,,,,,,,,,,,,With Brainslug Difficult 2 No Money,12,images/assets/snowy_original.jpg,learning,20,images/assets/success.jpg,images/assets/gameover.jpg,,,,,,,,,,,,,0,8,8,3,1,,,,,,,,,,,,,,,,,,,,,,,,,,,,,,,,
,,,,,,,,,,,,67f41aadb805ee4c476ddb19,001,3,2025-04-15_11h39.59.073,avatar_quest_3AFC_legacy,2022.1.3,Win32,59.88023952,67f41aadb805ee4c476ddb19,67fe6e666cecbc9329ddf6d6,67fe701944b434c9ccee4417,,,,,,,,,,,,,,,,,,,,,,No Brainslug No Barriers No Money,0,images/assets/snowy_original.jpg,learning,10,images/assets/success.jpg,images/assets/gameover.jpg,,,,,,,,,,,,,0,9,9,10,1,,,,,,,,,,,,,,,,,,,,,,,,,,,,,,,,
,,,,,,,,,,,,67f41aadb805ee4c476ddb19,001,3,2025-04-15_11h39.59.073,avatar_quest_3AFC_legacy,2022.1.3,Win32,59.88023952,67f41aadb805ee4c476ddb19,67fe6e666cecbc9329ddf6d6,67fe701944b434c9ccee4417,,,,,,,,,,,,,,,,,,,,,,With Brainslug Difficult 2 With Money,12,images/assets/snowy_money.jpg,learning,20,images/assets/success_money.jpg,images/assets/gameover.jpg,,,,,,,,,,,,,0,10,10,2,1,,,,,,,,,,,,,,,,,,,,,,,,,,,,,,,,
,,,,,,,,,,,,67f41aadb805ee4c476ddb19,001,3,2025-04-15_11h39.59.073,avatar_quest_3AFC_legacy,2022.1.3,Win32,59.88023952,67f41aadb805ee4c476ddb19,67fe6e666cecbc9329ddf6d6,67fe701944b434c9ccee4417,,,,,,,,,,,,,,,,,,,,,,,,,,,,,,,,,,,,,,,,,,,,,,,,,,,,,,,4,0,4,0,1,,,,,,,,,,,,,,,,,,
,,,,,,,,,,,,67f41aadb805ee4c476ddb19,001,3,2025-04-15_11h39.59.073,avatar_quest_3AFC_legacy,2022.1.3,Win32,59.88023952,67f41aadb805ee4c476ddb19,67fe6e666cecbc9329ddf6d6,67fe701944b434c9ccee4417,,,,,,,,,,,,,,,,,,,,,,With Brainslug Difficult 1 No Money,6,images/assets/snowy_original.jpg,learning,20,images/assets/success.jpg,images/assets/gameover.jpg,,,,,,,,With Brainslug Difficult 2 With Money,With Brainslug Difficult 1 No Money,right,1.1603,"[""With Brainslug Difficult 1 No Money"",""With Brainslug Difficult 2 No Money""]",0,0,0,1,1,,,,,,,,,,,,,,,,,,,,,,,,,,,,,,,,
,,,,,,,,,,,,67f41aadb805ee4c476ddb19,001,3,2025-04-15_11h39.59.073,avatar_quest_3AFC_legacy,2022.1.3,Win32,59.88023952,67f41aadb805ee4c476ddb19,67fe6e666cecbc9329ddf6d6,67fe701944b434c9ccee4417,,,,,,,,,,,,,,,,,,,,,,No Brainslug Difficult 2 No Money,12,images/assets/snowy_original.jpg,learning,20,images/assets/success.jpg,images/assets/gameover.jpg,,,,,,,,,,,,,0,1,1,8,1,,,,,,,,,,,,,,,,,,,,,,,,,,,,,,,,
,,,,,,,,,,,,67f41aadb805ee4c476ddb19,001,3,2025-04-15_11h39.59.073,avatar_quest_3AFC_legacy,2022.1.3,Win32,59.88023952,67f41aadb805ee4c476ddb19,67fe6e666cecbc9329ddf6d6,67fe701944b434c9ccee4417,,,,,,,,,,,,,,,,,,,,,,No Brainslug Difficult 2 With Money,12,images/assets/snowy_money.jpg,learning,20,images/assets/success_money.jpg,images/assets/gameover.jpg,,,,,,,,,,,,,0,2,2,7,1,,,,,,,,,,,,,,,,,,,,,,,,,,,,,,,,
,,,,,,,,,,,,67f41aadb805ee4c476ddb19,001,3,2025-04-15_11h39.59.073,avatar_quest_3AFC_legacy,2022.1.3,Win32,59.88023952,67f41aadb805ee4c476ddb19,67fe6e666cecbc9329ddf6d6,67fe701944b434c9ccee4417,,,,,,,,,,,,,,,,,,,,,,With Brainslug No Barriers No Money,0,images/assets/snowy_original.jpg,learning,10,images/assets/success.jpg,images/assets/gameover.jpg,,,,,,,,,,,,,0,3,3,5,1,,,,,,,,,,,,,,,,,,,,,,,,,,,,,,,,
,,,,,,,,,,,,67f41aadb805ee4c476ddb19,001,3,2025-04-15_11h39.59.073,avatar_quest_3AFC_legacy,2022.1.3,Win32,59.88023952,67f41aadb805ee4c476ddb19,67fe6e666cecbc9329ddf6d6,67fe701944b434c9ccee4417,,,,,,,,,,,,,,,,,,,,,,No Brainslug No Barriers With Money,0,images/assets/snowy_money.jpg,learning,10,images/assets/success_money.jpg,images/assets/gameover.jpg,,,,,,,,,,,,,0,4,4,9,1,,,,,,,,,,,,,,,,,,,,,,,,,,,,,,,,
,,,,,,,,,,,,67f41aadb805ee4c476ddb19,001,3,2025-04-15_11h39.59.073,avatar_quest_3AFC_legacy,2022.1.3,Win32,59.88023952,67f41aadb805ee4c476ddb19,67fe6e666cecbc9329ddf6d6,67fe701944b434c9ccee4417,,,,,,,,,,,,,,,,,,,,,,With Brainslug Difficult 2 No Money,12,images/assets/snowy_original.jpg,learning,20,images/assets/success.jpg,images/assets/gameover.jpg,,,,,,,,,,,,,0,5,5,3,1,,,,,,,,,,,,,,,,,,,,,,,,,,,,,,,,
,,,,,,,,,,,,67f41aadb805ee4c476ddb19,001,3,2025-04-15_11h39.59.073,avatar_quest_3AFC_legacy,2022.1.3,Win32,59.88023952,67f41aadb805ee4c476ddb19,67fe6e666cecbc9329ddf6d6,67fe701944b434c9ccee4417,,,,,,,,,,,,,,,,,,,,,,No Brainslug Difficult 1 No Money,6,images/assets/snowy_original.jpg,learning,20,images/assets/success.jpg,images/assets/gameover.jpg,,,,,,,,,,,,,0,6,6,6,1,,,,,,,,,,,,,,,,,,,,,,,,,,,,,,,,
,,,,,,,,,,,,67f41aadb805ee4c476ddb19,001,3,2025-04-15_11h39.59.073,avatar_quest_3AFC_legacy,2022.1.3,Win32,59.88023952,67f41aadb805ee4c476ddb19,67fe6e666cecbc9329ddf6d6,67fe701944b434c9ccee4417,,,,,,,,,,,,,,,,,,,,,,With Brainslug Difficult 1 With Money,6,images/assets/snowy_money.jpg,learning,20,images/assets/success_money.jpg,images/assets/gameover.jpg,,,,,,,,,,,,,0,7,7,0,1,,,,,,,,,,,,,,,,,,,,,,,,,,,,,,,,
,,,,,,,,,,,,67f41aadb805ee4c476ddb19,001,3,2025-04-15_11h39.59.073,avatar_quest_3AFC_legacy,2022.1.3,Win32,59.88023952,67f41aadb805ee4c476ddb19,67fe6e666cecbc9329ddf6d6,67fe701944b434c9ccee4417,,,,,,,,,,,,,,,,,,,,,,No Brainslug No Barriers No Money,0,images/assets/snowy_original.jpg,learning,10,images/assets/success.jpg,images/assets/gameover.jpg,,,,,,,,,,,,,0,8,8,10,1,,,,,,,,,,,,,,,,,,,,,,,,,,,,,,,,
,,,,,,,,,,,,67f41aadb805ee4c476ddb19,001,3,2025-04-15_11h39.59.073,avatar_quest_3AFC_legacy,2022.1.3,Win32,59.88023952,67f41aadb805ee4c476ddb19,67fe6e666cecbc9329ddf6d6,67fe701944b434c9ccee4417,"[""left"",""left"",""right"",""right"",""left"",""left"",""left"",""right"",""right"",""right"",""right"",""right"",""right"",""right"",""right"",""left"",""left"",""left"",""left"",""left"",""right"",""right"",""right"",""right"",""right"",""right"",""left"",""left"",""right""]","[0.4046999999880825,0.6200000000000045,1.4949000000357557,1.7821999999880802,2.0766999999880795,2.2798000000119316,2.4569000000357732,2.7216999999880898,2.953100000023852,3.115000000000009,3.32650000000001,3.795500000000004,4.033500000000004,4.2760000000000105,4.522800000011927,4.856600000023832,5.009300000011933,5.495800000011911,5.678600000023835,5.8986000000238334,6.115800000011916,6.3125,6.495600000023842,6.708199999988068,6.9495000000000005,7.172699999988083,7.391500000000008,7.554699999988088,7.817000000000007]",,calibration,With Brainslug Difficult 2 With Money,9,8.14695,8.168,13,5,0,FALSE,na,na,na,na,,,,,,,,,,,,,,,,,,,,,,,,,,,,,,,,,,0,0,0,0,1,,,,,,,,,,,,,,,,,,,,,,,
,,,,,,,,,,,,67f41aadb805ee4c476ddb19,001,3,2025-04-15_11h39.59.073,avatar_quest_3AFC_legacy,2022.1.3,Win32,59.88023952,67f41aadb805ee4c476ddb19,67fe6e666cecbc9329ddf6d6,67fe701944b434c9ccee4417,,,,,,,,,,,,,,,,,,,,,,With Brainslug Difficult 2 With Money,12,images/assets/snowy_money.jpg,learning,20,images/assets/success_money.jpg,images/assets/gameover.jpg,,,,,,,,,,,,,0,9,9,2,1,,,,,,,,,,,,,,,,,,,,,,,,,,,,,,,,
,,,,,,,,,,,,67f41aadb805ee4c476ddb19,001,3,2025-04-15_11h39.59.073,avatar_quest_3AFC_legacy,2022.1.3,Win32,59.88023952,67f41aadb805ee4c476ddb19,67fe6e666cecbc9329ddf6d6,67fe701944b434c9ccee4417,,,,,,,,,,,,,,,,,,,,,,With Brainslug No Barriers With Money,0,images/assets/snowy_money.jpg,learning,10,images/assets/success_money.jpg,images/assets/gameover.jpg,,,,,,,,,,,,,0,10,10,4,1,,,,,,,,,,,,,,,,,,,,,,,,,,,,,,,,
,,,,,,,,,,,,67f41aadb805ee4c476ddb19,001,3,2025-04-15_11h39.59.073,avatar_quest_3AFC_legacy,2022.1.3,Win32,59.88023952,67f41aadb805ee4c476ddb19,67fe6e666cecbc9329ddf6d6,67fe701944b434c9ccee4417,,,,,,,,,,,,,,,,,,,,,,,,,,,,,,,,,,,,,,,,,,,,,,,,,,,,,,,5,0,5,0,1,,,,,,,,,,,,,,,,,,
,,,,,,,,,,,,67f41aadb805ee4c476ddb19,001,3,2025-04-15_11h39.59.073,avatar_quest_3AFC_legacy,2022.1.3,Win32,59.88023952,67f41aadb805ee4c476ddb19,67fe6e666cecbc9329ddf6d6,67fe701944b434c9ccee4417,,,,,,,,,,,,,,,,,,,,,,With Brainslug No Barriers With Money,0,images/assets/snowy_money.jpg,learning,10,images/assets/success_money.jpg,images/assets/gameover.jpg,,,,,,,,With Brainslug Difficult 1 No Money,With Brainslug Difficult 1 No Money,left,1.1569,"[""With Brainslug Difficult 2 No Money"",""With Brainslug Difficult 2 With Money""]",0,0,0,4,1,,,,,,,,,,,,,,,,,,,,,,,,,,,,,,,,
,,,,,,,,,,,,67f41aadb805ee4c476ddb19,001,3,2025-04-15_11h39.59.073,avatar_quest_3AFC_legacy,2022.1.3,Win32,59.88023952,67f41aadb805ee4c476ddb19,67fe6e666cecbc9329ddf6d6,67fe701944b434c9ccee4417,,,,,,,,,,,,,,,,,,,,,,No Brainslug No Barriers No Money,0,images/assets/snowy_original.jpg,learning,10,images/assets/success.jpg,images/assets/gameover.jpg,,,,,,,,,,,,,0,1,1,10,1,,,,,,,,,,,,,,,,,,,,,,,,,,,,,,,,
,,,,,,,,,,,,67f41aadb805ee4c476ddb19,001,3,2025-04-15_11h39.59.073,avatar_quest_3AFC_legacy,2022.1.3,Win32,59.88023952,67f41aadb805ee4c476ddb19,67fe6e666cecbc9329ddf6d6,67fe701944b434c9ccee4417,,,,,,,,,,,,,,,,,,,,,,With Brainslug Difficult 2 With Money,12,images/assets/snowy_money.jpg,learning,20,images/assets/success_money.jpg,images/assets/gameover.jpg,,,,,,,,,,,,,0,2,2,2,1,,,,,,,,,,,,,,,,,,,,,,,,,,,,,,,,
,,,,,,,,,,,,67f41aadb805ee4c476ddb19,001,3,2025-04-15_11h39.59.073,avatar_quest_3AFC_legacy,2022.1.3,Win32,59.88023952,67f41aadb805ee4c476ddb19,67fe6e666cecbc9329ddf6d6,67fe701944b434c9ccee4417,,,,,,,,,,,,,,,,,,,,,,No Brainslug Difficult 1 No Money,6,images/assets/snowy_original.jpg,learning,20,images/assets/success.jpg,images/assets/gameover.jpg,,,,,,,,,,,,,0,3,3,6,1,,,,,,,,,,,,,,,,,,,,,,,,,,,,,,,,
,,,,,,,,,,,,67f41aadb805ee4c476ddb19,001,3,2025-04-15_11h39.59.073,avatar_quest_3AFC_legacy,2022.1.3,Win32,59.88023952,67f41aadb805ee4c476ddb19,67fe6e666cecbc9329ddf6d6,67fe701944b434c9ccee4417,"[""left"",""left"",""left"",""left"",""left"",""left"",""left"",""right"",""right"",""right"",""left"",""left"",""left"",""left"",""left"",""left"",""right"",""right"",""right"",""right"",""left"",""left"",""left"",""left""]","[0.4709999999999752,0.628100000023835,0.8249999999999886,1.0454999999999757,1.2613000000119143,1.5191000000238262,1.7826000000238196,2.206900000035745,2.4031000000238407,2.595499999999987,2.848700000047671,3.068800000011919,3.2409999999999854,3.4401000000238184,3.6116000000238273,3.8167000000476605,4.024600000023838,4.222300000011899,4.410600000023834,4.609999999999985,4.833900000035754,5.035600000023834,5.216700000047666,5.424600000023844]",,calibration,With Brainslug Difficult 1 No Money,10,8.14695,6.2671,12,2,0,TRUE,na,na,na,na,,,,,,,,,,,,,,,,,,,,,,,,,,,,,,,,,,0,0,0,0,1,,,,,,,,,,,,,,,,,,,,,,,
,,,,,,,,,,,,67f41aadb805ee4c476ddb19,001,3,2025-04-15_11h39.59.073,avatar_quest_3AFC_legacy,2022.1.3,Win32,59.88023952,67f41aadb805ee4c476ddb19,67fe6e666cecbc9329ddf6d6,67fe701944b434c9ccee4417,,,,,,,,,,,,,,,,,,,,,,With Brainslug Difficult 1 No Money,6,images/assets/snowy_original.jpg,learning,20,images/assets/success.jpg,images/assets/gameover.jpg,,,,,,,,,,,,,0,4,4,1,1,,,,,,,,,,,,,,,,,,,,,,,,,,,,,,,,
,,,,,,,,,,,,67f41aadb805ee4c476ddb19,001,3,2025-04-15_11h39.59.073,avatar_quest_3AFC_legacy,2022.1.3,Win32,59.88023952,67f41aadb805ee4c476ddb19,67fe6e666cecbc9329ddf6d6,67fe701944b434c9ccee4417,,,,,,,,,,,,,,,,,,,,,,No Brainslug Difficult 2 With Money,12,images/assets/snowy_money.jpg,learning,20,images/assets/success_money.jpg,images/assets/gameover.jpg,,,,,,,,,,,,,0,5,5,7,1,,,,,,,,,,,,,,,,,,,,,,,,,,,,,,,,
,,,,,,,,,,,,67f41aadb805ee4c476ddb19,001,3,2025-04-15_11h39.59.073,avatar_quest_3AFC_legacy,2022.1.3,Win32,59.88023952,67f41aadb805ee4c476ddb19,67fe6e666cecbc9329ddf6d6,67fe701944b434c9ccee4417,,,,,,,,,,,,,,,,,,,,,,With Brainslug Difficult 2 No Money,12,images/assets/snowy_original.jpg,learning,20,images/assets/success.jpg,images/assets/gameover.jpg,,,,,,,,,,,,,0,6,6,3,1,,,,,,,,,,,,,,,,,,,,,,,,,,,,,,,,
,,,,,,,,,,,,67f41aadb805ee4c476ddb19,001,3,2025-04-15_11h39.59.073,avatar_quest_3AFC_legacy,2022.1.3,Win32,59.88023952,67f41aadb805ee4c476ddb19,67fe6e666cecbc9329ddf6d6,67fe701944b434c9ccee4417,,,,,,,,,,,,,,,,,,,,,,With Brainslug Difficult 1 With Money,6,images/assets/snowy_money.jpg,learning,20,images/assets/success_money.jpg,images/assets/gameover.jpg,,,,,,,,,,,,,0,7,7,0,1,,,,,,,,,,,,,,,,,,,,,,,,,,,,,,,,
,,,,,,,,,,,,67f41aadb805ee4c476ddb19,001,3,2025-04-15_11h39.59.073,avatar_quest_3AFC_legacy,2022.1.3,Win32,59.88023952,67f41aadb805ee4c476ddb19,67fe6e666cecbc9329ddf6d6,67fe701944b434c9ccee4417,,,,,,,,,,,,,,,,,,,,,,No Brainslug No Barriers With Money,0,images/assets/snowy_money.jpg,learning,10,images/assets/success_money.jpg,images/assets/gameover.jpg,,,,,,,,,,,,,0,8,8,9,1,,,,,,,,,,,,,,,,,,,,,,,,,,,,,,,,
,,,,,,,,,,,,67f41aadb805ee4c476ddb19,001,3,2025-04-15_11h39.59.073,avatar_quest_3AFC_legacy,2022.1.3,Win32,59.88023952,67f41aadb805ee4c476ddb19,67fe6e666cecbc9329ddf6d6,67fe701944b434c9ccee4417,,,,,,,,,,,,,,,,,,,,,,With Brainslug No Barriers No Money,0,images/assets/snowy_original.jpg,learning,10,images/assets/success.jpg,images/assets/gameover.jpg,,,,,,,,,,,,,0,9,9,5,1,,,,,,,,,,,,,,,,,,,,,,,,,,,,,,,,
,,,,,,,,,,,,67f41aadb805ee4c476ddb19,001,3,2025-04-15_11h39.59.073,avatar_quest_3AFC_legacy,2022.1.3,Win32,59.88023952,67f41aadb805ee4c476ddb19,67fe6e666cecbc9329ddf6d6,67fe701944b434c9ccee4417,,,,,,,,,,,,,,,,,,,,,,No Brainslug Difficult 2 No Money,12,images/assets/snowy_original.jpg,learning,20,images/assets/success.jpg,images/assets/gameover.jpg,,,,,,,,,,,,,0,10,10,8,1,,,,,,,,,,,,,,,,,,,,,,,,,,,,,,,,
,,,,,,,,,,,,67f41aadb805ee4c476ddb19,001,3,2025-04-15_11h39.59.073,avatar_quest_3AFC_legacy,2022.1.3,Win32,59.88023952,67f41aadb805ee4c476ddb19,67fe6e666cecbc9329ddf6d6,67fe701944b434c9ccee4417,,,,,,,,,,,,,,,,,,,,,,,,,,,,,,,,,,,,,,,,,,,,,,,,,,,,,,,6,0,6,0,1,,,,,,,,,,,,,,,,,,
,,,,,,,,,,,,67f41aadb805ee4c476ddb19,001,3,2025-04-15_11h39.59.073,avatar_quest_3AFC_legacy,2022.1.3,Win32,59.88023952,67f41aadb805ee4c476ddb19,67fe6e666cecbc9329ddf6d6,67fe701944b434c9ccee4417,,,,,,,,,,,,,,,,,,,,,,With Brainslug Difficult 2 With Money,12,images/assets/snowy_money.jpg,learning,20,images/assets/success_money.jpg,images/assets/gameover.jpg,,,,,,,,With Brainslug Difficult 1 No Money,With Brainslug Difficult 1 No Money,left,0.4219,"[""With Brainslug Difficult 2 No Money"",""With Brainslug Difficult 2 With Money""]",0,0,0,2,1,,,,,,,,,,,,,,,,,,,,,,,,,,,,,,,,
,,,,,,,,,,,,67f41aadb805ee4c476ddb19,001,3,2025-04-15_11h39.59.073,avatar_quest_3AFC_legacy,2022.1.3,Win32,59.88023952,67f41aadb805ee4c476ddb19,67fe6e666cecbc9329ddf6d6,67fe701944b434c9ccee4417,,,,,,,,,,,,,,,,,,,,,,No Brainslug No Barriers With Money,0,images/assets/snowy_money.jpg,learning,10,images/assets/success_money.jpg,images/assets/gameover.jpg,,,,,,,,,,,,,0,1,1,9,1,,,,,,,,,,,,,,,,,,,,,,,,,,,,,,,,
,,,,,,,,,,,,67f41aadb805ee4c476ddb19,001,3,2025-04-15_11h39.59.073,avatar_quest_3AFC_legacy,2022.1.3,Win32,59.88023952,67f41aadb805ee4c476ddb19,67fe6e666cecbc9329ddf6d6,67fe701944b434c9ccee4417,,,,,,,,,,,,,,,,,,,,,,No Brainslug Difficult 1 No Money,6,images/assets/snowy_original.jpg,learning,20,images/assets/success.jpg,images/assets/gameover.jpg,,,,,,,,,,,,,0,2,2,6,1,,,,,,,,,,,,,,,,,,,,,,,,,,,,,,,,
,,,,,,,,,,,,67f41aadb805ee4c476ddb19,001,3,2025-04-15_11h39.59.073,avatar_quest_3AFC_legacy,2022.1.3,Win32,59.88023952,67f41aadb805ee4c476ddb19,67fe6e666cecbc9329ddf6d6,67fe701944b434c9ccee4417,,,,,,,,,,,,,,,,,,,,,,No Brainslug No Barriers No Money,0,images/assets/snowy_original.jpg,learning,10,images/assets/success.jpg,images/assets/gameover.jpg,,,,,,,,,,,,,0,3,3,10,1,,,,,,,,,,,,,,,,,,,,,,,,,,,,,,,,
,,,,,,,,,,,,67f41aadb805ee4c476ddb19,001,3,2025-04-15_11h39.59.073,avatar_quest_3AFC_legacy,2022.1.3,Win32,59.88023952,67f41aadb805ee4c476ddb19,67fe6e666cecbc9329ddf6d6,67fe701944b434c9ccee4417,"[""left"",""left"",""right"",""right"",""right"",""left"",""left"",""left"",""left"",""left"",""left"",""left"",""left"",""right"",""right"",""right"",""right"",""left"",""left"",""left"",""left""]","[0.34050000000002,0.512500000000017,1.5402000000476903,1.8061000000238607,2.027200000047685,2.223900000035769,2.41930000001193,2.598400000035781,2.8060000000000116,2.9497000000476987,3.1826000000238537,3.3924000000357637,3.609000000000009,3.890500000000003,4.087300000011936,4.270499999999998,4.452400000035766,4.699200000047682,4.920100000023837,5.074200000047682,5.254800000011926]",,calibration,With Brainslug Difficult 1 No Money,11,8.14695,6.0492,11,1,0,TRUE,na,na,na,na,,,,,,,,,,,,,,,,,,,,,,,,,,,,,,,,,,0,0,0,0,1,,,,,,,,,,,,,,,,,,,,,,,
,,,,,,,,,,,,67f41aadb805ee4c476ddb19,001,3,2025-04-15_11h39.59.073,avatar_quest_3AFC_legacy,2022.1.3,Win32,59.88023952,67f41aadb805ee4c476ddb19,67fe6e666cecbc9329ddf6d6,67fe701944b434c9ccee4417,,,,,,,,,,,,,,,,,,,,,,With Brainslug Difficult 1 No Money,6,images/assets/snowy_original.jpg,learning,20,images/assets/success.jpg,images/assets/gameover.jpg,,,,,,,,,,,,,0,4,4,1,1,,,,,,,,,,,,,,,,,,,,,,,,,,,,,,,,
,,,,,,,,,,,,67f41aadb805ee4c476ddb19,001,3,2025-04-15_11h39.59.073,avatar_quest_3AFC_legacy,2022.1.3,Win32,59.88023952,67f41aadb805ee4c476ddb19,67fe6e666cecbc9329ddf6d6,67fe701944b434c9ccee4417,,,,,,,,,,,,,,,,,,,,,,No Brainslug Difficult 2 No Money,12,images/assets/snowy_original.jpg,learning,20,images/assets/success.jpg,images/assets/gameover.jpg,,,,,,,,,,,,,0,5,5,8,1,,,,,,,,,,,,,,,,,,,,,,,,,,,,,,,,
,,,,,,,,,,,,67f41aadb805ee4c476ddb19,001,3,2025-04-15_11h39.59.073,avatar_quest_3AFC_legacy,2022.1.3,Win32,59.88023952,67f41aadb805ee4c476ddb19,67fe6e666cecbc9329ddf6d6,67fe701944b434c9ccee4417,,,,,,,,,,,,,,,,,,,,,,With Brainslug No Barriers With Money,0,images/assets/snowy_money.jpg,learning,10,images/assets/success_money.jpg,images/assets/gameover.jpg,,,,,,,,,,,,,0,6,6,4,1,,,,,,,,,,,,,,,,,,,,,,,,,,,,,,,,
,,,,,,,,,,,,67f41aadb805ee4c476ddb19,001,3,2025-04-15_11h39.59.073,avatar_quest_3AFC_legacy,2022.1.3,Win32,59.88023952,67f41aadb805ee4c476ddb19,67fe6e666cecbc9329ddf6d6,67fe701944b434c9ccee4417,,,,,,,,,,,,,,,,,,,,,,With Brainslug Difficult 1 With Money,6,images/assets/snowy_money.jpg,learning,20,images/assets/success_money.jpg,images/assets/gameover.jpg,,,,,,,,,,,,,0,7,7,0,1,,,,,,,,,,,,,,,,,,,,,,,,,,,,,,,,
,,,,,,,,,,,,67f41aadb805ee4c476ddb19,001,3,2025-04-15_11h39.59.073,avatar_quest_3AFC_legacy,2022.1.3,Win32,59.88023952,67f41aadb805ee4c476ddb19,67fe6e666cecbc9329ddf6d6,67fe701944b434c9ccee4417,,,,,,,,,,,,,,,,,,,,,,With Brainslug No Barriers No Money,0,images/assets/snowy_original.jpg,learning,10,images/assets/success.jpg,images/assets/gameover.jpg,,,,,,,,,,,,,0,8,8,5,1,,,,,,,,,,,,,,,,,,,,,,,,,,,,,,,,
,,,,,,,,,,,,67f41aadb805ee4c476ddb19,001,3,2025-04-15_11h39.59.073,avatar_quest_3AFC_legacy,2022.1.3,Win32,59.88023952,67f41aadb805ee4c476ddb19,67fe6e666cecbc9329ddf6d6,67fe701944b434c9ccee4417,,,,,,,,,,,,,,,,,,,,,,No Brainslug Difficult 2 With Money,12,images/assets/snowy_money.jpg,learning,20,images/assets/success_money.jpg,images/assets/gameover.jpg,,,,,,,,,,,,,0,9,9,7,1,,,,,,,,,,,,,,,,,,,,,,,,,,,,,,,,
,,,,,,,,,,,,67f41aadb805ee4c476ddb19,001,3,2025-04-15_11h39.59.073,avatar_quest_3AFC_legacy,2022.1.3,Win32,59.88023952,67f41aadb805ee4c476ddb19,67fe6e666cecbc9329ddf6d6,67fe701944b434c9ccee4417,,,,,,,,,,,,,,,,,,,,,,With Brainslug Difficult 2 No Money,12,images/assets/snowy_original.jpg,learning,20,images/assets/success.jpg,images/assets/gameover.jpg,,,,,,,,,,,,,0,10,10,3,1,,,,,,,,,,,,,,,,,,,,,,,,,,,,,,,,
,,,,,,,,,,,,67f41aadb805ee4c476ddb19,001,3,2025-04-15_11h39.59.073,avatar_quest_3AFC_legacy,2022.1.3,Win32,59.88023952,67f41aadb805ee4c476ddb19,67fe6e666cecbc9329ddf6d6,67fe701944b434c9ccee4417,,,,,,,,,,,,,,,,,,,,,,,,,,,,,,,,,,,,,,,,,,,,,,,,,,,,,,,7,0,7,0,1,,,,,,,,,,,,,,,,,,
,,,,,,,,,,,,67f41aadb805ee4c476ddb19,001,3,2025-04-15_11h39.59.073,avatar_quest_3AFC_legacy,2022.1.3,Win32,59.88023952,67f41aadb805ee4c476ddb19,67fe6e666cecbc9329ddf6d6,67fe701944b434c9ccee4417,,,,,,,,,,,,,,,,,,,,,,With Brainslug Difficult 2 With Money,12,images/assets/snowy_money.jpg,learning,20,images/assets/success_money.jpg,images/assets/gameover.jpg,,,,,,,,With Brainslug Difficult 1 No Money,With Brainslug Difficult 1 No Money,left,0.7316,"[""With Brainslug Difficult 2 No Money"",""With Brainslug Difficult 2 With Money""]",0,0,0,2,1,,,,,,,,,,,,,,,,,,,,,,,,,,,,,,,,
,,,,,,,,,,,,67f41aadb805ee4c476ddb19,001,3,2025-04-15_11h39.59.073,avatar_quest_3AFC_legacy,2022.1.3,Win32,59.88023952,67f41aadb805ee4c476ddb19,67fe6e666cecbc9329ddf6d6,67fe701944b434c9ccee4417,,,,,,,,,,,,,,,,,,,,,,With Brainslug No Barriers With Money,0,images/assets/snowy_money.jpg,learning,10,images/assets/success_money.jpg,images/assets/gameover.jpg,,,,,,,,,,,,,0,1,1,4,1,,,,,,,,,,,,,,,,,,,,,,,,,,,,,,,,
,,,,,,,,,,,,67f41aadb805ee4c476ddb19,001,3,2025-04-15_11h39.59.073,avatar_quest_3AFC_legacy,2022.1.3,Win32,59.88023952,67f41aadb805ee4c476ddb19,67fe6e666cecbc9329ddf6d6,67fe701944b434c9ccee4417,,,,,,,,,,,,,,,,,,,,,,No Brainslug Difficult 2 With Money,12,images/assets/snowy_money.jpg,learning,20,images/assets/success_money.jpg,images/assets/gameover.jpg,,,,,,,,,,,,,0,2,2,7,1,,,,,,,,,,,,,,,,,,,,,,,,,,,,,,,,
,,,,,,,,,,,,67f41aadb805ee4c476ddb19,001,3,2025-04-15_11h39.59.073,avatar_quest_3AFC_legacy,2022.1.3,Win32,59.88023952,67f41aadb805ee4c476ddb19,67fe6e666cecbc9329ddf6d6,67fe701944b434c9ccee4417,"[""left"",""left"",""right"",""right"",""right"",""right"",""right"",""right"",""right"",""right"",""right"",""right"",""left"",""left"",""left"",""left"",""right"",""right"",""right"",""right"",""left"",""left"",""left"",""left""]","[0.3766999999880909,0.5635999999642536,1.243199999988093,1.4628999999761731,1.7005000000000052,1.9032999999523383,2.1052999999523365,2.344899999976178,2.5985000000000014,2.8722999999523324,3.121799999952316,3.3697999999523347,3.6580000000000155,3.865099999964258,4.049499999999995,4.214799999952334,4.591000000000008,4.838399999976161,5.045099999964236,5.261599999964233,5.686000000000007,5.93539999997617,6.131299999952319,6.338199999988092]",,calibration,With Brainslug Difficult 1 No Money,12,8.14695,6.8844,9,3,0,TRUE,na,na,na,na,,,,,,,,,,,,,,,,,,,,,,,,,,,,,,,,,,0,0,0,0,1,,,,,,,,,,,,,,,,,,,,,,,
,,,,,,,,,,,,67f41aadb805ee4c476ddb19,001,3,2025-04-15_11h39.59.073,avatar_quest_3AFC_legacy,2022.1.3,Win32,59.88023952,67f41aadb805ee4c476ddb19,67fe6e666cecbc9329ddf6d6,67fe701944b434c9ccee4417,,,,,,,,,,,,,,,,,,,,,,With Brainslug Difficult 1 No Money,6,images/assets/snowy_original.jpg,learning,20,images/assets/success.jpg,images/assets/gameover.jpg,,,,,,,,,,,,,0,3,3,1,1,,,,,,,,,,,,,,,,,,,,,,,,,,,,,,,,
,,,,,,,,,,,,67f41aadb805ee4c476ddb19,001,3,2025-04-15_11h39.59.073,avatar_quest_3AFC_legacy,2022.1.3,Win32,59.88023952,67f41aadb805ee4c476ddb19,67fe6e666cecbc9329ddf6d6,67fe701944b434c9ccee4417,,,,,,,,,,,,,,,,,,,,,,No Brainslug Difficult 2 No Money,12,images/assets/snowy_original.jpg,learning,20,images/assets/success.jpg,images/assets/gameover.jpg,,,,,,,,,,,,,0,4,4,8,1,,,,,,,,,,,,,,,,,,,,,,,,,,,,,,,,
,,,,,,,,,,,,67f41aadb805ee4c476ddb19,001,3,2025-04-15_11h39.59.073,avatar_quest_3AFC_legacy,2022.1.3,Win32,59.88023952,67f41aadb805ee4c476ddb19,67fe6e666cecbc9329ddf6d6,67fe701944b434c9ccee4417,,,,,,,,,,,,,,,,,,,,,,With Brainslug Difficult 1 With Money,6,images/assets/snowy_money.jpg,learning,20,images/assets/success_money.jpg,images/assets/gameover.jpg,,,,,,,,,,,,,0,5,5,0,1,,,,,,,,,,,,,,,,,,,,,,,,,,,,,,,,
,,,,,,,,,,,,67f41aadb805ee4c476ddb19,001,3,2025-04-15_11h39.59.073,avatar_quest_3AFC_legacy,2022.1.3,Win32,59.88023952,67f41aadb805ee4c476ddb19,67fe6e666cecbc9329ddf6d6,67fe701944b434c9ccee4417,,,,,,,,,,,,,,,,,,,,,,With Brainslug No Barriers No Money,0,images/assets/snowy_original.jpg,learning,10,images/assets/success.jpg,images/assets/gameover.jpg,,,,,,,,,,,,,0,6,6,5,1,,,,,,,,,,,,,,,,,,,,,,,,,,,,,,,,
,,,,,,,,,,,,67f41aadb805ee4c476ddb19,001,3,2025-04-15_11h39.59.073,avatar_quest_3AFC_legacy,2022.1.3,Win32,59.88023952,67f41aadb805ee4c476ddb19,67fe6e666cecbc9329ddf6d6,67fe701944b434c9ccee4417,,,,,,,,,,,,,,,,,,,,,,No Brainslug No Barriers No Money,0,images/assets/snowy_original.jpg,learning,10,images/assets/success.jpg,images/assets/gameover.jpg,,,,,,,,,,,,,0,7,7,10,1,,,,,,,,,,,,,,,,,,,,,,,,,,,,,,,,
,,,,,,,,,,,,67f41aadb805ee4c476ddb19,001,3,2025-04-15_11h39.59.073,avatar_quest_3AFC_legacy,2022.1.3,Win32,59.88023952,67f41aadb805ee4c476ddb19,67fe6e666cecbc9329ddf6d6,67fe701944b434c9ccee4417,,,,,,,,,,,,,,,,,,,,,,No Brainslug No Barriers With Money,0,images/assets/snowy_money.jpg,learning,10,images/assets/success_money.jpg,images/assets/gameover.jpg,,,,,,,,,,,,,0,8,8,9,1,,,,,,,,,,,,,,,,,,,,,,,,,,,,,,,,
,,,,,,,,,,,,67f41aadb805ee4c476ddb19,001,3,2025-04-15_11h39.59.073,avatar_quest_3AFC_legacy,2022.1.3,Win32,59.88023952,67f41aadb805ee4c476ddb19,67fe6e666cecbc9329ddf6d6,67fe701944b434c9ccee4417,,,,,,,,,,,,,,,,,,,,,,No Brainslug Difficult 1 No Money,6,images/assets/snowy_original.jpg,learning,20,images/assets/success.jpg,images/assets/gameover.jpg,,,,,,,,,,,,,0,9,9,6,1,,,,,,,,,,,,,,,,,,,,,,,,,,,,,,,,
,,,,,,,,,,,,67f41aadb805ee4c476ddb19,001,3,2025-04-15_11h39.59.073,avatar_quest_3AFC_legacy,2022.1.3,Win32,59.88023952,67f41aadb805ee4c476ddb19,67fe6e666cecbc9329ddf6d6,67fe701944b434c9ccee4417,,,,,,,,,,,,,,,,,,,,,,With Brainslug Difficult 2 No Money,12,images/assets/snowy_original.jpg,learning,20,images/assets/success.jpg,images/assets/gameover.jpg,,,,,,,,,,,,,0,10,10,3,1,,,,,,,,,,,,,,,,,,,,,,,,,,,,,,,,
,,,,,,,,,,,,67f41aadb805ee4c476ddb19,001,3,2025-04-15_11h39.59.073,avatar_quest_3AFC_legacy,2022.1.3,Win32,59.88023952,67f41aadb805ee4c476ddb19,67fe6e666cecbc9329ddf6d6,67fe701944b434c9ccee4417,,,,,,,,,,,,,,,,,,,,,,,,,,,,,,,,,,,,,,,,,,,,,,,,,,,,,,,8,0,8,0,1,,,,,,,,,,,,,,,,,,
,,,,,,,,,,,,67f41aadb805ee4c476ddb19,001,3,2025-04-15_11h39.59.073,avatar_quest_3AFC_legacy,2022.1.3,Win32,59.88023952,67f41aadb805ee4c476ddb19,67fe6e666cecbc9329ddf6d6,67fe701944b434c9ccee4417,,,,,,,,,,,,,,,,,,,,,,No Brainslug Difficult 2 With Money,12,images/assets/snowy_money.jpg,learning,20,images/assets/success_money.jpg,images/assets/gameover.jpg,,,,,,,,With Brainslug Difficult 1 No Money,With Brainslug Difficult 1 No Money,left,0.4991,"[""With Brainslug Difficult 2 No Money"",""With Brainslug Difficult 2 With Money""]",0,0,0,7,1,,,,,,,,,,,,,,,,,,,,,,,,,,,,,,,,
,,,,,,,,,,,,67f41aadb805ee4c476ddb19,001,3,2025-04-15_11h39.59.073,avatar_quest_3AFC_legacy,2022.1.3,Win32,59.88023952,67f41aadb805ee4c476ddb19,67fe6e666cecbc9329ddf6d6,67fe701944b434c9ccee4417,,,,,,,,,,,,,,,,,,,,,,With Brainslug Difficult 2 No Money,12,images/assets/snowy_original.jpg,learning,20,images/assets/success.jpg,images/assets/gameover.jpg,,,,,,,,,,,,,0,1,1,3,1,,,,,,,,,,,,,,,,,,,,,,,,,,,,,,,,
,,,,,,,,,,,,67f41aadb805ee4c476ddb19,001,3,2025-04-15_11h39.59.073,avatar_quest_3AFC_legacy,2022.1.3,Win32,59.88023952,67f41aadb805ee4c476ddb19,67fe6e666cecbc9329ddf6d6,67fe701944b434c9ccee4417,,,,,,,,,,,,,,,,,,,,,,With Brainslug No Barriers With Money,0,images/assets/snowy_money.jpg,learning,10,images/assets/success_money.jpg,images/assets/gameover.jpg,,,,,,,,,,,,,0,2,2,4,1,,,,,,,,,,,,,,,,,,,,,,,,,,,,,,,,
,,,,,,,,,,,,67f41aadb805ee4c476ddb19,001,3,2025-04-15_11h39.59.073,avatar_quest_3AFC_legacy,2022.1.3,Win32,59.88023952,67f41aadb805ee4c476ddb19,67fe6e666cecbc9329ddf6d6,67fe701944b434c9ccee4417,,,,,,,,,,,,,,,,,,,,,,With Brainslug Difficult 1 With Money,6,images/assets/snowy_money.jpg,learning,20,images/assets/success_money.jpg,images/assets/gameover.jpg,,,,,,,,,,,,,0,3,3,0,1,,,,,,,,,,,,,,,,,,,,,,,,,,,,,,,,
,,,,,,,,,,,,67f41aadb805ee4c476ddb19,001,3,2025-04-15_11h39.59.073,avatar_quest_3AFC_legacy,2022.1.3,Win32,59.88023952,67f41aadb805ee4c476ddb19,67fe6e666cecbc9329ddf6d6,67fe701944b434c9ccee4417,,,,,,,,,,,,,,,,,,,,,,No Brainslug Difficult 2 No Money,12,images/assets/snowy_original.jpg,learning,20,images/assets/success.jpg,images/assets/gameover.jpg,,,,,,,,,,,,,0,4,4,8,1,,,,,,,,,,,,,,,,,,,,,,,,,,,,,,,,
,,,,,,,,,,,,67f41aadb805ee4c476ddb19,001,3,2025-04-15_11h39.59.073,avatar_quest_3AFC_legacy,2022.1.3,Win32,59.88023952,67f41aadb805ee4c476ddb19,67fe6e666cecbc9329ddf6d6,67fe701944b434c9ccee4417,"[""left"",""left"",""left"",""left"",""right"",""right"",""right"",""right"",""right"",""right"",""left"",""left"",""left"",""right"",""right"",""right"",""right"",""left"",""left"",""left"",""left"",""left"",""right"",""right"",""right"",""right"",""right"",""left"",""left"",""left"",""left""]","[0.41139999997616883,0.6049999999999898,0.847899999976164,1.0577999999523229,1.3267999999523283,1.5655999999642347,1.7492999999523136,1.971299999952322,2.182699999988074,2.492599999964227,2.9840999999642293,3.184899999976153,3.382699999988091,3.6835999999642297,3.902699999988073,4.100999999999999,4.3720999999642345,4.629599999964228,4.841599999964245,5.031399999976145,5.250499999999988,5.479699999988071,5.7781999999880895,5.98369999998809,6.16529999995231,6.374500000000012,6.593199999988087,6.836999999999989,7.051799999952323,7.252499999999998,7.4275999999642295]",,calibration,With Brainslug Difficult 1 No Money,13,8.14695,8.0846,14,4,0,TRUE,na,na,na,na,,,,,,,,,,,,,,,,,,,,,,,,,,,,,,,,,,0,0,0,0,1,,,,,,,,,,,,,,,,,,,,,,,
,,,,,,,,,,,,67f41aadb805ee4c476ddb19,001,3,2025-04-15_11h39.59.073,avatar_quest_3AFC_legacy,2022.1.3,Win32,59.88023952,67f41aadb805ee4c476ddb19,67fe6e666cecbc9329ddf6d6,67fe701944b434c9ccee4417,,,,,,,,,,,,,,,,,,,,,,With Brainslug Difficult 1 No Money,6,images/assets/snowy_original.jpg,learning,20,images/assets/success.jpg,images/assets/gameover.jpg,,,,,,,,,,,,,0,5,5,1,1,,,,,,,,,,,,,,,,,,,,,,,,,,,,,,,,
,,,,,,,,,,,,67f41aadb805ee4c476ddb19,001,3,2025-04-15_11h39.59.073,avatar_quest_3AFC_legacy,2022.1.3,Win32,59.88023952,67f41aadb805ee4c476ddb19,67fe6e666cecbc9329ddf6d6,67fe701944b434c9ccee4417,,,,,,,,,,,,,,,,,,,,,,With Brainslug No Barriers No Money,0,images/assets/snowy_original.jpg,learning,10,images/assets/success.jpg,images/assets/gameover.jpg,,,,,,,,,,,,,0,6,6,5,1,,,,,,,,,,,,,,,,,,,,,,,,,,,,,,,,
,,,,,,,,,,,,67f41aadb805ee4c476ddb19,001,3,2025-04-15_11h39.59.073,avatar_quest_3AFC_legacy,2022.1.3,Win32,59.88023952,67f41aadb805ee4c476ddb19,67fe6e666cecbc9329ddf6d6,67fe701944b434c9ccee4417,,,,,,,,,,,,,,,,,,,,,,With Brainslug Difficult 2 With Money,12,images/assets/snowy_money.jpg,learning,20,images/assets/success_money.jpg,images/assets/gameover.jpg,,,,,,,,,,,,,0,7,7,2,1,,,,,,,,,,,,,,,,,,,,,,,,,,,,,,,,
,,,,,,,,,,,,67f41aadb805ee4c476ddb19,001,3,2025-04-15_11h39.59.073,avatar_quest_3AFC_legacy,2022.1.3,Win32,59.88023952,67f41aadb805ee4c476ddb19,67fe6e666cecbc9329ddf6d6,67fe701944b434c9ccee4417,,,,,,,,,,,,,,,,,,,,,,No Brainslug No Barriers No Money,0,images/assets/snowy_original.jpg,learning,10,images/assets/success.jpg,images/assets/gameover.jpg,,,,,,,,,,,,,0,8,8,10,1,,,,,,,,,,,,,,,,,,,,,,,,,,,,,,,,
,,,,,,,,,,,,67f41aadb805ee4c476ddb19,001,3,2025-04-15_11h39.59.073,avatar_quest_3AFC_legacy,2022.1.3,Win32,59.88023952,67f41aadb805ee4c476ddb19,67fe6e666cecbc9329ddf6d6,67fe701944b434c9ccee4417,,,,,,,,,,,,,,,,,,,,,,No Brainslug Difficult 1 No Money,6,images/assets/snowy_original.jpg,learning,20,images/assets/success.jpg,images/assets/gameover.jpg,,,,,,,,,,,,,0,9,9,6,1,,,,,,,,,,,,,,,,,,,,,,,,,,,,,,,,
,,,,,,,,,,,,67f41aadb805ee4c476ddb19,001,3,2025-04-15_11h39.59.073,avatar_quest_3AFC_legacy,2022.1.3,Win32,59.88023952,67f41aadb805ee4c476ddb19,67fe6e666cecbc9329ddf6d6,67fe701944b434c9ccee4417,,,,,,,,,,,,,,,,,,,,,,No Brainslug No Barriers With Money,0,images/assets/snowy_money.jpg,learning,10,images/assets/success_money.jpg,images/assets/gameover.jpg,,,,,,,,,,,,,0,10,10,9,1,,,,,,,,,,,,,,,,,,,,,,,,,,,,,,,,
,,,,,,,,,,,,67f41aadb805ee4c476ddb19,001,3,2025-04-15_11h39.59.073,avatar_quest_3AFC_legacy,2022.1.3,Win32,59.88023952,67f41aadb805ee4c476ddb19,67fe6e666cecbc9329ddf6d6,67fe701944b434c9ccee4417,,,,,,,,,,,,,,,,,,,,,,,,,,,,,,,,,,,,,,,,,,,,,,,,,,,,,,,9,0,9,0,1,,,,,,,,,,,,,,,,,,
,,,,,,,,,,,,67f41aadb805ee4c476ddb19,001,3,2025-04-15_11h39.59.073,avatar_quest_3AFC_legacy,2022.1.3,Win32,59.88023952,67f41aadb805ee4c476ddb19,67fe6e666cecbc9329ddf6d6,67fe701944b434c9ccee4417,,,,,,,,,,,,,,,,,,,,,,With Brainslug No Barriers With Money,0,images/assets/snowy_money.jpg,learning,10,images/assets/success_money.jpg,images/assets/gameover.jpg,,,,,,,,With Brainslug Difficult 1 No Money,With Brainslug Difficult 1 No Money,left,0.5856,"[""With Brainslug Difficult 2 No Money"",""With Brainslug Difficult 2 With Money""]",0,0,0,4,1,,,,,,,,,,,,,,,,,,,,,,,,,,,,,,,,
,,,,,,,,,,,,67f41aadb805ee4c476ddb19,001,3,2025-04-15_11h39.59.073,avatar_quest_3AFC_legacy,2022.1.3,Win32,59.88023952,67f41aadb805ee4c476ddb19,67fe6e666cecbc9329ddf6d6,67fe701944b434c9ccee4417,,,,,,,,,,,,,,,,,,,,,,No Brainslug Difficult 1 No Money,6,images/assets/snowy_original.jpg,learning,20,images/assets/success.jpg,images/assets/gameover.jpg,,,,,,,,,,,,,0,1,1,6,1,,,,,,,,,,,,,,,,,,,,,,,,,,,,,,,,
,,,,,,,,,,,,67f41aadb805ee4c476ddb19,001,3,2025-04-15_11h39.59.073,avatar_quest_3AFC_legacy,2022.1.3,Win32,59.88023952,67f41aadb805ee4c476ddb19,67fe6e666cecbc9329ddf6d6,67fe701944b434c9ccee4417,,,,,,,,,,,,,,,,,,,,,,No Brainslug No Barriers With Money,0,images/assets/snowy_money.jpg,learning,10,images/assets/success_money.jpg,images/assets/gameover.jpg,,,,,,,,,,,,,0,2,2,9,1,,,,,,,,,,,,,,,,,,,,,,,,,,,,,,,,
,,,,,,,,,,,,67f41aadb805ee4c476ddb19,001,3,2025-04-15_11h39.59.073,avatar_quest_3AFC_legacy,2022.1.3,Win32,59.88023952,67f41aadb805ee4c476ddb19,67fe6e666cecbc9329ddf6d6,67fe701944b434c9ccee4417,,,,,,,,,,,,,,,,,,,,,,No Brainslug Difficult 2 With Money,12,images/assets/snowy_money.jpg,learning,20,images/assets/success_money.jpg,images/assets/gameover.jpg,,,,,,,,,,,,,0,3,3,7,1,,,,,,,,,,,,,,,,,,,,,,,,,,,,,,,,
,,,,,,,,,,,,67f41aadb805ee4c476ddb19,001,3,2025-04-15_11h39.59.073,avatar_quest_3AFC_legacy,2022.1.3,Win32,59.88023952,67f41aadb805ee4c476ddb19,67fe6e666cecbc9329ddf6d6,67fe701944b434c9ccee4417,,,,,,,,,,,,,,,,,,,,,,With Brainslug Difficult 2 No Money,12,images/assets/snowy_original.jpg,learning,20,images/assets/success.jpg,images/assets/gameover.jpg,,,,,,,,,,,,,0,4,4,3,1,,,,,,,,,,,,,,,,,,,,,,,,,,,,,,,,
,,,,,,,,,,,,67f41aadb805ee4c476ddb19,001,3,2025-04-15_11h39.59.073,avatar_quest_3AFC_legacy,2022.1.3,Win32,59.88023952,67f41aadb805ee4c476ddb19,67fe6e666cecbc9329ddf6d6,67fe701944b434c9ccee4417,,,,,,,,,,,,,,,,,,,,,,With Brainslug No Barriers No Money,0,images/assets/snowy_original.jpg,learning,10,images/assets/success.jpg,images/assets/gameover.jpg,,,,,,,,,,,,,0,5,5,5,1,,,,,,,,,,,,,,,,,,,,,,,,,,,,,,,,
,,,,,,,,,,,,67f41aadb805ee4c476ddb19,001,3,2025-04-15_11h39.59.073,avatar_quest_3AFC_legacy,2022.1.3,Win32,59.88023952,67f41aadb805ee4c476ddb19,67fe6e666cecbc9329ddf6d6,67fe701944b434c9ccee4417,,,,,,,,,,,,,,,,,,,,,,No Brainslug Difficult 2 No Money,12,images/assets/snowy_original.jpg,learning,20,images/assets/success.jpg,images/assets/gameover.jpg,,,,,,,,,,,,,0,6,6,8,1,,,,,,,,,,,,,,,,,,,,,,,,,,,,,,,,
,,,,,,,,,,,,67f41aadb805ee4c476ddb19,001,3,2025-04-15_11h39.59.073,avatar_quest_3AFC_legacy,2022.1.3,Win32,59.88023952,67f41aadb805ee4c476ddb19,67fe6e666cecbc9329ddf6d6,67fe701944b434c9ccee4417,,,,,,,,,,,,,,,,,,,,,,No Brainslug No Barriers No Money,0,images/assets/snowy_original.jpg,learning,10,images/assets/success.jpg,images/assets/gameover.jpg,,,,,,,,,,,,,0,7,7,10,1,,,,,,,,,,,,,,,,,,,,,,,,,,,,,,,,
,,,,,,,,,,,,67f41aadb805ee4c476ddb19,001,3,2025-04-15_11h39.59.073,avatar_quest_3AFC_legacy,2022.1.3,Win32,59.88023952,67f41aadb805ee4c476ddb19,67fe6e666cecbc9329ddf6d6,67fe701944b434c9ccee4417,,,,,,,,,,,,,,,,,,,,,,With Brainslug Difficult 1 With Money,6,images/assets/snowy_money.jpg,learning,20,images/assets/success_money.jpg,images/assets/gameover.jpg,,,,,,,,,,,,,0,8,8,0,1,,,,,,,,,,,,,,,,,,,,,,,,,,,,,,,,
,,,,,,,,,,,,67f41aadb805ee4c476ddb19,001,3,2025-04-15_11h39.59.073,avatar_quest_3AFC_legacy,2022.1.3,Win32,59.88023952,67f41aadb805ee4c476ddb19,67fe6e666cecbc9329ddf6d6,67fe701944b434c9ccee4417,"[""left"",""left"",""right"",""right"",""left"",""left"",""left"",""right"",""right"",""left"",""left"",""left"",""left"",""left"",""left"",""left"",""left"",""left""]","[0.4025000000000034,0.5851000000238287,1.6859999999999786,1.953000000000003,2.2021999999880677,2.394199999988075,2.5988999999761404,3.4856999999880713,3.7218000000119105,4.060899999976158,4.253800000011921,4.431800000011918,4.619899999976155,4.823699999988065,4.999699999988081,5.30469999998806,5.491800000011921,5.6898000000119]",,calibration,With Brainslug Difficult 1 No Money,14,8.14695,6.2949,11,1,0,TRUE,na,na,na,na,,,,,,,,,,,,,,,,,,,,,,,,,,,,,,,,,,0,0,0,0,1,,,,,,,,,,,,,,,,,,,,,,,
,,,,,,,,,,,,67f41aadb805ee4c476ddb19,001,3,2025-04-15_11h39.59.073,avatar_quest_3AFC_legacy,2022.1.3,Win32,59.88023952,67f41aadb805ee4c476ddb19,67fe6e666cecbc9329ddf6d6,67fe701944b434c9ccee4417,,,,,,,,,,,,,,,,,,,,,,With Brainslug Difficult 1 No Money,6,images/assets/snowy_original.jpg,learning,20,images/assets/success.jpg,images/assets/gameover.jpg,,,,,,,,,,,,,0,9,9,1,1,,,,,,,,,,,,,,,,,,,,,,,,,,,,,,,,
,,,,,,,,,,,,67f41aadb805ee4c476ddb19,001,3,2025-04-15_11h39.59.073,avatar_quest_3AFC_legacy,2022.1.3,Win32,59.88023952,67f41aadb805ee4c476ddb19,67fe6e666cecbc9329ddf6d6,67fe701944b434c9ccee4417,,,,,,,,,,,,,,,,,,,,,,With Brainslug Difficult 2 With Money,12,images/assets/snowy_money.jpg,learning,20,images/assets/success_money.jpg,images/assets/gameover.jpg,,,,,,,,,,,,,0,10,10,2,1,,,,,,,,,,,,,,,,,,,,,,,,,,,,,,,,
,,,,,,,,,,,,67f41aadb805ee4c476ddb19,001,3,2025-04-15_11h39.59.073,avatar_quest_3AFC_legacy,2022.1.3,Win32,59.88023952,67f41aadb805ee4c476ddb19,67fe6e666cecbc9329ddf6d6,67fe701944b434c9ccee4417,,,,,,,,,,,,,,,,,,,,,,,,,,,,,,,,,,,,,,,,,,,,,,,,,,,,,,,10,0,10,0,1,,,,,,,,,,,,,,,,,,
,,,,,,,,,,,,67f41aadb805ee4c476ddb19,001,3,2025-04-15_11h39.59.073,avatar_quest_3AFC_legacy,2022.1.3,Win32,59.88023952,67f41aadb805ee4c476ddb19,67fe6e666cecbc9329ddf6d6,67fe701944b434c9ccee4417,,,,,,,,,,,,,,,,,,,,,,With Brainslug Difficult 2 No Money,12,images/assets/snowy_original.jpg,learning,20,images/assets/success.jpg,images/assets/gameover.jpg,,,,,,,,With Brainslug Difficult 2 With Money,With Brainslug Difficult 1 No Money,right,1.5166,"[""With Brainslug Difficult 1 No Money"",""With Brainslug Difficult 2 No Money""]",0,0,0,3,1,,,,,,,,,,,,,,,,,,,,,,,,,,,,,,,,
,,,,,,,,,,,,67f41aadb805ee4c476ddb19,001,3,2025-04-15_11h39.59.073,avatar_quest_3AFC_legacy,2022.1.3,Win32,59.88023952,67f41aadb805ee4c476ddb19,67fe6e666cecbc9329ddf6d6,67fe701944b434c9ccee4417,,,,,,,,,,,,,,,,,,,,,,No Brainslug Difficult 1 No Money,6,images/assets/snowy_original.jpg,learning,20,images/assets/success.jpg,images/assets/gameover.jpg,,,,,,,,,,,,,0,1,1,6,1,,,,,,,,,,,,,,,,,,,,,,,,,,,,,,,,
,,,,,,,,,,,,67f41aadb805ee4c476ddb19,001,3,2025-04-15_11h39.59.073,avatar_quest_3AFC_legacy,2022.1.3,Win32,59.88023952,67f41aadb805ee4c476ddb19,67fe6e666cecbc9329ddf6d6,67fe701944b434c9ccee4417,,,,,,,,,,,,,,,,,,,,,,No Brainslug Difficult 2 No Money,12,images/assets/snowy_original.jpg,learning,20,images/assets/success.jpg,images/assets/gameover.jpg,,,,,,,,,,,,,0,2,2,8,1,,,,,,,,,,,,,,,,,,,,,,,,,,,,,,,,
,,,,,,,,,,,,67f41aadb805ee4c476ddb19,001,3,2025-04-15_11h39.59.073,avatar_quest_3AFC_legacy,2022.1.3,Win32,59.88023952,67f41aadb805ee4c476ddb19,67fe6e666cecbc9329ddf6d6,67fe701944b434c9ccee4417,"[""left"",""left"",""right"",""right"",""left"",""left"",""left"",""left"",""left"",""right"",""right"",""right"",""right"",""right"",""left"",""left"",""left"",""right"",""right"",""right"",""left"",""left"",""left"",""right"",""right"",""right"",""left"",""left"",""left"",""right"",""right""]","[0.3911999999880891,0.5935000000000059,1.2833999999761545,1.5253999999761731,1.7898000000119225,1.9921999999880882,2.180100000023856,2.3561999999880925,2.56639999997617,2.760699999988077,2.994699999988086,3.1846999999880836,3.5098000000119214,3.6951000000238423,3.9266000000238535,4.109000000000009,4.348000000000013,4.5488999999761575,4.769699999988092,4.9998000000119305,5.188000000000017,5.40110000002386,5.585000000000008,6.025699999988092,6.250500000000017,6.445800000011928,6.672600000023834,6.900399999976173,7.114300000011923,7.355699999988076,7.831000000000017]",,calibration,With Brainslug Difficult 2 With Money,15,8.14695,8.1575,21,9,0,FALSE,na,na,na,na,,,,,,,,,,,,,,,,,,,,,,,,,,,,,,,,,,0,0,0,0,1,,,,,,,,,,,,,,,,,,,,,,,
,,,,,,,,,,,,67f41aadb805ee4c476ddb19,001,3,2025-04-15_11h39.59.073,avatar_quest_3AFC_legacy,2022.1.3,Win32,59.88023952,67f41aadb805ee4c476ddb19,67fe6e666cecbc9329ddf6d6,67fe701944b434c9ccee4417,,,,,,,,,,,,,,,,,,,,,,With Brainslug Difficult 2 With Money,12,images/assets/snowy_money.jpg,learning,20,images/assets/success_money.jpg,images/assets/gameover.jpg,,,,,,,,,,,,,0,3,3,2,1,,,,,,,,,,,,,,,,,,,,,,,,,,,,,,,,
,,,,,,,,,,,,67f41aadb805ee4c476ddb19,001,3,2025-04-15_11h39.59.073,avatar_quest_3AFC_legacy,2022.1.3,Win32,59.88023952,67f41aadb805ee4c476ddb19,67fe6e666cecbc9329ddf6d6,67fe701944b434c9ccee4417,,,,,,,,,,,,,,,,,,,,,,With Brainslug No Barriers No Money,0,images/assets/snowy_original.jpg,learning,10,images/assets/success.jpg,images/assets/gameover.jpg,,,,,,,,,,,,,0,4,4,5,1,,,,,,,,,,,,,,,,,,,,,,,,,,,,,,,,
,,,,,,,,,,,,67f41aadb805ee4c476ddb19,001,3,2025-04-15_11h39.59.073,avatar_quest_3AFC_legacy,2022.1.3,Win32,59.88023952,67f41aadb805ee4c476ddb19,67fe6e666cecbc9329ddf6d6,67fe701944b434c9ccee4417,,,,,,,,,,,,,,,,,,,,,,With Brainslug Difficult 1 No Money,6,images/assets/snowy_original.jpg,learning,20,images/assets/success.jpg,images/assets/gameover.jpg,,,,,,,,,,,,,0,5,5,1,1,,,,,,,,,,,,,,,,,,,,,,,,,,,,,,,,
,,,,,,,,,,,,67f41aadb805ee4c476ddb19,001,3,2025-04-15_11h39.59.073,avatar_quest_3AFC_legacy,2022.1.3,Win32,59.88023952,67f41aadb805ee4c476ddb19,67fe6e666cecbc9329ddf6d6,67fe701944b434c9ccee4417,,,,,,,,,,,,,,,,,,,,,,No Brainslug No Barriers No Money,0,images/assets/snowy_original.jpg,learning,10,images/assets/success.jpg,images/assets/gameover.jpg,,,,,,,,,,,,,0,6,6,10,1,,,,,,,,,,,,,,,,,,,,,,,,,,,,,,,,
,,,,,,,,,,,,67f41aadb805ee4c476ddb19,001,3,2025-04-15_11h39.59.073,avatar_quest_3AFC_legacy,2022.1.3,Win32,59.88023952,67f41aadb805ee4c476ddb19,67fe6e666cecbc9329ddf6d6,67fe701944b434c9ccee4417,,,,,,,,,,,,,,,,,,,,,,No Brainslug No Barriers With Money,0,images/assets/snowy_money.jpg,learning,10,images/assets/success_money.jpg,images/assets/gameover.jpg,,,,,,,,,,,,,0,7,7,9,1,,,,,,,,,,,,,,,,,,,,,,,,,,,,,,,,
,,,,,,,,,,,,67f41aadb805ee4c476ddb19,001,3,2025-04-15_11h39.59.073,avatar_quest_3AFC_legacy,2022.1.3,Win32,59.88023952,67f41aadb805ee4c476ddb19,67fe6e666cecbc9329ddf6d6,67fe701944b434c9ccee4417,,,,,,,,,,,,,,,,,,,,,,With Brainslug Difficult 1 With Money,6,images/assets/snowy_money.jpg,learning,20,images/assets/success_money.jpg,images/assets/gameover.jpg,,,,,,,,,,,,,0,8,8,0,1,,,,,,,,,,,,,,,,,,,,,,,,,,,,,,,,
,,,,,,,,,,,,67f41aadb805ee4c476ddb19,001,3,2025-04-15_11h39.59.073,avatar_quest_3AFC_legacy,2022.1.3,Win32,59.88023952,67f41aadb805ee4c476ddb19,67fe6e666cecbc9329ddf6d6,67fe701944b434c9ccee4417,,,,,,,,,,,,,,,,,,,,,,No Brainslug Difficult 2 With Money,12,images/assets/snowy_money.jpg,learning,20,images/assets/success_money.jpg,images/assets/gameover.jpg,,,,,,,,,,,,,0,9,9,7,1,,,,,,,,,,,,,,,,,,,,,,,,,,,,,,,,
,,,,,,,,,,,,67f41aadb805ee4c476ddb19,001,3,2025-04-15_11h39.59.073,avatar_quest_3AFC_legacy,2022.1.3,Win32,59.88023952,67f41aadb805ee4c476ddb19,67fe6e666cecbc9329ddf6d6,67fe701944b434c9ccee4417,,,,,,,,,,,,,,,,,,,,,,With Brainslug No Barriers With Money,0,images/assets/snowy_money.jpg,learning,10,images/assets/success_money.jpg,images/assets/gameover.jpg,,,,,,,,,,,,,0,10,10,4,1,,,,,,,,,,,,,,,,,,,,,,,,,,,,,,,,
,,,,,,,,,,,,67f41aadb805ee4c476ddb19,001,3,2025-04-15_11h39.59.073,avatar_quest_3AFC_legacy,2022.1.3,Win32,59.88023952,67f41aadb805ee4c476ddb19,67fe6e666cecbc9329ddf6d6,67fe701944b434c9ccee4417,,,,,,,,,,,,,,,,,,,,,,,,,,,,,,,,,,,,,,,,,,,,,,,,,,,,,,,11,0,11,0,1,,,,,,,,,,,,,,,,,,
,,,,,,,,,,,,67f41aadb805ee4c476ddb19,001,3,2025-04-15_11h39.59.073,avatar_quest_3AFC_legacy,2022.1.3,Win32,59.88023952,67f41aadb805ee4c476ddb19,67fe6e666cecbc9329ddf6d6,67fe701944b434c9ccee4417,,,,,,,,,,,,,,,,,,,,,,,,,,,,,,,,,,,,,,,,,,,,,,,,,,,,,,,,,,,,0,0,0,0,1,1,With Brainslug Difficult 1 No Money,images/assets/With Brainslug Difficult 1 No Money.png,With Brainslug Difficult 2 No Money,images/assets/With Brainslug Difficult 2 No Money.png,With Brainslug Difficult 2 With Money,images/assets/With Brainslug Difficult 2 With Money.png,Achievement vs. money,,,,,
,,,,,,,,,,,,67f41aadb805ee4c476ddb19,001,3,2025-04-15_11h39.59.073,avatar_quest_3AFC_legacy,2022.1.3,Win32,59.88023952,67f41aadb805ee4c476ddb19,67fe6e666cecbc9329ddf6d6,67fe701944b434c9ccee4417,,,,,,,,,,,,,,,,,,,,,,With Brainslug Difficult 2 With Money,12,images/assets/snowy_money.jpg,learning,20,images/assets/success_money.jpg,images/assets/gameover.jpg,,,,,,,,No Brainslug No Barriers With Money,No Brainslug No Barriers No Money,right,0.3646,"[""No Brainslug No Barriers No Money"",""No Brainslug Difficult 1 No Money""]",0,0,0,2,1,,,,,,,,,,,,,,,,,,,,,,,,,,,,,,,,
,,,,,,,,,,,,67f41aadb805ee4c476ddb19,001,3,2025-04-15_11h39.59.073,avatar_quest_3AFC_legacy,2022.1.3,Win32,59.88023952,67f41aadb805ee4c476ddb19,67fe6e666cecbc9329ddf6d6,67fe701944b434c9ccee4417,,,,,,,,,,,,,,,,,,,,,,With Brainslug No Barriers No Money,0,images/assets/snowy_original.jpg,learning,10,images/assets/success.jpg,images/assets/gameover.jpg,,,,,,,,,,,,,0,1,1,5,1,,,,,,,,,,,,,,,,,,,,,,,,,,,,,,,,
,,,,,,,,,,,,67f41aadb805ee4c476ddb19,001,3,2025-04-15_11h39.59.073,avatar_quest_3AFC_legacy,2022.1.3,Win32,59.88023952,67f41aadb805ee4c476ddb19,67fe6e666cecbc9329ddf6d6,67fe701944b434c9ccee4417,,,,,,,,,,,,,,,,,,,,,,No Brainslug Difficult 1 No Money,6,images/assets/snowy_original.jpg,learning,20,images/assets/success.jpg,images/assets/gameover.jpg,,,,,,,,,,,,,0,2,2,6,1,,,,,,,,,,,,,,,,,,,,,,,,,,,,,,,,
,,,,,,,,,,,,67f41aadb805ee4c476ddb19,001,3,2025-04-15_11h39.59.073,avatar_quest_3AFC_legacy,2022.1.3,Win32,59.88023952,67f41aadb805ee4c476ddb19,67fe6e666cecbc9329ddf6d6,67fe701944b434c9ccee4417,,,,,,,,,,,,,,,,,,,,,,With Brainslug Difficult 1 No Money,6,images/assets/snowy_original.jpg,learning,20,images/assets/success.jpg,images/assets/gameover.jpg,,,,,,,,,,,,,0,3,3,1,1,,,,,,,,,,,,,,,,,,,,,,,,,,,,,,,,
,,,,,,,,,,,,67f41aadb805ee4c476ddb19,001,3,2025-04-15_11h39.59.073,avatar_quest_3AFC_legacy,2022.1.3,Win32,59.88023952,67f41aadb805ee4c476ddb19,67fe6e666cecbc9329ddf6d6,67fe701944b434c9ccee4417,,,,,,,,,,,,,,,,,,,,,,No Brainslug Difficult 2 No Money,12,images/assets/snowy_original.jpg,learning,20,images/assets/success.jpg,images/assets/gameover.jpg,,,,,,,,,,,,,0,4,4,8,1,,,,,,,,,,,,,,,,,,,,,,,,,,,,,,,,
,,,,,,,,,,,,67f41aadb805ee4c476ddb19,001,3,2025-04-15_11h39.59.073,avatar_quest_3AFC_legacy,2022.1.3,Win32,59.88023952,67f41aadb805ee4c476ddb19,67fe6e666cecbc9329ddf6d6,67fe701944b434c9ccee4417,,,,,,,,,,,,,,,,,,,,,,With Brainslug No Barriers With Money,0,images/assets/snowy_money.jpg,learning,10,images/assets/success_money.jpg,images/assets/gameover.jpg,,,,,,,,,,,,,0,5,5,4,1,,,,,,,,,,,,,,,,,,,,,,,,,,,,,,,,
,,,,,,,,,,,,67f41aadb805ee4c476ddb19,001,3,2025-04-15_11h39.59.073,avatar_quest_3AFC_legacy,2022.1.3,Win32,59.88023952,67f41aadb805ee4c476ddb19,67fe6e666cecbc9329ddf6d6,67fe701944b434c9ccee4417,,,,,,,,,,,,,,,,,,,,,,No Brainslug No Barriers No Money,0,images/assets/snowy_original.jpg,learning,10,images/assets/success.jpg,images/assets/gameover.jpg,,,,,,,,,,,,,0,6,6,10,1,,,,,,,,,,,,,,,,,,,,,,,,,,,,,,,,
,,,,,,,,,,,,67f41aadb805ee4c476ddb19,001,3,2025-04-15_11h39.59.073,avatar_quest_3AFC_legacy,2022.1.3,Win32,59.88023952,67f41aadb805ee4c476ddb19,67fe6e666cecbc9329ddf6d6,67fe701944b434c9ccee4417,"[""left""]",[0.5554000000357462],,calibration,No Brainslug No Barriers With Money,16,6.51756,5.4333,1,0,0,TRUE,na,na,na,na,,,,,,,,,,,,,,,,,,,,,,,,,,,,,,,,,,0,0,0,0,1,,,,,,,,,,,,,,,,,,,,,,,
,,,,,,,,,,,,67f41aadb805ee4c476ddb19,001,3,2025-04-15_11h39.59.073,avatar_quest_3AFC_legacy,2022.1.3,Win32,59.88023952,67f41aadb805ee4c476ddb19,67fe6e666cecbc9329ddf6d6,67fe701944b434c9ccee4417,,,,,,,,,,,,,,,,,,,,,,No Brainslug No Barriers With Money,0,images/assets/snowy_money.jpg,learning,10,images/assets/success_money.jpg,images/assets/gameover.jpg,,,,,,,,,,,,,0,7,7,9,1,,,,,,,,,,,,,,,,,,,,,,,,,,,,,,,,
,,,,,,,,,,,,67f41aadb805ee4c476ddb19,001,3,2025-04-15_11h39.59.073,avatar_quest_3AFC_legacy,2022.1.3,Win32,59.88023952,67f41aadb805ee4c476ddb19,67fe6e666cecbc9329ddf6d6,67fe701944b434c9ccee4417,,,,,,,,,,,,,,,,,,,,,,With Brainslug Difficult 2 No Money,12,images/assets/snowy_original.jpg,learning,20,images/assets/success.jpg,images/assets/gameover.jpg,,,,,,,,,,,,,0,8,8,3,1,,,,,,,,,,,,,,,,,,,,,,,,,,,,,,,,
,,,,,,,,,,,,67f41aadb805ee4c476ddb19,001,3,2025-04-15_11h39.59.073,avatar_quest_3AFC_legacy,2022.1.3,Win32,59.88023952,67f41aadb805ee4c476ddb19,67fe6e666cecbc9329ddf6d6,67fe701944b434c9ccee4417,,,,,,,,,,,,,,,,,,,,,,With Brainslug Difficult 1 With Money,6,images/assets/snowy_money.jpg,learning,20,images/assets/success_money.jpg,images/assets/gameover.jpg,,,,,,,,,,,,,0,9,9,0,1,,,,,,,,,,,,,,,,,,,,,,,,,,,,,,,,
,,,,,,,,,,,,67f41aadb805ee4c476ddb19,001,3,2025-04-15_11h39.59.073,avatar_quest_3AFC_legacy,2022.1.3,Win32,59.88023952,67f41aadb805ee4c476ddb19,67fe6e666cecbc9329ddf6d6,67fe701944b434c9ccee4417,,,,,,,,,,,,,,,,,,,,,,No Brainslug Difficult 2 With Money,12,images/assets/snowy_money.jpg,learning,20,images/assets/success_money.jpg,images/assets/gameover.jpg,,,,,,,,,,,,,0,10,10,7,1,,,,,,,,,,,,,,,,,,,,,,,,,,,,,,,,
,,,,,,,,,,,,67f41aadb805ee4c476ddb19,001,3,2025-04-15_11h39.59.073,avatar_quest_3AFC_legacy,2022.1.3,Win32,59.88023952,67f41aadb805ee4c476ddb19,67fe6e666cecbc9329ddf6d6,67fe701944b434c9ccee4417,,,,,,,,,,,,,,,,,,,,,,,,,,,,,,,,,,,,,,,,,,,,,,,,,,,,,,,0,0,0,0,1,,,,,,,,,,,,,,,,,,
,,,,,,,,,,,,67f41aadb805ee4c476ddb19,001,3,2025-04-15_11h39.59.073,avatar_quest_3AFC_legacy,2022.1.3,Win32,59.88023952,67f41aadb805ee4c476ddb19,67fe6e666cecbc9329ddf6d6,67fe701944b434c9ccee4417,,,,,,,,,,,,,,,,,,,,,,No Brainslug Difficult 2 No Money,12,images/assets/snowy_original.jpg,learning,20,images/assets/success.jpg,images/assets/gameover.jpg,,,,,,,,No Brainslug No Barriers With Money,No Brainslug No Barriers No Money,right,0.6279,"[""No Brainslug No Barriers No Money"",""No Brainslug Difficult 1 No Money""]",0,0,0,8,1,,,,,,,,,,,,,,,,,,,,,,,,,,,,,,,,
,,,,,,,,,,,,67f41aadb805ee4c476ddb19,001,3,2025-04-15_11h39.59.073,avatar_quest_3AFC_legacy,2022.1.3,Win32,59.88023952,67f41aadb805ee4c476ddb19,67fe6e666cecbc9329ddf6d6,67fe701944b434c9ccee4417,,,,,,,,,,,,,,,,,,,,,,With Brainslug No Barriers No Money,0,images/assets/snowy_original.jpg,learning,10,images/assets/success.jpg,images/assets/gameover.jpg,,,,,,,,,,,,,0,1,1,5,1,,,,,,,,,,,,,,,,,,,,,,,,,,,,,,,,
,,,,,,,,,,,,67f41aadb805ee4c476ddb19,001,3,2025-04-15_11h39.59.073,avatar_quest_3AFC_legacy,2022.1.3,Win32,59.88023952,67f41aadb805ee4c476ddb19,67fe6e666cecbc9329ddf6d6,67fe701944b434c9ccee4417,,,,,,,,,,,,,,,,,,,,,,No Brainslug Difficult 1 No Money,6,images/assets/snowy_original.jpg,learning,20,images/assets/success.jpg,images/assets/gameover.jpg,,,,,,,,,,,,,0,2,2,6,1,,,,,,,,,,,,,,,,,,,,,,,,,,,,,,,,
,,,,,,,,,,,,67f41aadb805ee4c476ddb19,001,3,2025-04-15_11h39.59.073,avatar_quest_3AFC_legacy,2022.1.3,Win32,59.88023952,67f41aadb805ee4c476ddb19,67fe6e666cecbc9329ddf6d6,67fe701944b434c9ccee4417,,,,,,,,,,,,,,,,,,,,,,With Brainslug Difficult 2 With Money,12,images/assets/snowy_money.jpg,learning,20,images/assets/success_money.jpg,images/assets/gameover.jpg,,,,,,,,,,,,,0,3,3,2,1,,,,,,,,,,,,,,,,,,,,,,,,,,,,,,,,
,,,,,,,,,,,,67f41aadb805ee4c476ddb19,001,3,2025-04-15_11h39.59.073,avatar_quest_3AFC_legacy,2022.1.3,Win32,59.88023952,67f41aadb805ee4c476ddb19,67fe6e666cecbc9329ddf6d6,67fe701944b434c9ccee4417,,,,,,,,,,,,,,,,,,,,,,With Brainslug Difficult 2 No Money,12,images/assets/snowy_original.jpg,learning,20,images/assets/success.jpg,images/assets/gameover.jpg,,,,,,,,,,,,,0,4,4,3,1,,,,,,,,,,,,,,,,,,,,,,,,,,,,,,,,
,,,,,,,,,,,,67f41aadb805ee4c476ddb19,001,3,2025-04-15_11h39.59.073,avatar_quest_3AFC_legacy,2022.1.3,Win32,59.88023952,67f41aadb805ee4c476ddb19,67fe6e666cecbc9329ddf6d6,67fe701944b434c9ccee4417,"[""left""]",[0.4356000000238396],,calibration,No Brainslug No Barriers With Money,17,6.51756,5.4328,1,0,0,TRUE,na,na,na,na,,,,,,,,,,,,,,,,,,,,,,,,,,,,,,,,,,0,0,0,0,1,,,,,,,,,,,,,,,,,,,,,,,
,,,,,,,,,,,,67f41aadb805ee4c476ddb19,001,3,2025-04-15_11h39.59.073,avatar_quest_3AFC_legacy,2022.1.3,Win32,59.88023952,67f41aadb805ee4c476ddb19,67fe6e666cecbc9329ddf6d6,67fe701944b434c9ccee4417,,,,,,,,,,,,,,,,,,,,,,No Brainslug No Barriers With Money,0,images/assets/snowy_money.jpg,learning,10,images/assets/success_money.jpg,images/assets/gameover.jpg,,,,,,,,,,,,,0,5,5,9,1,,,,,,,,,,,,,,,,,,,,,,,,,,,,,,,,
,,,,,,,,,,,,67f41aadb805ee4c476ddb19,001,3,2025-04-15_11h39.59.073,avatar_quest_3AFC_legacy,2022.1.3,Win32,59.88023952,67f41aadb805ee4c476ddb19,67fe6e666cecbc9329ddf6d6,67fe701944b434c9ccee4417,,,,,,,,,,,,,,,,,,,,,,With Brainslug No Barriers With Money,0,images/assets/snowy_money.jpg,learning,10,images/assets/success_money.jpg,images/assets/gameover.jpg,,,,,,,,,,,,,0,6,6,4,1,,,,,,,,,,,,,,,,,,,,,,,,,,,,,,,,
,,,,,,,,,,,,67f41aadb805ee4c476ddb19,001,3,2025-04-15_11h39.59.073,avatar_quest_3AFC_legacy,2022.1.3,Win32,59.88023952,67f41aadb805ee4c476ddb19,67fe6e666cecbc9329ddf6d6,67fe701944b434c9ccee4417,,,,,,,,,,,,,,,,,,,,,,No Brainslug No Barriers No Money,0,images/assets/snowy_original.jpg,learning,10,images/assets/success.jpg,images/assets/gameover.jpg,,,,,,,,,,,,,0,7,7,10,1,,,,,,,,,,,,,,,,,,,,,,,,,,,,,,,,
,,,,,,,,,,,,67f41aadb805ee4c476ddb19,001,3,2025-04-15_11h39.59.073,avatar_quest_3AFC_legacy,2022.1.3,Win32,59.88023952,67f41aadb805ee4c476ddb19,67fe6e666cecbc9329ddf6d6,67fe701944b434c9ccee4417,,,,,,,,,,,,,,,,,,,,,,With Brainslug Difficult 1 No Money,6,images/assets/snowy_original.jpg,learning,20,images/assets/success.jpg,images/assets/gameover.jpg,,,,,,,,,,,,,0,8,8,1,1,,,,,,,,,,,,,,,,,,,,,,,,,,,,,,,,
,,,,,,,,,,,,67f41aadb805ee4c476ddb19,001,3,2025-04-15_11h39.59.073,avatar_quest_3AFC_legacy,2022.1.3,Win32,59.88023952,67f41aadb805ee4c476ddb19,67fe6e666cecbc9329ddf6d6,67fe701944b434c9ccee4417,,,,,,,,,,,,,,,,,,,,,,No Brainslug Difficult 2 With Money,12,images/assets/snowy_money.jpg,learning,20,images/assets/success_money.jpg,images/assets/gameover.jpg,,,,,,,,,,,,,0,9,9,7,1,,,,,,,,,,,,,,,,,,,,,,,,,,,,,,,,
,,,,,,,,,,,,67f41aadb805ee4c476ddb19,001,3,2025-04-15_11h39.59.073,avatar_quest_3AFC_legacy,2022.1.3,Win32,59.88023952,67f41aadb805ee4c476ddb19,67fe6e666cecbc9329ddf6d6,67fe701944b434c9ccee4417,,,,,,,,,,,,,,,,,,,,,,With Brainslug Difficult 1 With Money,6,images/assets/snowy_money.jpg,learning,20,images/assets/success_money.jpg,images/assets/gameover.jpg,,,,,,,,,,,,,0,10,10,0,1,,,,,,,,,,,,,,,,,,,,,,,,,,,,,,,,
,,,,,,,,,,,,67f41aadb805ee4c476ddb19,001,3,2025-04-15_11h39.59.073,avatar_quest_3AFC_legacy,2022.1.3,Win32,59.88023952,67f41aadb805ee4c476ddb19,67fe6e666cecbc9329ddf6d6,67fe701944b434c9ccee4417,,,,,,,,,,,,,,,,,,,,,,,,,,,,,,,,,,,,,,,,,,,,,,,,,,,,,,,1,0,1,0,1,,,,,,,,,,,,,,,,,,
,,,,,,,,,,,,67f41aadb805ee4c476ddb19,001,3,2025-04-15_11h39.59.073,avatar_quest_3AFC_legacy,2022.1.3,Win32,59.88023952,67f41aadb805ee4c476ddb19,67fe6e666cecbc9329ddf6d6,67fe701944b434c9ccee4417,,,,,,,,,,,,,,,,,,,,,,No Brainslug Difficult 2 No Money,12,images/assets/snowy_original.jpg,learning,20,images/assets/success.jpg,images/assets/gameover.jpg,,,,,,,,No Brainslug No Barriers With Money,No Brainslug No Barriers No Money,right,0.5494,"[""No Brainslug No Barriers No Money"",""No Brainslug Difficult 1 No Money""]",0,0,0,8,1,,,,,,,,,,,,,,,,,,,,,,,,,,,,,,,,
,,,,,,,,,,,,67f41aadb805ee4c476ddb19,001,3,2025-04-15_11h39.59.073,avatar_quest_3AFC_legacy,2022.1.3,Win32,59.88023952,67f41aadb805ee4c476ddb19,67fe6e666cecbc9329ddf6d6,67fe701944b434c9ccee4417,,,,,,,,,,,,,,,,,,,,,,With Brainslug Difficult 1 No Money,6,images/assets/snowy_original.jpg,learning,20,images/assets/success.jpg,images/assets/gameover.jpg,,,,,,,,,,,,,0,1,1,1,1,,,,,,,,,,,,,,,,,,,,,,,,,,,,,,,,
,,,,,,,,,,,,67f41aadb805ee4c476ddb19,001,3,2025-04-15_11h39.59.073,avatar_quest_3AFC_legacy,2022.1.3,Win32,59.88023952,67f41aadb805ee4c476ddb19,67fe6e666cecbc9329ddf6d6,67fe701944b434c9ccee4417,,,,,,,,,,,,,,,,,,,,,,No Brainslug Difficult 1 No Money,6,images/assets/snowy_original.jpg,learning,20,images/assets/success.jpg,images/assets/gameover.jpg,,,,,,,,,,,,,0,2,2,6,1,,,,,,,,,,,,,,,,,,,,,,,,,,,,,,,,
,,,,,,,,,,,,67f41aadb805ee4c476ddb19,001,3,2025-04-15_11h39.59.073,avatar_quest_3AFC_legacy,2022.1.3,Win32,59.88023952,67f41aadb805ee4c476ddb19,67fe6e666cecbc9329ddf6d6,67fe701944b434c9ccee4417,,,,,,,,,,,,,,,,,,,,,,With Brainslug No Barriers No Money,0,images/assets/snowy_original.jpg,learning,10,images/assets/success.jpg,images/assets/gameover.jpg,,,,,,,,,,,,,0,3,3,5,1,,,,,,,,,,,,,,,,,,,,,,,,,,,,,,,,
,,,,,,,,,,,,67f41aadb805ee4c476ddb19,001,3,2025-04-15_11h39.59.073,avatar_quest_3AFC_legacy,2022.1.3,Win32,59.88023952,67f41aadb805ee4c476ddb19,67fe6e666cecbc9329ddf6d6,67fe701944b434c9ccee4417,"[""left""]",[0.7514000000357726],,calibration,No Brainslug No Barriers With Money,18,6.51756,5.4663,1,0,0,TRUE,na,na,na,na,,,,,,,,,,,,,,,,,,,,,,,,,,,,,,,,,,0,0,0,0,1,,,,,,,,,,,,,,,,,,,,,,,
,,,,,,,,,,,,67f41aadb805ee4c476ddb19,001,3,2025-04-15_11h39.59.073,avatar_quest_3AFC_legacy,2022.1.3,Win32,59.88023952,67f41aadb805ee4c476ddb19,67fe6e666cecbc9329ddf6d6,67fe701944b434c9ccee4417,,,,,,,,,,,,,,,,,,,,,,No Brainslug No Barriers With Money,0,images/assets/snowy_money.jpg,learning,10,images/assets/success_money.jpg,images/assets/gameover.jpg,,,,,,,,,,,,,0,4,4,9,1,,,,,,,,,,,,,,,,,,,,,,,,,,,,,,,,
,,,,,,,,,,,,67f41aadb805ee4c476ddb19,001,3,2025-04-15_11h39.59.073,avatar_quest_3AFC_legacy,2022.1.3,Win32,59.88023952,67f41aadb805ee4c476ddb19,67fe6e666cecbc9329ddf6d6,67fe701944b434c9ccee4417,,,,,,,,,,,,,,,,,,,,,,With Brainslug Difficult 2 With Money,12,images/assets/snowy_money.jpg,learning,20,images/assets/success_money.jpg,images/assets/gameover.jpg,,,,,,,,,,,,,0,5,5,2,1,,,,,,,,,,,,,,,,,,,,,,,,,,,,,,,,
,,,,,,,,,,,,67f41aadb805ee4c476ddb19,001,3,2025-04-15_11h39.59.073,avatar_quest_3AFC_legacy,2022.1.3,Win32,59.88023952,67f41aadb805ee4c476ddb19,67fe6e666cecbc9329ddf6d6,67fe701944b434c9ccee4417,,,,,,,,,,,,,,,,,,,,,,With Brainslug No Barriers With Money,0,images/assets/snowy_money.jpg,learning,10,images/assets/success_money.jpg,images/assets/gameover.jpg,,,,,,,,,,,,,0,6,6,4,1,,,,,,,,,,,,,,,,,,,,,,,,,,,,,,,,
,,,,,,,,,,,,67f41aadb805ee4c476ddb19,001,3,2025-04-15_11h39.59.073,avatar_quest_3AFC_legacy,2022.1.3,Win32,59.88023952,67f41aadb805ee4c476ddb19,67fe6e666cecbc9329ddf6d6,67fe701944b434c9ccee4417,,,,,,,,,,,,,,,,,,,,,,With Brainslug Difficult 1 With Money,6,images/assets/snowy_money.jpg,learning,20,images/assets/success_money.jpg,images/assets/gameover.jpg,,,,,,,,,,,,,0,7,7,0,1,,,,,,,,,,,,,,,,,,,,,,,,,,,,,,,,
,,,,,,,,,,,,67f41aadb805ee4c476ddb19,001,3,2025-04-15_11h39.59.073,avatar_quest_3AFC_legacy,2022.1.3,Win32,59.88023952,67f41aadb805ee4c476ddb19,67fe6e666cecbc9329ddf6d6,67fe701944b434c9ccee4417,,,,,,,,,,,,,,,,,,,,,,No Brainslug Difficult 2 With Money,12,images/assets/snowy_money.jpg,learning,20,images/assets/success_money.jpg,images/assets/gameover.jpg,,,,,,,,,,,,,0,8,8,7,1,,,,,,,,,,,,,,,,,,,,,,,,,,,,,,,,
,,,,,,,,,,,,67f41aadb805ee4c476ddb19,001,3,2025-04-15_11h39.59.073,avatar_quest_3AFC_legacy,2022.1.3,Win32,59.88023952,67f41aadb805ee4c476ddb19,67fe6e666cecbc9329ddf6d6,67fe701944b434c9ccee4417,,,,,,,,,,,,,,,,,,,,,,No Brainslug No Barriers No Money,0,images/assets/snowy_original.jpg,learning,10,images/assets/success.jpg,images/assets/gameover.jpg,,,,,,,,,,,,,0,9,9,10,1,,,,,,,,,,,,,,,,,,,,,,,,,,,,,,,,
,,,,,,,,,,,,67f41aadb805ee4c476ddb19,001,3,2025-04-15_11h39.59.073,avatar_quest_3AFC_legacy,2022.1.3,Win32,59.88023952,67f41aadb805ee4c476ddb19,67fe6e666cecbc9329ddf6d6,67fe701944b434c9ccee4417,,,,,,,,,,,,,,,,,,,,,,With Brainslug Difficult 2 No Money,12,images/assets/snowy_original.jpg,learning,20,images/assets/success.jpg,images/assets/gameover.jpg,,,,,,,,,,,,,0,10,10,3,1,,,,,,,,,,,,,,,,,,,,,,,,,,,,,,,,
,,,,,,,,,,,,67f41aadb805ee4c476ddb19,001,3,2025-04-15_11h39.59.073,avatar_quest_3AFC_legacy,2022.1.3,Win32,59.88023952,67f41aadb805ee4c476ddb19,67fe6e666cecbc9329ddf6d6,67fe701944b434c9ccee4417,,,,,,,,,,,,,,,,,,,,,,,,,,,,,,,,,,,,,,,,,,,,,,,,,,,,,,,2,0,2,0,1,,,,,,,,,,,,,,,,,,
,,,,,,,,,,,,67f41aadb805ee4c476ddb19,001,3,2025-04-15_11h39.59.073,avatar_quest_3AFC_legacy,2022.1.3,Win32,59.88023952,67f41aadb805ee4c476ddb19,67fe6e666cecbc9329ddf6d6,67fe701944b434c9ccee4417,,,,,,,,,,,,,,,,,,,,,,With Brainslug Difficult 2 No Money,12,images/assets/snowy_original.jpg,learning,20,images/assets/success.jpg,images/assets/gameover.jpg,,,,,,,,No Brainslug No Barriers With Money,No Brainslug No Barriers No Money,right,0.3738,"[""No Brainslug No Barriers No Money"",""No Brainslug Difficult 1 No Money""]",0,0,0,3,1,,,,,,,,,,,,,,,,,,,,,,,,,,,,,,,,
,,,,,,,,,,,,67f41aadb805ee4c476ddb19,001,3,2025-04-15_11h39.59.073,avatar_quest_3AFC_legacy,2022.1.3,Win32,59.88023952,67f41aadb805ee4c476ddb19,67fe6e666cecbc9329ddf6d6,67fe701944b434c9ccee4417,,,,,,,,,,,,,,,,,,,,,,With Brainslug No Barriers With Money,0,images/assets/snowy_money.jpg,learning,10,images/assets/success_money.jpg,images/assets/gameover.jpg,,,,,,,,,,,,,0,1,1,4,1,,,,,,,,,,,,,,,,,,,,,,,,,,,,,,,,
,,,,,,,,,,,,67f41aadb805ee4c476ddb19,001,3,2025-04-15_11h39.59.073,avatar_quest_3AFC_legacy,2022.1.3,Win32,59.88023952,67f41aadb805ee4c476ddb19,67fe6e666cecbc9329ddf6d6,67fe701944b434c9ccee4417,"[""left""]",[0.3160000000000025],,calibration,No Brainslug No Barriers With Money,19,6.51756,5.448,1,0,0,TRUE,na,na,na,na,,,,,,,,,,,,,,,,,,,,,,,,,,,,,,,,,,0,0,0,0,1,,,,,,,,,,,,,,,,,,,,,,,
,,,,,,,,,,,,67f41aadb805ee4c476ddb19,001,3,2025-04-15_11h39.59.073,avatar_quest_3AFC_legacy,2022.1.3,Win32,59.88023952,67f41aadb805ee4c476ddb19,67fe6e666cecbc9329ddf6d6,67fe701944b434c9ccee4417,,,,,,,,,,,,,,,,,,,,,,No Brainslug No Barriers With Money,0,images/assets/snowy_money.jpg,learning,10,images/assets/success_money.jpg,images/assets/gameover.jpg,,,,,,,,,,,,,0,2,2,9,1,,,,,,,,,,,,,,,,,,,,,,,,,,,,,,,,
,,,,,,,,,,,,67f41aadb805ee4c476ddb19,001,3,2025-04-15_11h39.59.073,avatar_quest_3AFC_legacy,2022.1.3,Win32,59.88023952,67f41aadb805ee4c476ddb19,67fe6e666cecbc9329ddf6d6,67fe701944b434c9ccee4417,,,,,,,,,,,,,,,,,,,,,,No Brainslug Difficult 2 No Money,12,images/assets/snowy_original.jpg,learning,20,images/assets/success.jpg,images/assets/gameover.jpg,,,,,,,,,,,,,0,3,3,8,1,,,,,,,,,,,,,,,,,,,,,,,,,,,,,,,,
,,,,,,,,,,,,67f41aadb805ee4c476ddb19,001,3,2025-04-15_11h39.59.073,avatar_quest_3AFC_legacy,2022.1.3,Win32,59.88023952,67f41aadb805ee4c476ddb19,67fe6e666cecbc9329ddf6d6,67fe701944b434c9ccee4417,,,,,,,,,,,,,,,,,,,,,,No Brainslug No Barriers No Money,0,images/assets/snowy_original.jpg,learning,10,images/assets/success.jpg,images/assets/gameover.jpg,,,,,,,,,,,,,0,4,4,10,1,,,,,,,,,,,,,,,,,,,,,,,,,,,,,,,,
,,,,,,,,,,,,67f41aadb805ee4c476ddb19,001,3,2025-04-15_11h39.59.073,avatar_quest_3AFC_legacy,2022.1.3,Win32,59.88023952,67f41aadb805ee4c476ddb19,67fe6e666cecbc9329ddf6d6,67fe701944b434c9ccee4417,,,,,,,,,,,,,,,,,,,,,,With Brainslug Difficult 1 With Money,6,images/assets/snowy_money.jpg,learning,20,images/assets/success_money.jpg,images/assets/gameover.jpg,,,,,,,,,,,,,0,5,5,0,1,,,,,,,,,,,,,,,,,,,,,,,,,,,,,,,,
,,,,,,,,,,,,67f41aadb805ee4c476ddb19,001,3,2025-04-15_11h39.59.073,avatar_quest_3AFC_legacy,2022.1.3,Win32,59.88023952,67f41aadb805ee4c476ddb19,67fe6e666cecbc9329ddf6d6,67fe701944b434c9ccee4417,,,,,,,,,,,,,,,,,,,,,,With Brainslug No Barriers No Money,0,images/assets/snowy_original.jpg,learning,10,images/assets/success.jpg,images/assets/gameover.jpg,,,,,,,,,,,,,0,6,6,5,1,,,,,,,,,,,,,,,,,,,,,,,,,,,,,,,,
,,,,,,,,,,,,67f41aadb805ee4c476ddb19,001,3,2025-04-15_11h39.59.073,avatar_quest_3AFC_legacy,2022.1.3,Win32,59.88023952,67f41aadb805ee4c476ddb19,67fe6e666cecbc9329ddf6d6,67fe701944b434c9ccee4417,,,,,,,,,,,,,,,,,,,,,,No Brainslug Difficult 2 With Money,12,images/assets/snowy_money.jpg,learning,20,images/assets/success_money.jpg,images/assets/gameover.jpg,,,,,,,,,,,,,0,7,7,7,1,,,,,,,,,,,,,,,,,,,,,,,,,,,,,,,,
,,,,,,,,,,,,67f41aadb805ee4c476ddb19,001,3,2025-04-15_11h39.59.073,avatar_quest_3AFC_legacy,2022.1.3,Win32,59.88023952,67f41aadb805ee4c476ddb19,67fe6e666cecbc9329ddf6d6,67fe701944b434c9ccee4417,,,,,,,,,,,,,,,,,,,,,,With Brainslug Difficult 2 With Money,12,images/assets/snowy_money.jpg,learning,20,images/assets/success_money.jpg,images/assets/gameover.jpg,,,,,,,,,,,,,0,8,8,2,1,,,,,,,,,,,,,,,,,,,,,,,,,,,,,,,,
,,,,,,,,,,,,67f41aadb805ee4c476ddb19,001,3,2025-04-15_11h39.59.073,avatar_quest_3AFC_legacy,2022.1.3,Win32,59.88023952,67f41aadb805ee4c476ddb19,67fe6e666cecbc9329ddf6d6,67fe701944b434c9ccee4417,,,,,,,,,,,,,,,,,,,,,,With Brainslug Difficult 1 No Money,6,images/assets/snowy_original.jpg,learning,20,images/assets/success.jpg,images/assets/gameover.jpg,,,,,,,,,,,,,0,9,9,1,1,,,,,,,,,,,,,,,,,,,,,,,,,,,,,,,,
,,,,,,,,,,,,67f41aadb805ee4c476ddb19,001,3,2025-04-15_11h39.59.073,avatar_quest_3AFC_legacy,2022.1.3,Win32,59.88023952,67f41aadb805ee4c476ddb19,67fe6e666cecbc9329ddf6d6,67fe701944b434c9ccee4417,,,,,,,,,,,,,,,,,,,,,,No Brainslug Difficult 1 No Money,6,images/assets/snowy_original.jpg,learning,20,images/assets/success.jpg,images/assets/gameover.jpg,,,,,,,,,,,,,0,10,10,6,1,,,,,,,,,,,,,,,,,,,,,,,,,,,,,,,,
,,,,,,,,,,,,67f41aadb805ee4c476ddb19,001,3,2025-04-15_11h39.59.073,avatar_quest_3AFC_legacy,2022.1.3,Win32,59.88023952,67f41aadb805ee4c476ddb19,67fe6e666cecbc9329ddf6d6,67fe701944b434c9ccee4417,,,,,,,,,,,,,,,,,,,,,,,,,,,,,,,,,,,,,,,,,,,,,,,,,,,,,,,3,0,3,0,1,,,,,,,,,,,,,,,,,,
