instruction_mouse.x,instruction_mouse.y,instruction_mouse.leftButton,instruction_mouse.midButton,instruction_mouse.rightButton,instruction_mouse.clicked_name,introduce_general.thisRepN,introduce_general.thisTrialN,introduce_general.thisN,introduce_general.thisIndex,introduce_general.ran,thisInstruction,participant,session,game version,date,expName,psychopyVersion,OS,frameRate,PROLIFIC PID,STUDY ID,SESSION ID,move_resp.keys,move_resp.rt,end_resp.keys,phase,condition,trial_num,time_limit,completion_time,left_right_steps,number_of_obsticle_blocks,number_of_tree_blocks,quest_complete,responsivity_summary,av_inter_brainslug_intervals,proportion_jitter,jitter_direction_proportion_right,calibration_phase.thisRepN,calibration_phase.thisTrialN,calibration_phase.thisN,calibration_phase.thisIndex,calibration_phase.ran,BlockLabel,nObsticles,backgroundImage,phaseLabel,n_side_steps,success_im,gameover_im,success_condition,introduce_learning_or_choice.thisRepN,introduce_learning_or_choice.thisTrialN,introduce_learning_or_choice.thisN,introduce_learning_or_choice.thisIndex,introduce_learning_or_choice.ran,choice_resp.keys,chosen_quest,unchosen_quest,choice_resp_3afc.keys,choice_resp_3afc.rt,unchosen_quests,forced_choice_trial.thisRepN,forced_choice_trial.thisTrialN,forced_choice_trial.thisN,forced_choice_trial.thisIndex,forced_choice_trial.ran,enjoyment_slider.response,enjoyment_slider.rt,effort_slider.response,effort_slider.rt,show_loop2.thisRepN,show_loop2.thisTrialN,show_loop2.thisN,show_loop2.thisIndex,show_loop2.ran,trials_per_block.thisRepN,trials_per_block.thisTrialN,trials_per_block.thisN,trials_per_block.thisIndex,trials_per_block.ran,decision_phase_AFC.thisRepN,decision_phase_AFC.thisTrialN,decision_phase_AFC.thisN,decision_phase_AFC.thisIndex,decision_phase_AFC.ran,blockN,BlockLabel1,questIm1,BlockLabel2,questIm2,BlockLabel3,questIm3,quest_condition,showForcedChoice.thisRepN,showForcedChoice.thisTrialN,showForcedChoice.thisN,showForcedChoice.thisIndex,showForcedChoice.ran
0.403645833,-0.404947917,1,0,0,instruction_button,0,0,0,0,1,images/instructions_part1_LSM_taskversion1/Slide1.JPG,67f41aadb805ee4c476ddb19,001,3,2025-04-15_11h10.52.215,avatar_quest_3AFC_legacy,2022.1.3,Win32,60.97560976,67f41aadb805ee4c476ddb19,67fe6e666cecbc9329ddf6d6,67fe701944b434c9ccee4417,,,,,,,,,,,,,,,,,,,,,,,,,,,,,,,,,,,,,,,,,,,,,,,,,,,,,,,,,,,,,,,,,,,,,,,,,,,,,
0.407552083,-0.390625,1,0,0,instruction_button,0,1,1,1,1,images/instructions_part1_LSM_taskversion1/Slide2.JPG,67f41aadb805ee4c476ddb19,001,3,2025-04-15_11h10.52.215,avatar_quest_3AFC_legacy,2022.1.3,Win32,60.97560976,67f41aadb805ee4c476ddb19,67fe6e666cecbc9329ddf6d6,67fe701944b434c9ccee4417,,,,,,,,,,,,,,,,,,,,,,,,,,,,,,,,,,,,,,,,,,,,,,,,,,,,,,,,,,,,,,,,,,,,,,,,,,,,,
0.403645833,-0.390625,1,0,0,instruction_button,0,2,2,2,1,images/instructions_part1_LSM_taskversion1/Slide3.JPG,67f41aadb805ee4c476ddb19,001,3,2025-04-15_11h10.52.215,avatar_quest_3AFC_legacy,2022.1.3,Win32,60.97560976,67f41aadb805ee4c476ddb19,67fe6e666cecbc9329ddf6d6,67fe701944b434c9ccee4417,,,,,,,,,,,,,,,,,,,,,,,,,,,,,,,,,,,,,,,,,,,,,,,,,,,,,,,,,,,,,,,,,,,,,,,,,,,,,
0.403645833,-0.390625,1,0,0,instruction_button,0,3,3,3,1,images/instructions_part1_LSM_taskversion1/Slide3.5.JPG,67f41aadb805ee4c476ddb19,001,3,2025-04-15_11h10.52.215,avatar_quest_3AFC_legacy,2022.1.3,Win32,60.97560976,67f41aadb805ee4c476ddb19,67fe6e666cecbc9329ddf6d6,67fe701944b434c9ccee4417,,,,,,,,,,,,,,,,,,,,,,,,,,,,,,,,,,,,,,,,,,,,,,,,,,,,,,,,,,,,,,,,,,,,,,,,,,,,,
0.403645833,-0.390625,1,0,0,instruction_button,0,4,4,4,1,images/instructions_part1_LSM_taskversion1/Slide4.JPG,67f41aadb805ee4c476ddb19,001,3,2025-04-15_11h10.52.215,avatar_quest_3AFC_legacy,2022.1.3,Win32,60.97560976,67f41aadb805ee4c476ddb19,67fe6e666cecbc9329ddf6d6,67fe701944b434c9ccee4417,,,,,,,,,,,,,,,,,,,,,,,,,,,,,,,,,,,,,,,,,,,,,,,,,,,,,,,,,,,,,,,,,,,,,,,,,,,,,
0.369791667,-0.399739583,1,0,0,instruction_button,0,5,5,5,1,images/instructions_part1_LSM_taskversion1/Slide6.5.JPG,67f41aadb805ee4c476ddb19,001,3,2025-04-15_11h10.52.215,avatar_quest_3AFC_legacy,2022.1.3,Win32,60.97560976,67f41aadb805ee4c476ddb19,67fe6e666cecbc9329ddf6d6,67fe701944b434c9ccee4417,,,,,,,,,,,,,,,,,,,,,,,,,,,,,,,,,,,,,,,,,,,,,,,,,,,,,,,,,,,,,,,,,,,,,,,,,,,,,
,,,,,,,,,,,,67f41aadb805ee4c476ddb19,001,3,2025-04-15_11h10.52.215,avatar_quest_3AFC_legacy,2022.1.3,Win32,60.97560976,67f41aadb805ee4c476ddb19,67fe6e666cecbc9329ddf6d6,67fe701944b434c9ccee4417,"[""up"",""left"",""left"",""right"",""right""]","[1.8603000000119323,2.126700000047691,2.3406000000238407,3.574800000011919,4.043300000011925]",,calibration,No Brainslug No Barriers No Money,1,100,5.3957,4,0,0,TRUE,na,na,na,na,0,0,0,1,1,No Brainslug No Barriers No Money,0,images/assets/snowy_original.jpg,calibration,10,images/assets/success.jpg,images/assets/gameover.jpg,never,,,,,,,,,,,,,,,,,,,,,,,,,,,,,,,,,,,,,,,,,,,,,,,,
,,,,,,,,,,,,67f41aadb805ee4c476ddb19,001,3,2025-04-15_11h10.52.215,avatar_quest_3AFC_legacy,2022.1.3,Win32,60.97560976,67f41aadb805ee4c476ddb19,67fe6e666cecbc9329ddf6d6,67fe701944b434c9ccee4417,"[""left"",""left"",""right"",""right"",""up"",""up"",""up"",""left""]","[2.5643000000119116,2.779700000047683,3.381400000035768,3.615200000047679,5.134400000035754,5.834000000000003,7.451200000047663,8.853200000047678]",,calibration,No Brainslug No Barriers No Money,2,100,10.6004,5,0,314,TRUE,na,na,na,na,0,1,1,2,1,No Brainslug No Barriers No Money,0,images/assets/snowy_original.jpg,calibration,10,images/assets/success.jpg,images/assets/gameover.jpg,never,,,,,,,,,,,,,,,,,,,,,,,,,,,,,,,,,,,,,,,,,,,,,,,,
,,,,,,,,,,,,67f41aadb805ee4c476ddb19,001,3,2025-04-15_11h10.52.215,avatar_quest_3AFC_legacy,2022.1.3,Win32,60.97560976,67f41aadb805ee4c476ddb19,67fe6e666cecbc9329ddf6d6,67fe701944b434c9ccee4417,"[""left"",""left"",""right"",""right"",""left""]","[2.1178000000119255,2.7309999999999945,3.399000000000001,3.7314000000357623,4.550400000035751]",,calibration,No Brainslug No Barriers No Money,3,100,6.2398,5,0,49,TRUE,na,na,na,na,0,2,2,0,1,No Brainslug No Barriers No Money,0,images/assets/snowy_original.jpg,calibration,10,images/assets/success.jpg,images/assets/gameover.jpg,never,,,,,,,,,,,,,,,,,,,,,,,,,,,,,,,,,,,,,,,,,,,,,,,,
0.470052083,-0.403645833,1,0,0,instruction_button,,,,,,images/instructions_part2_LSM_taskversion3.jpg,67f41aadb805ee4c476ddb19,001,3,2025-04-15_11h10.52.215,avatar_quest_3AFC_legacy,2022.1.3,Win32,60.97560976,67f41aadb805ee4c476ddb19,67fe6e666cecbc9329ddf6d6,67fe701944b434c9ccee4417,,,,,,,,,,,,,,,,,,,,,,,,,,,,,,0,0,0,0,1,,,,,,,,,,,,,,,,,,,,,,,,,,,,,,,,,,,,,,,,,,,
,,,,,,,,,,,,67f41aadb805ee4c476ddb19,001,3,2025-04-15_11h10.52.215,avatar_quest_3AFC_legacy,2022.1.3,Win32,60.97560976,67f41aadb805ee4c476ddb19,67fe6e666cecbc9329ddf6d6,67fe701944b434c9ccee4417,,,,,,,,,,,,,,,,,,,,,,No Brainslug Difficult 2 No Money,12,images/assets/snowy_original.jpg,learning,20,images/assets/success.jpg,images/assets/gameover.jpg,,,,,,,,With Brainslug Difficult 2 With Money,With Brainslug Difficult 1 No Money,right,4.7194,"[""With Brainslug Difficult 1 No Money"",""With Brainslug Difficult 2 No Money""]",0,0,0,8,1,,,,,,,,,,,,,,,,,,,,,,,,,,,,,,,,
,,,,,,,,,,,,67f41aadb805ee4c476ddb19,001,3,2025-04-15_11h10.52.215,avatar_quest_3AFC_legacy,2022.1.3,Win32,60.97560976,67f41aadb805ee4c476ddb19,67fe6e666cecbc9329ddf6d6,67fe701944b434c9ccee4417,,,,,,,,,,,,,,,,,,,,,,No Brainslug Difficult 2 With Money,12,images/assets/snowy_money.jpg,learning,20,images/assets/success_money.jpg,images/assets/gameover.jpg,,,,,,,,,,,,,0,1,1,7,1,,,,,,,,,,,,,,,,,,,,,,,,,,,,,,,,
,,,,,,,,,,,,67f41aadb805ee4c476ddb19,001,3,2025-04-15_11h10.52.215,avatar_quest_3AFC_legacy,2022.1.3,Win32,60.97560976,67f41aadb805ee4c476ddb19,67fe6e666cecbc9329ddf6d6,67fe701944b434c9ccee4417,,,,,,,,,,,,,,,,,,,,,,With Brainslug Difficult 1 With Money,6,images/assets/snowy_money.jpg,learning,20,images/assets/success_money.jpg,images/assets/gameover.jpg,,,,,,,,,,,,,0,2,2,0,1,,,,,,,,,,,,,,,,,,,,,,,,,,,,,,,,
,,,,,,,,,,,,67f41aadb805ee4c476ddb19,001,3,2025-04-15_11h10.52.215,avatar_quest_3AFC_legacy,2022.1.3,Win32,60.97560976,67f41aadb805ee4c476ddb19,67fe6e666cecbc9329ddf6d6,67fe701944b434c9ccee4417,,,,,,,,,,,,,,,,,,,,,,No Brainslug No Barriers With Money,0,images/assets/snowy_money.jpg,learning,10,images/assets/success_money.jpg,images/assets/gameover.jpg,,,,,,,,,,,,,0,3,3,9,1,,,,,,,,,,,,,,,,,,,,,,,,,,,,,,,,
,,,,,,,,,,,,67f41aadb805ee4c476ddb19,001,3,2025-04-15_11h10.52.215,avatar_quest_3AFC_legacy,2022.1.3,Win32,60.97560976,67f41aadb805ee4c476ddb19,67fe6e666cecbc9329ddf6d6,67fe701944b434c9ccee4417,,,,,,,,,,,,,,,,,,,,,,No Brainslug No Barriers No Money,0,images/assets/snowy_original.jpg,learning,10,images/assets/success.jpg,images/assets/gameover.jpg,,,,,,,,,,,,,0,4,4,10,1,,,,,,,,,,,,,,,,,,,,,,,,,,,,,,,,
,,,,,,,,,,,,67f41aadb805ee4c476ddb19,001,3,2025-04-15_11h10.52.215,avatar_quest_3AFC_legacy,2022.1.3,Win32,60.97560976,67f41aadb805ee4c476ddb19,67fe6e666cecbc9329ddf6d6,67fe701944b434c9ccee4417,,,,,,,,,,,,,,,,,,,,,,With Brainslug Difficult 2 No Money,12,images/assets/snowy_original.jpg,learning,20,images/assets/success.jpg,images/assets/gameover.jpg,,,,,,,,,,,,,0,5,5,3,1,,,,,,,,,,,,,,,,,,,,,,,,,,,,,,,,
,,,,,,,,,,,,67f41aadb805ee4c476ddb19,001,3,2025-04-15_11h10.52.215,avatar_quest_3AFC_legacy,2022.1.3,Win32,60.97560976,67f41aadb805ee4c476ddb19,67fe6e666cecbc9329ddf6d6,67fe701944b434c9ccee4417,,,,,,,,,,,,,,,,,,,,,,With Brainslug Difficult 1 No Money,6,images/assets/snowy_original.jpg,learning,20,images/assets/success.jpg,images/assets/gameover.jpg,,,,,,,,,,,,,0,6,6,1,1,,,,,,,,,,,,,,,,,,,,,,,,,,,,,,,,
,,,,,,,,,,,,67f41aadb805ee4c476ddb19,001,3,2025-04-15_11h10.52.215,avatar_quest_3AFC_legacy,2022.1.3,Win32,60.97560976,67f41aadb805ee4c476ddb19,67fe6e666cecbc9329ddf6d6,67fe701944b434c9ccee4417,,,,,,,,,,,,,,,,,,,,,,With Brainslug No Barriers With Money,0,images/assets/snowy_money.jpg,learning,10,images/assets/success_money.jpg,images/assets/gameover.jpg,,,,,,,,,,,,,0,7,7,4,1,,,,,,,,,,,,,,,,,,,,,,,,,,,,,,,,
,,,,,,,,,,,,67f41aadb805ee4c476ddb19,001,3,2025-04-15_11h10.52.215,avatar_quest_3AFC_legacy,2022.1.3,Win32,60.97560976,67f41aadb805ee4c476ddb19,67fe6e666cecbc9329ddf6d6,67fe701944b434c9ccee4417,,,,,,,,,,,,,,,,,,,,,,With Brainslug No Barriers No Money,0,images/assets/snowy_original.jpg,learning,10,images/assets/success.jpg,images/assets/gameover.jpg,,,,,,,,,,,,,0,8,8,5,1,,,,,,,,,,,,,,,,,,,,,,,,,,,,,,,,
,,,,,,,,,,,,67f41aadb805ee4c476ddb19,001,3,2025-04-15_11h10.52.215,avatar_quest_3AFC_legacy,2022.1.3,Win32,60.97560976,67f41aadb805ee4c476ddb19,67fe6e666cecbc9329ddf6d6,67fe701944b434c9ccee4417,"[""left"",""right"",""right"",""right"",""right"",""right"",""right"",""left"",""left"",""right"",""left"",""left"",""right""]","[2.693399999976151,3.7488000000119257,4.977499999999992,5.754699999988077,5.9413999999761415,6.158800000011922,6.641199999988089,7.3629999999999995,7.920199999988085,8.273300000011915,10.16730000001192,10.40939999997616,10.921500000000009]",,calibration,With Brainslug Difficult 2 With Money,4,11.11795,11.1335,6,4,0,FALSE,na,na,na,na,,,,,,,,,,,,,,,,,,,,,,,,,,,,,,,,,,0,0,0,0,1,,,,,,,,,,,,,,,,,,,,,,,
,,,,,,,,,,,,67f41aadb805ee4c476ddb19,001,3,2025-04-15_11h10.52.215,avatar_quest_3AFC_legacy,2022.1.3,Win32,60.97560976,67f41aadb805ee4c476ddb19,67fe6e666cecbc9329ddf6d6,67fe701944b434c9ccee4417,,,,,,,,,,,,,,,,,,,,,,With Brainslug Difficult 2 With Money,12,images/assets/snowy_money.jpg,learning,20,images/assets/success_money.jpg,images/assets/gameover.jpg,,,,,,,,,,,,,0,9,9,2,1,,,,,,,,,,,,,,,,,,,,,,,,,,,,,,,,
,,,,,,,,,,,,67f41aadb805ee4c476ddb19,001,3,2025-04-15_11h10.52.215,avatar_quest_3AFC_legacy,2022.1.3,Win32,60.97560976,67f41aadb805ee4c476ddb19,67fe6e666cecbc9329ddf6d6,67fe701944b434c9ccee4417,,,,,,,,,,,,,,,,,,,,,,No Brainslug Difficult 1 No Money,6,images/assets/snowy_original.jpg,learning,20,images/assets/success.jpg,images/assets/gameover.jpg,,,,,,,,,,,,,0,10,10,6,1,,,,,,,,,,,,,,,,,,,,,,,,,,,,,,,,
,,,,,,,,,,,,67f41aadb805ee4c476ddb19,001,3,2025-04-15_11h10.52.215,avatar_quest_3AFC_legacy,2022.1.3,Win32,60.97560976,67f41aadb805ee4c476ddb19,67fe6e666cecbc9329ddf6d6,67fe701944b434c9ccee4417,,,,,,,,,,,,,,,,,,,,,,,,,,,,,,,,,,,,,,,,,,,,,,,,,,,,,,,0,0,0,0,1,,,,,,,,,,,,,,,,,,
,,,,,,,,,,,,67f41aadb805ee4c476ddb19,001,3,2025-04-15_11h10.52.215,avatar_quest_3AFC_legacy,2022.1.3,Win32,60.97560976,67f41aadb805ee4c476ddb19,67fe6e666cecbc9329ddf6d6,67fe701944b434c9ccee4417,,,,,,,,,,,,,,,,,,,,,,No Brainslug No Barriers With Money,0,images/assets/snowy_money.jpg,learning,10,images/assets/success_money.jpg,images/assets/gameover.jpg,,,,,,,,With Brainslug Difficult 1 No Money,With Brainslug Difficult 1 No Money,left,8.9132,"[""With Brainslug Difficult 2 No Money"",""With Brainslug Difficult 2 With Money""]",0,0,0,9,1,,,,,,,,,,,,,,,,,,,,,,,,,,,,,,,,
,,,,,,,,,,,,67f41aadb805ee4c476ddb19,001,3,2025-04-15_11h10.52.215,avatar_quest_3AFC_legacy,2022.1.3,Win32,60.97560976,67f41aadb805ee4c476ddb19,67fe6e666cecbc9329ddf6d6,67fe701944b434c9ccee4417,,,,,,,,,,,,,,,,,,,,,,With Brainslug Difficult 1 With Money,6,images/assets/snowy_money.jpg,learning,20,images/assets/success_money.jpg,images/assets/gameover.jpg,,,,,,,,,,,,,0,1,1,0,1,,,,,,,,,,,,,,,,,,,,,,,,,,,,,,,,
,,,,,,,,,,,,67f41aadb805ee4c476ddb19,001,3,2025-04-15_11h10.52.215,avatar_quest_3AFC_legacy,2022.1.3,Win32,60.97560976,67f41aadb805ee4c476ddb19,67fe6e666cecbc9329ddf6d6,67fe701944b434c9ccee4417,,,,,,,,,,,,,,,,,,,,,,With Brainslug No Barriers No Money,0,images/assets/snowy_original.jpg,learning,10,images/assets/success.jpg,images/assets/gameover.jpg,,,,,,,,,,,,,0,2,2,5,1,,,,,,,,,,,,,,,,,,,,,,,,,,,,,,,,
,,,,,,,,,,,,67f41aadb805ee4c476ddb19,001,3,2025-04-15_11h10.52.215,avatar_quest_3AFC_legacy,2022.1.3,Win32,60.97560976,67f41aadb805ee4c476ddb19,67fe6e666cecbc9329ddf6d6,67fe701944b434c9ccee4417,,,,,,,,,,,,,,,,,,,,,,No Brainslug Difficult 2 With Money,12,images/assets/snowy_money.jpg,learning,20,images/assets/success_money.jpg,images/assets/gameover.jpg,,,,,,,,,,,,,0,3,3,7,1,,,,,,,,,,,,,,,,,,,,,,,,,,,,,,,,
,,,,,,,,,,,,67f41aadb805ee4c476ddb19,001,3,2025-04-15_11h10.52.215,avatar_quest_3AFC_legacy,2022.1.3,Win32,60.97560976,67f41aadb805ee4c476ddb19,67fe6e666cecbc9329ddf6d6,67fe701944b434c9ccee4417,,,,,,,,,,,,,,,,,,,,,,With Brainslug No Barriers With Money,0,images/assets/snowy_money.jpg,learning,10,images/assets/success_money.jpg,images/assets/gameover.jpg,,,,,,,,,,,,,0,4,4,4,1,,,,,,,,,,,,,,,,,,,,,,,,,,,,,,,,
,,,,,,,,,,,,67f41aadb805ee4c476ddb19,001,3,2025-04-15_11h10.52.215,avatar_quest_3AFC_legacy,2022.1.3,Win32,60.97560976,67f41aadb805ee4c476ddb19,67fe6e666cecbc9329ddf6d6,67fe701944b434c9ccee4417,,,,,,,,,,,,,,,,,,,,,,No Brainslug Difficult 1 No Money,6,images/assets/snowy_original.jpg,learning,20,images/assets/success.jpg,images/assets/gameover.jpg,,,,,,,,,,,,,0,5,5,6,1,,,,,,,,,,,,,,,,,,,,,,,,,,,,,,,,
,,,,,,,,,,,,67f41aadb805ee4c476ddb19,001,3,2025-04-15_11h10.52.215,avatar_quest_3AFC_legacy,2022.1.3,Win32,60.97560976,67f41aadb805ee4c476ddb19,67fe6e666cecbc9329ddf6d6,67fe701944b434c9ccee4417,,,,,,,,,,,,,,,,,,,,,,No Brainslug Difficult 2 No Money,12,images/assets/snowy_original.jpg,learning,20,images/assets/success.jpg,images/assets/gameover.jpg,,,,,,,,,,,,,0,6,6,8,1,,,,,,,,,,,,,,,,,,,,,,,,,,,,,,,,
,,,,,,,,,,,,67f41aadb805ee4c476ddb19,001,3,2025-04-15_11h10.52.215,avatar_quest_3AFC_legacy,2022.1.3,Win32,60.97560976,67f41aadb805ee4c476ddb19,67fe6e666cecbc9329ddf6d6,67fe701944b434c9ccee4417,,,,,,,,,,,,,,,,,,,,,,With Brainslug Difficult 2 With Money,12,images/assets/snowy_money.jpg,learning,20,images/assets/success_money.jpg,images/assets/gameover.jpg,,,,,,,,,,,,,0,7,7,2,1,,,,,,,,,,,,,,,,,,,,,,,,,,,,,,,,
,,,,,,,,,,,,67f41aadb805ee4c476ddb19,001,3,2025-04-15_11h10.52.215,avatar_quest_3AFC_legacy,2022.1.3,Win32,60.97560976,67f41aadb805ee4c476ddb19,67fe6e666cecbc9329ddf6d6,67fe701944b434c9ccee4417,,,,,,,,,,,,,,,,,,,,,,With Brainslug Difficult 2 No Money,12,images/assets/snowy_original.jpg,learning,20,images/assets/success.jpg,images/assets/gameover.jpg,,,,,,,,,,,,,0,8,8,3,1,,,,,,,,,,,,,,,,,,,,,,,,,,,,,,,,
,,,,,,,,,,,,67f41aadb805ee4c476ddb19,001,3,2025-04-15_11h10.52.215,avatar_quest_3AFC_legacy,2022.1.3,Win32,60.97560976,67f41aadb805ee4c476ddb19,67fe6e666cecbc9329ddf6d6,67fe701944b434c9ccee4417,"[""left"",""right"",""right"",""right"",""left"",""left"",""right"",""right"",""right"",""left"",""left"",""left"",""left"",""left"",""left""]","[1.1461999999880845,1.728099999964229,1.8896999999880677,2.067699999988065,2.7260999999642195,2.9954999999999927,3.622000000000014,3.821300000011888,4.188599999964197,4.852499999999964,5.028599999964229,5.189800000011928,5.750599999964209,6.037499999999966,6.258699999988039]",,calibration,With Brainslug Difficult 1 No Money,5,11.11795,6.9956,7,2,0,TRUE,na,na,na,na,,,,,,,,,,,,,,,,,,,,,,,,,,,,,,,,,,0,0,0,0,1,,,,,,,,,,,,,,,,,,,,,,,
,,,,,,,,,,,,67f41aadb805ee4c476ddb19,001,3,2025-04-15_11h10.52.215,avatar_quest_3AFC_legacy,2022.1.3,Win32,60.97560976,67f41aadb805ee4c476ddb19,67fe6e666cecbc9329ddf6d6,67fe701944b434c9ccee4417,,,,,,,,,,,,,,,,,,,,,,With Brainslug Difficult 1 No Money,6,images/assets/snowy_original.jpg,learning,20,images/assets/success.jpg,images/assets/gameover.jpg,,,,,,,,,,,,,0,9,9,1,1,,,,,,,,,,,,,,,,,,,,,,,,,,,,,,,,
,,,,,,,,,,,,67f41aadb805ee4c476ddb19,001,3,2025-04-15_11h10.52.215,avatar_quest_3AFC_legacy,2022.1.3,Win32,60.97560976,67f41aadb805ee4c476ddb19,67fe6e666cecbc9329ddf6d6,67fe701944b434c9ccee4417,,,,,,,,,,,,,,,,,,,,,,No Brainslug No Barriers No Money,0,images/assets/snowy_original.jpg,learning,10,images/assets/success.jpg,images/assets/gameover.jpg,,,,,,,,,,,,,0,10,10,10,1,,,,,,,,,,,,,,,,,,,,,,,,,,,,,,,,
,,,,,,,,,,,,67f41aadb805ee4c476ddb19,001,3,2025-04-15_11h10.52.215,avatar_quest_3AFC_legacy,2022.1.3,Win32,60.97560976,67f41aadb805ee4c476ddb19,67fe6e666cecbc9329ddf6d6,67fe701944b434c9ccee4417,,,,,,,,,,,,,,,,,,,,,,,,,,,,,,,,,,,,,,,,,,,,,,,,,,,,,,,1,0,1,0,1,,,,,,,,,,,,,,,,,,
,,,,,,,,,,,,67f41aadb805ee4c476ddb19,001,3,2025-04-15_11h10.52.215,avatar_quest_3AFC_legacy,2022.1.3,Win32,60.97560976,67f41aadb805ee4c476ddb19,67fe6e666cecbc9329ddf6d6,67fe701944b434c9ccee4417,,,,,,,,,,,,,,,,,,,,,,No Brainslug Difficult 1 No Money,6,images/assets/snowy_original.jpg,learning,20,images/assets/success.jpg,images/assets/gameover.jpg,,,,,,,,With Brainslug Difficult 2 No Money,With Brainslug Difficult 1 No Money,down,7.3192,"[""With Brainslug Difficult 1 No Money"",""With Brainslug Difficult 2 With Money""]",0,0,0,6,1,,,,,,,,,,,,,,,,,,,,,,,,,,,,,,,,
,,,,,,,,,,,,67f41aadb805ee4c476ddb19,001,3,2025-04-15_11h10.52.215,avatar_quest_3AFC_legacy,2022.1.3,Win32,60.97560976,67f41aadb805ee4c476ddb19,67fe6e666cecbc9329ddf6d6,67fe701944b434c9ccee4417,,,,,,,,,,,,,,,,,,,,,,No Brainslug Difficult 2 No Money,12,images/assets/snowy_original.jpg,learning,20,images/assets/success.jpg,images/assets/gameover.jpg,,,,,,,,,,,,,0,1,1,8,1,,,,,,,,,,,,,,,,,,,,,,,,,,,,,,,,
,,,,,,,,,,,,67f41aadb805ee4c476ddb19,001,3,2025-04-15_11h10.52.215,avatar_quest_3AFC_legacy,2022.1.3,Win32,60.97560976,67f41aadb805ee4c476ddb19,67fe6e666cecbc9329ddf6d6,67fe701944b434c9ccee4417,,,,,,,,,,,,,,,,,,,,,,With Brainslug Difficult 2 With Money,12,images/assets/snowy_money.jpg,learning,20,images/assets/success_money.jpg,images/assets/gameover.jpg,,,,,,,,,,,,,0,2,2,2,1,,,,,,,,,,,,,,,,,,,,,,,,,,,,,,,,
,,,,,,,,,,,,67f41aadb805ee4c476ddb19,001,3,2025-04-15_11h10.52.215,avatar_quest_3AFC_legacy,2022.1.3,Win32,60.97560976,67f41aadb805ee4c476ddb19,67fe6e666cecbc9329ddf6d6,67fe701944b434c9ccee4417,,,,,,,,,,,,,,,,,,,,,,No Brainslug No Barriers With Money,0,images/assets/snowy_money.jpg,learning,10,images/assets/success_money.jpg,images/assets/gameover.jpg,,,,,,,,,,,,,0,3,3,9,1,,,,,,,,,,,,,,,,,,,,,,,,,,,,,,,,
,,,,,,,,,,,,67f41aadb805ee4c476ddb19,001,3,2025-04-15_11h10.52.215,avatar_quest_3AFC_legacy,2022.1.3,Win32,60.97560976,67f41aadb805ee4c476ddb19,67fe6e666cecbc9329ddf6d6,67fe701944b434c9ccee4417,,,,,,,,,,,,,,,,,,,,,,With Brainslug Difficult 1 No Money,6,images/assets/snowy_original.jpg,learning,20,images/assets/success.jpg,images/assets/gameover.jpg,,,,,,,,,,,,,0,4,4,1,1,,,,,,,,,,,,,,,,,,,,,,,,,,,,,,,,
,,,,,,,,,,,,67f41aadb805ee4c476ddb19,001,3,2025-04-15_11h10.52.215,avatar_quest_3AFC_legacy,2022.1.3,Win32,60.97560976,67f41aadb805ee4c476ddb19,67fe6e666cecbc9329ddf6d6,67fe701944b434c9ccee4417,,,,,,,,,,,,,,,,,,,,,,No Brainslug No Barriers No Money,0,images/assets/snowy_original.jpg,learning,10,images/assets/success.jpg,images/assets/gameover.jpg,,,,,,,,,,,,,0,5,5,10,1,,,,,,,,,,,,,,,,,,,,,,,,,,,,,,,,
,,,,,,,,,,,,67f41aadb805ee4c476ddb19,001,3,2025-04-15_11h10.52.215,avatar_quest_3AFC_legacy,2022.1.3,Win32,60.97560976,67f41aadb805ee4c476ddb19,67fe6e666cecbc9329ddf6d6,67fe701944b434c9ccee4417,,,,,,,,,,,,,,,,,,,,,,With Brainslug Difficult 1 With Money,6,images/assets/snowy_money.jpg,learning,20,images/assets/success_money.jpg,images/assets/gameover.jpg,,,,,,,,,,,,,0,6,6,0,1,,,,,,,,,,,,,,,,,,,,,,,,,,,,,,,,
,,,,,,,,,,,,67f41aadb805ee4c476ddb19,001,3,2025-04-15_11h10.52.215,avatar_quest_3AFC_legacy,2022.1.3,Win32,60.97560976,67f41aadb805ee4c476ddb19,67fe6e666cecbc9329ddf6d6,67fe701944b434c9ccee4417,,,,,,,,,,,,,,,,,,,,,,With Brainslug No Barriers No Money,0,images/assets/snowy_original.jpg,learning,10,images/assets/success.jpg,images/assets/gameover.jpg,,,,,,,,,,,,,0,7,7,5,1,,,,,,,,,,,,,,,,,,,,,,,,,,,,,,,,
,,,,,,,,,,,,67f41aadb805ee4c476ddb19,001,3,2025-04-15_11h10.52.215,avatar_quest_3AFC_legacy,2022.1.3,Win32,60.97560976,67f41aadb805ee4c476ddb19,67fe6e666cecbc9329ddf6d6,67fe701944b434c9ccee4417,,,,,,,,,,,,,,,,,,,,,,With Brainslug No Barriers With Money,0,images/assets/snowy_money.jpg,learning,10,images/assets/success_money.jpg,images/assets/gameover.jpg,,,,,,,,,,,,,0,8,8,4,1,,,,,,,,,,,,,,,,,,,,,,,,,,,,,,,,
,,,,,,,,,,,,67f41aadb805ee4c476ddb19,001,3,2025-04-15_11h10.52.215,avatar_quest_3AFC_legacy,2022.1.3,Win32,60.97560976,67f41aadb805ee4c476ddb19,67fe6e666cecbc9329ddf6d6,67fe701944b434c9ccee4417,,,,,,,,,,,,,,,,,,,,,,No Brainslug Difficult 2 With Money,12,images/assets/snowy_money.jpg,learning,20,images/assets/success_money.jpg,images/assets/gameover.jpg,,,,,,,,,,,,,0,9,9,7,1,,,,,,,,,,,,,,,,,,,,,,,,,,,,,,,,
,,,,,,,,,,,,67f41aadb805ee4c476ddb19,001,3,2025-04-15_11h10.52.215,avatar_quest_3AFC_legacy,2022.1.3,Win32,60.97560976,67f41aadb805ee4c476ddb19,67fe6e666cecbc9329ddf6d6,67fe701944b434c9ccee4417,"[""left"",""left"",""left"",""left"",""left"",""left"",""left"",""left"",""left"",""right"",""right"",""right"",""right"",""right"",""right"",""right"",""right"",""right"",""right"",""right"",""left"",""left"",""left"",""right""]","[0.7346000000238178,0.9901000000238582,1.239499999999964,1.6563000000119246,1.9989000000357464,2.2056000000238214,2.4774000000357432,3.016600000023857,3.338800000011929,4.040600000023858,4.249700000047653,4.410900000035781,4.642200000047694,6.019400000035773,7.11720000004766,7.283400000035783,7.736800000011897,7.937100000023861,8.162300000011896,9.20590000003574,9.912400000035746,10.135600000023828,10.321300000011888,10.679200000047672]",,calibration,With Brainslug Difficult 2 No Money,6,11.11795,11.1337,8,4,0,FALSE,na,na,na,na,,,,,,,,,,,,,,,,,,,,,,,,,,,,,,,,,,0,0,0,0,1,,,,,,,,,,,,,,,,,,,,,,,
,,,,,,,,,,,,67f41aadb805ee4c476ddb19,001,3,2025-04-15_11h10.52.215,avatar_quest_3AFC_legacy,2022.1.3,Win32,60.97560976,67f41aadb805ee4c476ddb19,67fe6e666cecbc9329ddf6d6,67fe701944b434c9ccee4417,,,,,,,,,,,,,,,,,,,,,,With Brainslug Difficult 2 No Money,12,images/assets/snowy_original.jpg,learning,20,images/assets/success.jpg,images/assets/gameover.jpg,,,,,,,,,,,,,0,10,10,3,1,,,,,,,,,,,,,,,,,,,,,,,,,,,,,,,,
,,,,,,,,,,,,67f41aadb805ee4c476ddb19,001,3,2025-04-15_11h10.52.215,avatar_quest_3AFC_legacy,2022.1.3,Win32,60.97560976,67f41aadb805ee4c476ddb19,67fe6e666cecbc9329ddf6d6,67fe701944b434c9ccee4417,,,,,,,,,,,,,,,,,,,,,,,,,,,,,,,,,,,,,,,,,,,,,,,,,,,,,,,2,0,2,0,1,,,,,,,,,,,,,,,,,,
,,,,,,,,,,,,67f41aadb805ee4c476ddb19,001,3,2025-04-15_11h10.52.215,avatar_quest_3AFC_legacy,2022.1.3,Win32,60.97560976,67f41aadb805ee4c476ddb19,67fe6e666cecbc9329ddf6d6,67fe701944b434c9ccee4417,,,,,,,,,,,,,,,,,,,,,,With Brainslug Difficult 2 No Money,12,images/assets/snowy_original.jpg,learning,20,images/assets/success.jpg,images/assets/gameover.jpg,,,,,,,,With Brainslug Difficult 1 No Money,With Brainslug Difficult 1 No Money,left,1.5488,"[""With Brainslug Difficult 2 No Money"",""With Brainslug Difficult 2 With Money""]",0,0,0,3,1,,,,,,,,,,,,,,,,,,,,,,,,,,,,,,,,
,,,,,,,,,,,,67f41aadb805ee4c476ddb19,001,3,2025-04-15_11h10.52.215,avatar_quest_3AFC_legacy,2022.1.3,Win32,60.97560976,67f41aadb805ee4c476ddb19,67fe6e666cecbc9329ddf6d6,67fe701944b434c9ccee4417,,,,,,,,,,,,,,,,,,,,,,With Brainslug No Barriers No Money,0,images/assets/snowy_original.jpg,learning,10,images/assets/success.jpg,images/assets/gameover.jpg,,,,,,,,,,,,,0,1,1,5,1,,,,,,,,,,,,,,,,,,,,,,,,,,,,,,,,
,,,,,,,,,,,,67f41aadb805ee4c476ddb19,001,3,2025-04-15_11h10.52.215,avatar_quest_3AFC_legacy,2022.1.3,Win32,60.97560976,67f41aadb805ee4c476ddb19,67fe6e666cecbc9329ddf6d6,67fe701944b434c9ccee4417,,,,,,,,,,,,,,,,,,,,,,No Brainslug Difficult 2 With Money,12,images/assets/snowy_money.jpg,learning,20,images/assets/success_money.jpg,images/assets/gameover.jpg,,,,,,,,,,,,,0,2,2,7,1,,,,,,,,,,,,,,,,,,,,,,,,,,,,,,,,
,,,,,,,,,,,,67f41aadb805ee4c476ddb19,001,3,2025-04-15_11h10.52.215,avatar_quest_3AFC_legacy,2022.1.3,Win32,60.97560976,67f41aadb805ee4c476ddb19,67fe6e666cecbc9329ddf6d6,67fe701944b434c9ccee4417,,,,,,,,,,,,,,,,,,,,,,With Brainslug Difficult 2 With Money,12,images/assets/snowy_money.jpg,learning,20,images/assets/success_money.jpg,images/assets/gameover.jpg,,,,,,,,,,,,,0,3,3,2,1,,,,,,,,,,,,,,,,,,,,,,,,,,,,,,,,
,,,,,,,,,,,,67f41aadb805ee4c476ddb19,001,3,2025-04-15_11h10.52.215,avatar_quest_3AFC_legacy,2022.1.3,Win32,60.97560976,67f41aadb805ee4c476ddb19,67fe6e666cecbc9329ddf6d6,67fe701944b434c9ccee4417,,,,,,,,,,,,,,,,,,,,,,With Brainslug Difficult 1 With Money,6,images/assets/snowy_money.jpg,learning,20,images/assets/success_money.jpg,images/assets/gameover.jpg,,,,,,,,,,,,,0,4,4,0,1,,,,,,,,,,,,,,,,,,,,,,,,,,,,,,,,
,,,,,,,,,,,,67f41aadb805ee4c476ddb19,001,3,2025-04-15_11h10.52.215,avatar_quest_3AFC_legacy,2022.1.3,Win32,60.97560976,67f41aadb805ee4c476ddb19,67fe6e666cecbc9329ddf6d6,67fe701944b434c9ccee4417,,,,,,,,,,,,,,,,,,,,,,No Brainslug Difficult 1 No Money,6,images/assets/snowy_original.jpg,learning,20,images/assets/success.jpg,images/assets/gameover.jpg,,,,,,,,,,,,,0,5,5,6,1,,,,,,,,,,,,,,,,,,,,,,,,,,,,,,,,
,,,,,,,,,,,,67f41aadb805ee4c476ddb19,001,3,2025-04-15_11h10.52.215,avatar_quest_3AFC_legacy,2022.1.3,Win32,60.97560976,67f41aadb805ee4c476ddb19,67fe6e666cecbc9329ddf6d6,67fe701944b434c9ccee4417,"[""left"",""left"",""left"",""right"",""right"",""right"",""right"",""right"",""left"",""left"",""left"",""left"",""right"",""right"",""right"",""right"",""right"",""left"",""left"",""left"",""left""]","[0.512599999964209,0.6957999999522713,0.8996999999880586,1.2348999999761077,1.4989999999999668,1.7276999999880331,1.9143999999761263,2.1225000000000023,2.663799999952289,2.832499999999982,2.9826999999880286,3.1745999999641867,3.4158999999761477,3.649499999999989,3.8025999999642295,3.9803999999761572,4.137899999976128,4.669799999952318,4.822199999988072,4.954499999999996,5.11749999999995]",,calibration,With Brainslug Difficult 1 No Money,7,11.11795,5.9862,12,2,0,TRUE,na,na,na,na,,,,,,,,,,,,,,,,,,,,,,,,,,,,,,,,,,0,0,0,0,1,,,,,,,,,,,,,,,,,,,,,,,
,,,,,,,,,,,,67f41aadb805ee4c476ddb19,001,3,2025-04-15_11h10.52.215,avatar_quest_3AFC_legacy,2022.1.3,Win32,60.97560976,67f41aadb805ee4c476ddb19,67fe6e666cecbc9329ddf6d6,67fe701944b434c9ccee4417,,,,,,,,,,,,,,,,,,,,,,With Brainslug Difficult 1 No Money,6,images/assets/snowy_original.jpg,learning,20,images/assets/success.jpg,images/assets/gameover.jpg,,,,,,,,,,,,,0,6,6,1,1,,,,,,,,,,,,,,,,,,,,,,,,,,,,,,,,
,,,,,,,,,,,,67f41aadb805ee4c476ddb19,001,3,2025-04-15_11h10.52.215,avatar_quest_3AFC_legacy,2022.1.3,Win32,60.97560976,67f41aadb805ee4c476ddb19,67fe6e666cecbc9329ddf6d6,67fe701944b434c9ccee4417,,,,,,,,,,,,,,,,,,,,,,No Brainslug No Barriers With Money,0,images/assets/snowy_money.jpg,learning,10,images/assets/success_money.jpg,images/assets/gameover.jpg,,,,,,,,,,,,,0,7,7,9,1,,,,,,,,,,,,,,,,,,,,,,,,,,,,,,,,
,,,,,,,,,,,,67f41aadb805ee4c476ddb19,001,3,2025-04-15_11h10.52.215,avatar_quest_3AFC_legacy,2022.1.3,Win32,60.97560976,67f41aadb805ee4c476ddb19,67fe6e666cecbc9329ddf6d6,67fe701944b434c9ccee4417,,,,,,,,,,,,,,,,,,,,,,No Brainslug Difficult 2 No Money,12,images/assets/snowy_original.jpg,learning,20,images/assets/success.jpg,images/assets/gameover.jpg,,,,,,,,,,,,,0,8,8,8,1,,,,,,,,,,,,,,,,,,,,,,,,,,,,,,,,
,,,,,,,,,,,,67f41aadb805ee4c476ddb19,001,3,2025-04-15_11h10.52.215,avatar_quest_3AFC_legacy,2022.1.3,Win32,60.97560976,67f41aadb805ee4c476ddb19,67fe6e666cecbc9329ddf6d6,67fe701944b434c9ccee4417,,,,,,,,,,,,,,,,,,,,,,With Brainslug No Barriers With Money,0,images/assets/snowy_money.jpg,learning,10,images/assets/success_money.jpg,images/assets/gameover.jpg,,,,,,,,,,,,,0,9,9,4,1,,,,,,,,,,,,,,,,,,,,,,,,,,,,,,,,
,,,,,,,,,,,,67f41aadb805ee4c476ddb19,001,3,2025-04-15_11h10.52.215,avatar_quest_3AFC_legacy,2022.1.3,Win32,60.97560976,67f41aadb805ee4c476ddb19,67fe6e666cecbc9329ddf6d6,67fe701944b434c9ccee4417,,,,,,,,,,,,,,,,,,,,,,No Brainslug No Barriers No Money,0,images/assets/snowy_original.jpg,learning,10,images/assets/success.jpg,images/assets/gameover.jpg,,,,,,,,,,,,,0,10,10,10,1,,,,,,,,,,,,,,,,,,,,,,,,,,,,,,,,
,,,,,,,,,,,,67f41aadb805ee4c476ddb19,001,3,2025-04-15_11h10.52.215,avatar_quest_3AFC_legacy,2022.1.3,Win32,60.97560976,67f41aadb805ee4c476ddb19,67fe6e666cecbc9329ddf6d6,67fe701944b434c9ccee4417,,,,,,,,,,,,,,,,,,,,,,,,,,,,,,,,,,,,,,,,,,,,,,,,,,,,,,,3,0,3,0,1,,,,,,,,,,,,,,,,,,
,,,,,,,,,,,,67f41aadb805ee4c476ddb19,001,3,2025-04-15_11h10.52.215,avatar_quest_3AFC_legacy,2022.1.3,Win32,60.97560976,67f41aadb805ee4c476ddb19,67fe6e666cecbc9329ddf6d6,67fe701944b434c9ccee4417,,,,,,,,,,,,,,,,,,,,,,With Brainslug Difficult 2 No Money,12,images/assets/snowy_original.jpg,learning,20,images/assets/success.jpg,images/assets/gameover.jpg,,,,,,,,With Brainslug Difficult 1 No Money,With Brainslug Difficult 1 No Money,left,1.9507,"[""With Brainslug Difficult 2 No Money"",""With Brainslug Difficult 2 With Money""]",0,0,0,3,1,,,,,,,,,,,,,,,,,,,,,,,,,,,,,,,,
,,,,,,,,,,,,67f41aadb805ee4c476ddb19,001,3,2025-04-15_11h10.52.215,avatar_quest_3AFC_legacy,2022.1.3,Win32,60.97560976,67f41aadb805ee4c476ddb19,67fe6e666cecbc9329ddf6d6,67fe701944b434c9ccee4417,"[""left"",""left"",""left"",""right"",""right"",""right"",""left"",""left"",""left"",""left"",""right"",""right"",""right"",""right"",""right"",""left"",""left"",""left"",""left"",""left""]","[0.5304999999999609,0.7288999999761359,1.0771000000237905,1.3733999999761295,1.6306999999880532,1.8363999999761518,2.287999999999954,2.5219999999999914,2.7166000000237887,2.9051999999880422,3.1876999999880695,3.412100000023827,3.593600000023798,3.73419999998805,3.9098000000118986,4.294499999999971,4.502699999988067,4.686600000023816,4.840600000023812,5.006399999976111]",,calibration,With Brainslug Difficult 1 No Money,8,11.11795,5.7527,13,1,0,TRUE,na,na,na,na,,,,,,,,,,,,,,,,,,,,,,,,,,,,,,,,,,0,0,0,0,1,,,,,,,,,,,,,,,,,,,,,,,
,,,,,,,,,,,,67f41aadb805ee4c476ddb19,001,3,2025-04-15_11h10.52.215,avatar_quest_3AFC_legacy,2022.1.3,Win32,60.97560976,67f41aadb805ee4c476ddb19,67fe6e666cecbc9329ddf6d6,67fe701944b434c9ccee4417,,,,,,,,,,,,,,,,,,,,,,With Brainslug Difficult 1 No Money,6,images/assets/snowy_original.jpg,learning,20,images/assets/success.jpg,images/assets/gameover.jpg,,,,,,,,,,,,,0,1,1,1,1,,,,,,,,,,,,,,,,,,,,,,,,,,,,,,,,
,,,,,,,,,,,,67f41aadb805ee4c476ddb19,001,3,2025-04-15_11h10.52.215,avatar_quest_3AFC_legacy,2022.1.3,Win32,60.97560976,67f41aadb805ee4c476ddb19,67fe6e666cecbc9329ddf6d6,67fe701944b434c9ccee4417,,,,,,,,,,,,,,,,,,,,,,No Brainslug No Barriers No Money,0,images/assets/snowy_original.jpg,learning,10,images/assets/success.jpg,images/assets/gameover.jpg,,,,,,,,,,,,,0,2,2,10,1,,,,,,,,,,,,,,,,,,,,,,,,,,,,,,,,
,,,,,,,,,,,,67f41aadb805ee4c476ddb19,001,3,2025-04-15_11h10.52.215,avatar_quest_3AFC_legacy,2022.1.3,Win32,60.97560976,67f41aadb805ee4c476ddb19,67fe6e666cecbc9329ddf6d6,67fe701944b434c9ccee4417,,,,,,,,,,,,,,,,,,,,,,No Brainslug Difficult 1 No Money,6,images/assets/snowy_original.jpg,learning,20,images/assets/success.jpg,images/assets/gameover.jpg,,,,,,,,,,,,,0,3,3,6,1,,,,,,,,,,,,,,,,,,,,,,,,,,,,,,,,
,,,,,,,,,,,,67f41aadb805ee4c476ddb19,001,3,2025-04-15_11h10.52.215,avatar_quest_3AFC_legacy,2022.1.3,Win32,60.97560976,67f41aadb805ee4c476ddb19,67fe6e666cecbc9329ddf6d6,67fe701944b434c9ccee4417,,,,,,,,,,,,,,,,,,,,,,No Brainslug Difficult 2 With Money,12,images/assets/snowy_money.jpg,learning,20,images/assets/success_money.jpg,images/assets/gameover.jpg,,,,,,,,,,,,,0,4,4,7,1,,,,,,,,,,,,,,,,,,,,,,,,,,,,,,,,
,,,,,,,,,,,,67f41aadb805ee4c476ddb19,001,3,2025-04-15_11h10.52.215,avatar_quest_3AFC_legacy,2022.1.3,Win32,60.97560976,67f41aadb805ee4c476ddb19,67fe6e666cecbc9329ddf6d6,67fe701944b434c9ccee4417,,,,,,,,,,,,,,,,,,,,,,With Brainslug No Barriers With Money,0,images/assets/snowy_money.jpg,learning,10,images/assets/success_money.jpg,images/assets/gameover.jpg,,,,,,,,,,,,,0,5,5,4,1,,,,,,,,,,,,,,,,,,,,,,,,,,,,,,,,
,,,,,,,,,,,,67f41aadb805ee4c476ddb19,001,3,2025-04-15_11h10.52.215,avatar_quest_3AFC_legacy,2022.1.3,Win32,60.97560976,67f41aadb805ee4c476ddb19,67fe6e666cecbc9329ddf6d6,67fe701944b434c9ccee4417,,,,,,,,,,,,,,,,,,,,,,With Brainslug No Barriers No Money,0,images/assets/snowy_original.jpg,learning,10,images/assets/success.jpg,images/assets/gameover.jpg,,,,,,,,,,,,,0,6,6,5,1,,,,,,,,,,,,,,,,,,,,,,,,,,,,,,,,
,,,,,,,,,,,,67f41aadb805ee4c476ddb19,001,3,2025-04-15_11h10.52.215,avatar_quest_3AFC_legacy,2022.1.3,Win32,60.97560976,67f41aadb805ee4c476ddb19,67fe6e666cecbc9329ddf6d6,67fe701944b434c9ccee4417,,,,,,,,,,,,,,,,,,,,,,With Brainslug Difficult 1 With Money,6,images/assets/snowy_money.jpg,learning,20,images/assets/success_money.jpg,images/assets/gameover.jpg,,,,,,,,,,,,,0,7,7,0,1,,,,,,,,,,,,,,,,,,,,,,,,,,,,,,,,
,,,,,,,,,,,,67f41aadb805ee4c476ddb19,001,3,2025-04-15_11h10.52.215,avatar_quest_3AFC_legacy,2022.1.3,Win32,60.97560976,67f41aadb805ee4c476ddb19,67fe6e666cecbc9329ddf6d6,67fe701944b434c9ccee4417,,,,,,,,,,,,,,,,,,,,,,With Brainslug Difficult 2 With Money,12,images/assets/snowy_money.jpg,learning,20,images/assets/success_money.jpg,images/assets/gameover.jpg,,,,,,,,,,,,,0,8,8,2,1,,,,,,,,,,,,,,,,,,,,,,,,,,,,,,,,
,,,,,,,,,,,,67f41aadb805ee4c476ddb19,001,3,2025-04-15_11h10.52.215,avatar_quest_3AFC_legacy,2022.1.3,Win32,60.97560976,67f41aadb805ee4c476ddb19,67fe6e666cecbc9329ddf6d6,67fe701944b434c9ccee4417,,,,,,,,,,,,,,,,,,,,,,No Brainslug Difficult 2 No Money,12,images/assets/snowy_original.jpg,learning,20,images/assets/success.jpg,images/assets/gameover.jpg,,,,,,,,,,,,,0,9,9,8,1,,,,,,,,,,,,,,,,,,,,,,,,,,,,,,,,
,,,,,,,,,,,,67f41aadb805ee4c476ddb19,001,3,2025-04-15_11h10.52.215,avatar_quest_3AFC_legacy,2022.1.3,Win32,60.97560976,67f41aadb805ee4c476ddb19,67fe6e666cecbc9329ddf6d6,67fe701944b434c9ccee4417,,,,,,,,,,,,,,,,,,,,,,No Brainslug No Barriers With Money,0,images/assets/snowy_money.jpg,learning,10,images/assets/success_money.jpg,images/assets/gameover.jpg,,,,,,,,,,,,,0,10,10,9,1,,,,,,,,,,,,,,,,,,,,,,,,,,,,,,,,
,,,,,,,,,,,,67f41aadb805ee4c476ddb19,001,3,2025-04-15_11h10.52.215,avatar_quest_3AFC_legacy,2022.1.3,Win32,60.97560976,67f41aadb805ee4c476ddb19,67fe6e666cecbc9329ddf6d6,67fe701944b434c9ccee4417,,,,,,,,,,,,,,,,,,,,,,,,,,,,,,,,,,,,,,,,,,,,,,,,,,,,,,,4,0,4,0,1,,,,,,,,,,,,,,,,,,
,,,,,,,,,,,,67f41aadb805ee4c476ddb19,001,3,2025-04-15_11h10.52.215,avatar_quest_3AFC_legacy,2022.1.3,Win32,60.97560976,67f41aadb805ee4c476ddb19,67fe6e666cecbc9329ddf6d6,67fe701944b434c9ccee4417,,,,,,,,,,,,,,,,,,,,,,No Brainslug Difficult 1 No Money,6,images/assets/snowy_original.jpg,learning,20,images/assets/success.jpg,images/assets/gameover.jpg,,,,,,,,With Brainslug Difficult 1 No Money,With Brainslug Difficult 1 No Money,left,1.1801,"[""With Brainslug Difficult 2 No Money"",""With Brainslug Difficult 2 With Money""]",0,0,0,6,1,,,,,,,,,,,,,,,,,,,,,,,,,,,,,,,,
,,,,,,,,,,,,67f41aadb805ee4c476ddb19,001,3,2025-04-15_11h10.52.215,avatar_quest_3AFC_legacy,2022.1.3,Win32,60.97560976,67f41aadb805ee4c476ddb19,67fe6e666cecbc9329ddf6d6,67fe701944b434c9ccee4417,,,,,,,,,,,,,,,,,,,,,,No Brainslug Difficult 2 No Money,12,images/assets/snowy_original.jpg,learning,20,images/assets/success.jpg,images/assets/gameover.jpg,,,,,,,,,,,,,0,1,1,8,1,,,,,,,,,,,,,,,,,,,,,,,,,,,,,,,,
,,,,,,,,,,,,67f41aadb805ee4c476ddb19,001,3,2025-04-15_11h10.52.215,avatar_quest_3AFC_legacy,2022.1.3,Win32,60.97560976,67f41aadb805ee4c476ddb19,67fe6e666cecbc9329ddf6d6,67fe701944b434c9ccee4417,,,,,,,,,,,,,,,,,,,,,,With Brainslug Difficult 2 With Money,12,images/assets/snowy_money.jpg,learning,20,images/assets/success_money.jpg,images/assets/gameover.jpg,,,,,,,,,,,,,0,2,2,2,1,,,,,,,,,,,,,,,,,,,,,,,,,,,,,,,,
,,,,,,,,,,,,67f41aadb805ee4c476ddb19,001,3,2025-04-15_11h10.52.215,avatar_quest_3AFC_legacy,2022.1.3,Win32,60.97560976,67f41aadb805ee4c476ddb19,67fe6e666cecbc9329ddf6d6,67fe701944b434c9ccee4417,,,,,,,,,,,,,,,,,,,,,,No Brainslug No Barriers With Money,0,images/assets/snowy_money.jpg,learning,10,images/assets/success_money.jpg,images/assets/gameover.jpg,,,,,,,,,,,,,0,3,3,9,1,,,,,,,,,,,,,,,,,,,,,,,,,,,,,,,,
,,,,,,,,,,,,67f41aadb805ee4c476ddb19,001,3,2025-04-15_11h10.52.215,avatar_quest_3AFC_legacy,2022.1.3,Win32,60.97560976,67f41aadb805ee4c476ddb19,67fe6e666cecbc9329ddf6d6,67fe701944b434c9ccee4417,,,,,,,,,,,,,,,,,,,,,,No Brainslug No Barriers No Money,0,images/assets/snowy_original.jpg,learning,10,images/assets/success.jpg,images/assets/gameover.jpg,,,,,,,,,,,,,0,4,4,10,1,,,,,,,,,,,,,,,,,,,,,,,,,,,,,,,,
,,,,,,,,,,,,67f41aadb805ee4c476ddb19,001,3,2025-04-15_11h10.52.215,avatar_quest_3AFC_legacy,2022.1.3,Win32,60.97560976,67f41aadb805ee4c476ddb19,67fe6e666cecbc9329ddf6d6,67fe701944b434c9ccee4417,,,,,,,,,,,,,,,,,,,,,,With Brainslug Difficult 1 With Money,6,images/assets/snowy_money.jpg,learning,20,images/assets/success_money.jpg,images/assets/gameover.jpg,,,,,,,,,,,,,0,5,5,0,1,,,,,,,,,,,,,,,,,,,,,,,,,,,,,,,,
,,,,,,,,,,,,67f41aadb805ee4c476ddb19,001,3,2025-04-15_11h10.52.215,avatar_quest_3AFC_legacy,2022.1.3,Win32,60.97560976,67f41aadb805ee4c476ddb19,67fe6e666cecbc9329ddf6d6,67fe701944b434c9ccee4417,,,,,,,,,,,,,,,,,,,,,,With Brainslug Difficult 2 No Money,12,images/assets/snowy_original.jpg,learning,20,images/assets/success.jpg,images/assets/gameover.jpg,,,,,,,,,,,,,0,6,6,3,1,,,,,,,,,,,,,,,,,,,,,,,,,,,,,,,,
,,,,,,,,,,,,67f41aadb805ee4c476ddb19,001,3,2025-04-15_11h10.52.215,avatar_quest_3AFC_legacy,2022.1.3,Win32,60.97560976,67f41aadb805ee4c476ddb19,67fe6e666cecbc9329ddf6d6,67fe701944b434c9ccee4417,"[""left"",""left"",""left"",""right"",""right"",""left"",""left"",""left"",""left"",""left"",""right"",""right"",""right"",""right"",""right"",""right"",""right"",""right"",""right"",""right"",""left"",""left"",""left"",""left""]","[0.40709999996420265,0.6111999999880595,1.1156999999880668,1.6461999999880277,1.8465999999642122,2.2864999999999895,2.471899999976131,2.6531999999880327,2.824800000011919,2.9816999999880522,3.400800000011884,3.6068000000119014,3.786199999988071,3.9669999999999845,4.10530000001188,4.263800000011884,4.48789999997615,4.647899999976119,5.077399999976137,5.280300000011891,6.078300000011893,6.2413999999761245,6.413699999988069,6.622500000000002]",,calibration,With Brainslug Difficult 1 No Money,9,11.11795,7.2623,11,3,0,TRUE,na,na,na,na,,,,,,,,,,,,,,,,,,,,,,,,,,,,,,,,,,0,0,0,0,1,,,,,,,,,,,,,,,,,,,,,,,
,,,,,,,,,,,,67f41aadb805ee4c476ddb19,001,3,2025-04-15_11h10.52.215,avatar_quest_3AFC_legacy,2022.1.3,Win32,60.97560976,67f41aadb805ee4c476ddb19,67fe6e666cecbc9329ddf6d6,67fe701944b434c9ccee4417,,,,,,,,,,,,,,,,,,,,,,With Brainslug Difficult 1 No Money,6,images/assets/snowy_original.jpg,learning,20,images/assets/success.jpg,images/assets/gameover.jpg,,,,,,,,,,,,,0,7,7,1,1,,,,,,,,,,,,,,,,,,,,,,,,,,,,,,,,
,,,,,,,,,,,,67f41aadb805ee4c476ddb19,001,3,2025-04-15_11h10.52.215,avatar_quest_3AFC_legacy,2022.1.3,Win32,60.97560976,67f41aadb805ee4c476ddb19,67fe6e666cecbc9329ddf6d6,67fe701944b434c9ccee4417,,,,,,,,,,,,,,,,,,,,,,No Brainslug Difficult 2 With Money,12,images/assets/snowy_money.jpg,learning,20,images/assets/success_money.jpg,images/assets/gameover.jpg,,,,,,,,,,,,,0,8,8,7,1,,,,,,,,,,,,,,,,,,,,,,,,,,,,,,,,
,,,,,,,,,,,,67f41aadb805ee4c476ddb19,001,3,2025-04-15_11h10.52.215,avatar_quest_3AFC_legacy,2022.1.3,Win32,60.97560976,67f41aadb805ee4c476ddb19,67fe6e666cecbc9329ddf6d6,67fe701944b434c9ccee4417,,,,,,,,,,,,,,,,,,,,,,With Brainslug No Barriers With Money,0,images/assets/snowy_money.jpg,learning,10,images/assets/success_money.jpg,images/assets/gameover.jpg,,,,,,,,,,,,,0,9,9,4,1,,,,,,,,,,,,,,,,,,,,,,,,,,,,,,,,
,,,,,,,,,,,,67f41aadb805ee4c476ddb19,001,3,2025-04-15_11h10.52.215,avatar_quest_3AFC_legacy,2022.1.3,Win32,60.97560976,67f41aadb805ee4c476ddb19,67fe6e666cecbc9329ddf6d6,67fe701944b434c9ccee4417,,,,,,,,,,,,,,,,,,,,,,With Brainslug No Barriers No Money,0,images/assets/snowy_original.jpg,learning,10,images/assets/success.jpg,images/assets/gameover.jpg,,,,,,,,,,,,,0,10,10,5,1,,,,,,,,,,,,,,,,,,,,,,,,,,,,,,,,
,,,,,,,,,,,,67f41aadb805ee4c476ddb19,001,3,2025-04-15_11h10.52.215,avatar_quest_3AFC_legacy,2022.1.3,Win32,60.97560976,67f41aadb805ee4c476ddb19,67fe6e666cecbc9329ddf6d6,67fe701944b434c9ccee4417,,,,,,,,,,,,,,,,,,,,,,,,,,,,,,,,,,,,,,,,,,,,,,,,,,,,,,,5,0,5,0,1,,,,,,,,,,,,,,,,,,
,,,,,,,,,,,,67f41aadb805ee4c476ddb19,001,3,2025-04-15_11h10.52.215,avatar_quest_3AFC_legacy,2022.1.3,Win32,60.97560976,67f41aadb805ee4c476ddb19,67fe6e666cecbc9329ddf6d6,67fe701944b434c9ccee4417,,,,,,,,,,,,,,,,,,,,,,With Brainslug No Barriers No Money,0,images/assets/snowy_original.jpg,learning,10,images/assets/success.jpg,images/assets/gameover.jpg,,,,,,,,With Brainslug Difficult 2 With Money,With Brainslug Difficult 1 No Money,right,1.3922,"[""With Brainslug Difficult 1 No Money"",""With Brainslug Difficult 2 No Money""]",0,0,0,5,1,,,,,,,,,,,,,,,,,,,,,,,,,,,,,,,,
,,,,,,,,,,,,67f41aadb805ee4c476ddb19,001,3,2025-04-15_11h10.52.215,avatar_quest_3AFC_legacy,2022.1.3,Win32,60.97560976,67f41aadb805ee4c476ddb19,67fe6e666cecbc9329ddf6d6,67fe701944b434c9ccee4417,,,,,,,,,,,,,,,,,,,,,,No Brainslug No Barriers No Money,0,images/assets/snowy_original.jpg,learning,10,images/assets/success.jpg,images/assets/gameover.jpg,,,,,,,,,,,,,0,1,1,10,1,,,,,,,,,,,,,,,,,,,,,,,,,,,,,,,,
,,,,,,,,,,,,67f41aadb805ee4c476ddb19,001,3,2025-04-15_11h10.52.215,avatar_quest_3AFC_legacy,2022.1.3,Win32,60.97560976,67f41aadb805ee4c476ddb19,67fe6e666cecbc9329ddf6d6,67fe701944b434c9ccee4417,,,,,,,,,,,,,,,,,,,,,,No Brainslug Difficult 1 No Money,6,images/assets/snowy_original.jpg,learning,20,images/assets/success.jpg,images/assets/gameover.jpg,,,,,,,,,,,,,0,2,2,6,1,,,,,,,,,,,,,,,,,,,,,,,,,,,,,,,,
,,,,,,,,,,,,67f41aadb805ee4c476ddb19,001,3,2025-04-15_11h10.52.215,avatar_quest_3AFC_legacy,2022.1.3,Win32,60.97560976,67f41aadb805ee4c476ddb19,67fe6e666cecbc9329ddf6d6,67fe701944b434c9ccee4417,"[""left"",""left"",""right"",""right"",""left"",""left"",""left"",""right"",""right"",""right"",""right"",""right"",""left"",""left"",""left"",""left"",""right"",""right"",""right"",""left"",""left"",""left"",""right"",""right"",""right"",""right"",""right"",""right"",""left"",""right"",""right""]","[0.45249999999998636,0.6368000000119309,1.129800000011926,1.315499999999986,1.9771000000238814,2.1437000000477155,2.317800000011914,2.6432000000476705,2.79200000000003,2.94370000004767,3.143800000011936,3.3425000000000296,3.6157000000476955,3.7477000000477005,3.9321000000238655,4.116100000023835,4.493700000047681,5.206600000023855,5.68720000004771,6.447900000035759,6.622400000035782,6.820400000035761,7.309800000011933,7.489100000023882,7.65110000002386,7.835500000000025,8.034900000035748,8.287600000023872,9.218600000023855,9.868400000035763,10.134400000035782]",,calibration,With Brainslug Difficult 2 With Money,10,11.11795,10.6963,18,9,0,TRUE,na,na,na,na,,,,,,,,,,,,,,,,,,,,,,,,,,,,,,,,,,0,0,0,0,1,,,,,,,,,,,,,,,,,,,,,,,
,,,,,,,,,,,,67f41aadb805ee4c476ddb19,001,3,2025-04-15_11h10.52.215,avatar_quest_3AFC_legacy,2022.1.3,Win32,60.97560976,67f41aadb805ee4c476ddb19,67fe6e666cecbc9329ddf6d6,67fe701944b434c9ccee4417,,,,,,,,,,,,,,,,,,,,,,With Brainslug Difficult 2 With Money,12,images/assets/snowy_money.jpg,learning,20,images/assets/success_money.jpg,images/assets/gameover.jpg,,,,,,,,,,,,,0,3,3,2,1,,,,,,,,,,,,,,,,,,,,,,,,,,,,,,,,
,,,,,,,,,,,,67f41aadb805ee4c476ddb19,001,3,2025-04-15_11h10.52.215,avatar_quest_3AFC_legacy,2022.1.3,Win32,60.97560976,67f41aadb805ee4c476ddb19,67fe6e666cecbc9329ddf6d6,67fe701944b434c9ccee4417,,,,,,,,,,,,,,,,,,,,,,With Brainslug Difficult 1 No Money,6,images/assets/snowy_original.jpg,learning,20,images/assets/success.jpg,images/assets/gameover.jpg,,,,,,,,,,,,,0,4,4,1,1,,,,,,,,,,,,,,,,,,,,,,,,,,,,,,,,
,,,,,,,,,,,,67f41aadb805ee4c476ddb19,001,3,2025-04-15_11h10.52.215,avatar_quest_3AFC_legacy,2022.1.3,Win32,60.97560976,67f41aadb805ee4c476ddb19,67fe6e666cecbc9329ddf6d6,67fe701944b434c9ccee4417,,,,,,,,,,,,,,,,,,,,,,With Brainslug Difficult 2 No Money,12,images/assets/snowy_original.jpg,learning,20,images/assets/success.jpg,images/assets/gameover.jpg,,,,,,,,,,,,,0,5,5,3,1,,,,,,,,,,,,,,,,,,,,,,,,,,,,,,,,
,,,,,,,,,,,,67f41aadb805ee4c476ddb19,001,3,2025-04-15_11h10.52.215,avatar_quest_3AFC_legacy,2022.1.3,Win32,60.97560976,67f41aadb805ee4c476ddb19,67fe6e666cecbc9329ddf6d6,67fe701944b434c9ccee4417,,,,,,,,,,,,,,,,,,,,,,No Brainslug No Barriers With Money,0,images/assets/snowy_money.jpg,learning,10,images/assets/success_money.jpg,images/assets/gameover.jpg,,,,,,,,,,,,,0,6,6,9,1,,,,,,,,,,,,,,,,,,,,,,,,,,,,,,,,
,,,,,,,,,,,,67f41aadb805ee4c476ddb19,001,3,2025-04-15_11h10.52.215,avatar_quest_3AFC_legacy,2022.1.3,Win32,60.97560976,67f41aadb805ee4c476ddb19,67fe6e666cecbc9329ddf6d6,67fe701944b434c9ccee4417,,,,,,,,,,,,,,,,,,,,,,No Brainslug Difficult 2 With Money,12,images/assets/snowy_money.jpg,learning,20,images/assets/success_money.jpg,images/assets/gameover.jpg,,,,,,,,,,,,,0,7,7,7,1,,,,,,,,,,,,,,,,,,,,,,,,,,,,,,,,
,,,,,,,,,,,,67f41aadb805ee4c476ddb19,001,3,2025-04-15_11h10.52.215,avatar_quest_3AFC_legacy,2022.1.3,Win32,60.97560976,67f41aadb805ee4c476ddb19,67fe6e666cecbc9329ddf6d6,67fe701944b434c9ccee4417,,,,,,,,,,,,,,,,,,,,,,With Brainslug No Barriers With Money,0,images/assets/snowy_money.jpg,learning,10,images/assets/success_money.jpg,images/assets/gameover.jpg,,,,,,,,,,,,,0,8,8,4,1,,,,,,,,,,,,,,,,,,,,,,,,,,,,,,,,
,,,,,,,,,,,,67f41aadb805ee4c476ddb19,001,3,2025-04-15_11h10.52.215,avatar_quest_3AFC_legacy,2022.1.3,Win32,60.97560976,67f41aadb805ee4c476ddb19,67fe6e666cecbc9329ddf6d6,67fe701944b434c9ccee4417,,,,,,,,,,,,,,,,,,,,,,With Brainslug Difficult 1 With Money,6,images/assets/snowy_money.jpg,learning,20,images/assets/success_money.jpg,images/assets/gameover.jpg,,,,,,,,,,,,,0,9,9,0,1,,,,,,,,,,,,,,,,,,,,,,,,,,,,,,,,
,,,,,,,,,,,,67f41aadb805ee4c476ddb19,001,3,2025-04-15_11h10.52.215,avatar_quest_3AFC_legacy,2022.1.3,Win32,60.97560976,67f41aadb805ee4c476ddb19,67fe6e666cecbc9329ddf6d6,67fe701944b434c9ccee4417,,,,,,,,,,,,,,,,,,,,,,No Brainslug Difficult 2 No Money,12,images/assets/snowy_original.jpg,learning,20,images/assets/success.jpg,images/assets/gameover.jpg,,,,,,,,,,,,,0,10,10,8,1,,,,,,,,,,,,,,,,,,,,,,,,,,,,,,,,
,,,,,,,,,,,,67f41aadb805ee4c476ddb19,001,3,2025-04-15_11h10.52.215,avatar_quest_3AFC_legacy,2022.1.3,Win32,60.97560976,67f41aadb805ee4c476ddb19,67fe6e666cecbc9329ddf6d6,67fe701944b434c9ccee4417,,,,,,,,,,,,,,,,,,,,,,,,,,,,,,,,,,,,,,,,,,,,,,,,,,,,,,,6,0,6,0,1,,,,,,,,,,,,,,,,,,
,,,,,,,,,,,,67f41aadb805ee4c476ddb19,001,3,2025-04-15_11h10.52.215,avatar_quest_3AFC_legacy,2022.1.3,Win32,60.97560976,67f41aadb805ee4c476ddb19,67fe6e666cecbc9329ddf6d6,67fe701944b434c9ccee4417,,,,,,,,,,,,,,,,,,,,,,No Brainslug No Barriers With Money,0,images/assets/snowy_money.jpg,learning,10,images/assets/success_money.jpg,images/assets/gameover.jpg,,,,,,,,With Brainslug Difficult 1 No Money,With Brainslug Difficult 1 No Money,left,2.2387,"[""With Brainslug Difficult 2 No Money"",""With Brainslug Difficult 2 With Money""]",0,0,0,9,1,,,,,,,,,,,,,,,,,,,,,,,,,,,,,,,,
,,,,,,,,,,,,67f41aadb805ee4c476ddb19,001,3,2025-04-15_11h10.52.215,avatar_quest_3AFC_legacy,2022.1.3,Win32,60.97560976,67f41aadb805ee4c476ddb19,67fe6e666cecbc9329ddf6d6,67fe701944b434c9ccee4417,,,,,,,,,,,,,,,,,,,,,,With Brainslug No Barriers With Money,0,images/assets/snowy_money.jpg,learning,10,images/assets/success_money.jpg,images/assets/gameover.jpg,,,,,,,,,,,,,0,1,1,4,1,,,,,,,,,,,,,,,,,,,,,,,,,,,,,,,,
,,,,,,,,,,,,67f41aadb805ee4c476ddb19,001,3,2025-04-15_11h10.52.215,avatar_quest_3AFC_legacy,2022.1.3,Win32,60.97560976,67f41aadb805ee4c476ddb19,67fe6e666cecbc9329ddf6d6,67fe701944b434c9ccee4417,"[""left"",""left"",""right"",""right"",""right"",""right"",""left"",""right"",""right"",""left"",""left"",""left"",""left"",""right"",""right"",""right"",""left"",""left"",""left"",""left""]","[0.4497999999523472,0.6829999999999927,0.9795999999642504,1.2110999999642331,1.4035000000000082,1.6923999999761463,3.1127999999523013,3.627199999988079,3.841299999952355,4.216299999952355,4.423399999976198,4.566099999964251,4.746099999964258,5.235099999964234,5.4290000000000305,5.680599999964272,6.2750999999642545,6.4848999999761645,6.626799999952311,6.808599999964258]",,calibration,With Brainslug Difficult 1 No Money,11,11.11795,7.5994,14,3,0,TRUE,na,na,na,na,,,,,,,,,,,,,,,,,,,,,,,,,,,,,,,,,,0,0,0,0,1,,,,,,,,,,,,,,,,,,,,,,,
,,,,,,,,,,,,67f41aadb805ee4c476ddb19,001,3,2025-04-15_11h10.52.215,avatar_quest_3AFC_legacy,2022.1.3,Win32,60.97560976,67f41aadb805ee4c476ddb19,67fe6e666cecbc9329ddf6d6,67fe701944b434c9ccee4417,,,,,,,,,,,,,,,,,,,,,,With Brainslug Difficult 1 No Money,6,images/assets/snowy_original.jpg,learning,20,images/assets/success.jpg,images/assets/gameover.jpg,,,,,,,,,,,,,0,2,2,1,1,,,,,,,,,,,,,,,,,,,,,,,,,,,,,,,,
,,,,,,,,,,,,67f41aadb805ee4c476ddb19,001,3,2025-04-15_11h10.52.215,avatar_quest_3AFC_legacy,2022.1.3,Win32,60.97560976,67f41aadb805ee4c476ddb19,67fe6e666cecbc9329ddf6d6,67fe701944b434c9ccee4417,,,,,,,,,,,,,,,,,,,,,,No Brainslug No Barriers No Money,0,images/assets/snowy_original.jpg,learning,10,images/assets/success.jpg,images/assets/gameover.jpg,,,,,,,,,,,,,0,3,3,10,1,,,,,,,,,,,,,,,,,,,,,,,,,,,,,,,,
,,,,,,,,,,,,67f41aadb805ee4c476ddb19,001,3,2025-04-15_11h10.52.215,avatar_quest_3AFC_legacy,2022.1.3,Win32,60.97560976,67f41aadb805ee4c476ddb19,67fe6e666cecbc9329ddf6d6,67fe701944b434c9ccee4417,,,,,,,,,,,,,,,,,,,,,,No Brainslug Difficult 1 No Money,6,images/assets/snowy_original.jpg,learning,20,images/assets/success.jpg,images/assets/gameover.jpg,,,,,,,,,,,,,0,4,4,6,1,,,,,,,,,,,,,,,,,,,,,,,,,,,,,,,,
,,,,,,,,,,,,67f41aadb805ee4c476ddb19,001,3,2025-04-15_11h10.52.215,avatar_quest_3AFC_legacy,2022.1.3,Win32,60.97560976,67f41aadb805ee4c476ddb19,67fe6e666cecbc9329ddf6d6,67fe701944b434c9ccee4417,,,,,,,,,,,,,,,,,,,,,,With Brainslug Difficult 2 With Money,12,images/assets/snowy_money.jpg,learning,20,images/assets/success_money.jpg,images/assets/gameover.jpg,,,,,,,,,,,,,0,5,5,2,1,,,,,,,,,,,,,,,,,,,,,,,,,,,,,,,,
,,,,,,,,,,,,67f41aadb805ee4c476ddb19,001,3,2025-04-15_11h10.52.215,avatar_quest_3AFC_legacy,2022.1.3,Win32,60.97560976,67f41aadb805ee4c476ddb19,67fe6e666cecbc9329ddf6d6,67fe701944b434c9ccee4417,,,,,,,,,,,,,,,,,,,,,,With Brainslug Difficult 1 With Money,6,images/assets/snowy_money.jpg,learning,20,images/assets/success_money.jpg,images/assets/gameover.jpg,,,,,,,,,,,,,0,6,6,0,1,,,,,,,,,,,,,,,,,,,,,,,,,,,,,,,,
,,,,,,,,,,,,67f41aadb805ee4c476ddb19,001,3,2025-04-15_11h10.52.215,avatar_quest_3AFC_legacy,2022.1.3,Win32,60.97560976,67f41aadb805ee4c476ddb19,67fe6e666cecbc9329ddf6d6,67fe701944b434c9ccee4417,,,,,,,,,,,,,,,,,,,,,,No Brainslug Difficult 2 With Money,12,images/assets/snowy_money.jpg,learning,20,images/assets/success_money.jpg,images/assets/gameover.jpg,,,,,,,,,,,,,0,7,7,7,1,,,,,,,,,,,,,,,,,,,,,,,,,,,,,,,,
,,,,,,,,,,,,67f41aadb805ee4c476ddb19,001,3,2025-04-15_11h10.52.215,avatar_quest_3AFC_legacy,2022.1.3,Win32,60.97560976,67f41aadb805ee4c476ddb19,67fe6e666cecbc9329ddf6d6,67fe701944b434c9ccee4417,,,,,,,,,,,,,,,,,,,,,,With Brainslug Difficult 2 No Money,12,images/assets/snowy_original.jpg,learning,20,images/assets/success.jpg,images/assets/gameover.jpg,,,,,,,,,,,,,0,8,8,3,1,,,,,,,,,,,,,,,,,,,,,,,,,,,,,,,,
,,,,,,,,,,,,67f41aadb805ee4c476ddb19,001,3,2025-04-15_11h10.52.215,avatar_quest_3AFC_legacy,2022.1.3,Win32,60.97560976,67f41aadb805ee4c476ddb19,67fe6e666cecbc9329ddf6d6,67fe701944b434c9ccee4417,,,,,,,,,,,,,,,,,,,,,,No Brainslug Difficult 2 No Money,12,images/assets/snowy_original.jpg,learning,20,images/assets/success.jpg,images/assets/gameover.jpg,,,,,,,,,,,,,0,9,9,8,1,,,,,,,,,,,,,,,,,,,,,,,,,,,,,,,,
,,,,,,,,,,,,67f41aadb805ee4c476ddb19,001,3,2025-04-15_11h10.52.215,avatar_quest_3AFC_legacy,2022.1.3,Win32,60.97560976,67f41aadb805ee4c476ddb19,67fe6e666cecbc9329ddf6d6,67fe701944b434c9ccee4417,,,,,,,,,,,,,,,,,,,,,,With Brainslug No Barriers No Money,0,images/assets/snowy_original.jpg,learning,10,images/assets/success.jpg,images/assets/gameover.jpg,,,,,,,,,,,,,0,10,10,5,1,,,,,,,,,,,,,,,,,,,,,,,,,,,,,,,,
,,,,,,,,,,,,67f41aadb805ee4c476ddb19,001,3,2025-04-15_11h10.52.215,avatar_quest_3AFC_legacy,2022.1.3,Win32,60.97560976,67f41aadb805ee4c476ddb19,67fe6e666cecbc9329ddf6d6,67fe701944b434c9ccee4417,,,,,,,,,,,,,,,,,,,,,,,,,,,,,,,,,,,,,,,,,,,,,,,,,,,,,,,7,0,7,0,1,,,,,,,,,,,,,,,,,,
,,,,,,,,,,,,67f41aadb805ee4c476ddb19,001,3,2025-04-15_11h10.52.215,avatar_quest_3AFC_legacy,2022.1.3,Win32,60.97560976,67f41aadb805ee4c476ddb19,67fe6e666cecbc9329ddf6d6,67fe701944b434c9ccee4417,"[""left"",""left"",""right"",""right"",""right"",""right"",""right"",""right"",""right"",""right"",""left"",""left"",""left"",""right"",""right"",""right"",""left"",""left"",""left"",""left""]","[0.5211999999880277,0.8123999999761509,1.3426999999880422,1.6076999999880286,1.8293000000118695,1.9934999999999832,2.1606999999880827,2.3528999999761595,2.5146999999880677,2.762599999964209,3.4960999999642013,3.660399999976107,3.829999999999984,4.304099999964194,4.505199999988065,4.710699999988037,5.115199999988079,5.289699999988045,5.457399999976133,5.627599999964218]",,calibration,With Brainslug Difficult 1 No Money,12,11.11795,6.3254,9,3,0,TRUE,na,na,na,na,,,,,,,,,,,,,,,,,,,,With Brainslug Difficult 1 No Money,With Brainslug Difficult 1 No Money,left,2.3776,"[""With Brainslug Difficult 2 No Money"",""With Brainslug Difficult 2 With Money""]",,,,,,,,,,0,0,0,0,1,,,,,,,,,,,,,,,,,,,,,,,
,,,,,,,,,,,,67f41aadb805ee4c476ddb19,001,3,2025-04-15_11h10.52.215,avatar_quest_3AFC_legacy,2022.1.3,Win32,60.97560976,67f41aadb805ee4c476ddb19,67fe6e666cecbc9329ddf6d6,67fe701944b434c9ccee4417,,,,,,,,,,,,,,,,,,,,,,With Brainslug Difficult 1 No Money,6,images/assets/snowy_original.jpg,learning,20,images/assets/success.jpg,images/assets/gameover.jpg,,,,,,,,,,,,,0,0,0,1,1,,,,,,,,,,,,,,,,,,,,,,,,,,,,,,,,
,,,,,,,,,,,,67f41aadb805ee4c476ddb19,001,3,2025-04-15_11h10.52.215,avatar_quest_3AFC_legacy,2022.1.3,Win32,60.97560976,67f41aadb805ee4c476ddb19,67fe6e666cecbc9329ddf6d6,67fe701944b434c9ccee4417,,,,,,,,,,,,,,,,,,,,,,No Brainslug No Barriers With Money,0,images/assets/snowy_money.jpg,learning,10,images/assets/success_money.jpg,images/assets/gameover.jpg,,,,,,,,,,,,,0,1,1,9,1,,,,,,,,,,,,,,,,,,,,,,,,,,,,,,,,
,,,,,,,,,,,,67f41aadb805ee4c476ddb19,001,3,2025-04-15_11h10.52.215,avatar_quest_3AFC_legacy,2022.1.3,Win32,60.97560976,67f41aadb805ee4c476ddb19,67fe6e666cecbc9329ddf6d6,67fe701944b434c9ccee4417,,,,,,,,,,,,,,,,,,,,,,With Brainslug Difficult 2 No Money,12,images/assets/snowy_original.jpg,learning,20,images/assets/success.jpg,images/assets/gameover.jpg,,,,,,,,,,,,,0,2,2,3,1,,,,,,,,,,,,,,,,,,,,,,,,,,,,,,,,
,,,,,,,,,,,,67f41aadb805ee4c476ddb19,001,3,2025-04-15_11h10.52.215,avatar_quest_3AFC_legacy,2022.1.3,Win32,60.97560976,67f41aadb805ee4c476ddb19,67fe6e666cecbc9329ddf6d6,67fe701944b434c9ccee4417,,,,,,,,,,,,,,,,,,,,,,No Brainslug No Barriers No Money,0,images/assets/snowy_original.jpg,learning,10,images/assets/success.jpg,images/assets/gameover.jpg,,,,,,,,,,,,,0,3,3,10,1,,,,,,,,,,,,,,,,,,,,,,,,,,,,,,,,
,,,,,,,,,,,,67f41aadb805ee4c476ddb19,001,3,2025-04-15_11h10.52.215,avatar_quest_3AFC_legacy,2022.1.3,Win32,60.97560976,67f41aadb805ee4c476ddb19,67fe6e666cecbc9329ddf6d6,67fe701944b434c9ccee4417,,,,,,,,,,,,,,,,,,,,,,With Brainslug Difficult 2 With Money,12,images/assets/snowy_money.jpg,learning,20,images/assets/success_money.jpg,images/assets/gameover.jpg,,,,,,,,,,,,,0,4,4,2,1,,,,,,,,,,,,,,,,,,,,,,,,,,,,,,,,
,,,,,,,,,,,,67f41aadb805ee4c476ddb19,001,3,2025-04-15_11h10.52.215,avatar_quest_3AFC_legacy,2022.1.3,Win32,60.97560976,67f41aadb805ee4c476ddb19,67fe6e666cecbc9329ddf6d6,67fe701944b434c9ccee4417,,,,,,,,,,,,,,,,,,,,,,With Brainslug No Barriers With Money,0,images/assets/snowy_money.jpg,learning,10,images/assets/success_money.jpg,images/assets/gameover.jpg,,,,,,,,,,,,,0,5,5,4,1,,,,,,,,,,,,,,,,,,,,,,,,,,,,,,,,
,,,,,,,,,,,,67f41aadb805ee4c476ddb19,001,3,2025-04-15_11h10.52.215,avatar_quest_3AFC_legacy,2022.1.3,Win32,60.97560976,67f41aadb805ee4c476ddb19,67fe6e666cecbc9329ddf6d6,67fe701944b434c9ccee4417,,,,,,,,,,,,,,,,,,,,,,No Brainslug Difficult 2 With Money,12,images/assets/snowy_money.jpg,learning,20,images/assets/success_money.jpg,images/assets/gameover.jpg,,,,,,,,,,,,,0,6,6,7,1,,,,,,,,,,,,,,,,,,,,,,,,,,,,,,,,
,,,,,,,,,,,,67f41aadb805ee4c476ddb19,001,3,2025-04-15_11h10.52.215,avatar_quest_3AFC_legacy,2022.1.3,Win32,60.97560976,67f41aadb805ee4c476ddb19,67fe6e666cecbc9329ddf6d6,67fe701944b434c9ccee4417,,,,,,,,,,,,,,,,,,,,,,With Brainslug Difficult 1 With Money,6,images/assets/snowy_money.jpg,learning,20,images/assets/success_money.jpg,images/assets/gameover.jpg,,,,,,,,,,,,,0,7,7,0,1,,,,,,,,,,,,,,,,,,,,,,,,,,,,,,,,
,,,,,,,,,,,,67f41aadb805ee4c476ddb19,001,3,2025-04-15_11h10.52.215,avatar_quest_3AFC_legacy,2022.1.3,Win32,60.97560976,67f41aadb805ee4c476ddb19,67fe6e666cecbc9329ddf6d6,67fe701944b434c9ccee4417,,,,,,,,,,,,,,,,,,,,,,No Brainslug Difficult 2 No Money,12,images/assets/snowy_original.jpg,learning,20,images/assets/success.jpg,images/assets/gameover.jpg,,,,,,,,,,,,,0,8,8,8,1,,,,,,,,,,,,,,,,,,,,,,,,,,,,,,,,
,,,,,,,,,,,,67f41aadb805ee4c476ddb19,001,3,2025-04-15_11h10.52.215,avatar_quest_3AFC_legacy,2022.1.3,Win32,60.97560976,67f41aadb805ee4c476ddb19,67fe6e666cecbc9329ddf6d6,67fe701944b434c9ccee4417,,,,,,,,,,,,,,,,,,,,,,With Brainslug No Barriers No Money,0,images/assets/snowy_original.jpg,learning,10,images/assets/success.jpg,images/assets/gameover.jpg,,,,,,,,,,,,,0,9,9,5,1,,,,,,,,,,,,,,,,,,,,,,,,,,,,,,,,
,,,,,,,,,,,,67f41aadb805ee4c476ddb19,001,3,2025-04-15_11h10.52.215,avatar_quest_3AFC_legacy,2022.1.3,Win32,60.97560976,67f41aadb805ee4c476ddb19,67fe6e666cecbc9329ddf6d6,67fe701944b434c9ccee4417,,,,,,,,,,,,,,,,,,,,,,No Brainslug Difficult 1 No Money,6,images/assets/snowy_original.jpg,learning,20,images/assets/success.jpg,images/assets/gameover.jpg,,,,,,,,,,,,,0,10,10,6,1,,,,,,,,,,,,,,,,,,,,,,,,,,,,,,,,
,,,,,,,,,,,,67f41aadb805ee4c476ddb19,001,3,2025-04-15_11h10.52.215,avatar_quest_3AFC_legacy,2022.1.3,Win32,60.97560976,67f41aadb805ee4c476ddb19,67fe6e666cecbc9329ddf6d6,67fe701944b434c9ccee4417,,,,,,,,,,,,,,,,,,,,,,,,,,,,,,,,,,,,,,,,,,,,,,,,,,,,,,,8,0,8,0,1,,,,,,,,,,,,,,,,,,
,,,,,,,,,,,,67f41aadb805ee4c476ddb19,001,3,2025-04-15_11h10.52.215,avatar_quest_3AFC_legacy,2022.1.3,Win32,60.97560976,67f41aadb805ee4c476ddb19,67fe6e666cecbc9329ddf6d6,67fe701944b434c9ccee4417,,,,,,,,,,,,,,,,,,,,,,No Brainslug No Barriers With Money,0,images/assets/snowy_money.jpg,learning,10,images/assets/success_money.jpg,images/assets/gameover.jpg,,,,,,,,With Brainslug Difficult 2 With Money,With Brainslug Difficult 1 No Money,right,0.7699,"[""With Brainslug Difficult 1 No Money"",""With Brainslug Difficult 2 No Money""]",0,0,0,9,1,,,,,,,,,,,,,,,,,,,,,,,,,,,,,,,,
,,,,,,,,,,,,67f41aadb805ee4c476ddb19,001,3,2025-04-15_11h10.52.215,avatar_quest_3AFC_legacy,2022.1.3,Win32,60.97560976,67f41aadb805ee4c476ddb19,67fe6e666cecbc9329ddf6d6,67fe701944b434c9ccee4417,,,,,,,,,,,,,,,,,,,,,,With Brainslug Difficult 1 With Money,6,images/assets/snowy_money.jpg,learning,20,images/assets/success_money.jpg,images/assets/gameover.jpg,,,,,,,,,,,,,0,1,1,0,1,,,,,,,,,,,,,,,,,,,,,,,,,,,,,,,,
,,,,,,,,,,,,67f41aadb805ee4c476ddb19,001,3,2025-04-15_11h10.52.215,avatar_quest_3AFC_legacy,2022.1.3,Win32,60.97560976,67f41aadb805ee4c476ddb19,67fe6e666cecbc9329ddf6d6,67fe701944b434c9ccee4417,,,,,,,,,,,,,,,,,,,,,,No Brainslug Difficult 1 No Money,6,images/assets/snowy_original.jpg,learning,20,images/assets/success.jpg,images/assets/gameover.jpg,,,,,,,,,,,,,0,2,2,6,1,,,,,,,,,,,,,,,,,,,,,,,,,,,,,,,,
,,,,,,,,,,,,67f41aadb805ee4c476ddb19,001,3,2025-04-15_11h10.52.215,avatar_quest_3AFC_legacy,2022.1.3,Win32,60.97560976,67f41aadb805ee4c476ddb19,67fe6e666cecbc9329ddf6d6,67fe701944b434c9ccee4417,,,,,,,,,,,,,,,,,,,,,,With Brainslug Difficult 1 No Money,6,images/assets/snowy_original.jpg,learning,20,images/assets/success.jpg,images/assets/gameover.jpg,,,,,,,,,,,,,0,3,3,1,1,,,,,,,,,,,,,,,,,,,,,,,,,,,,,,,,
,,,,,,,,,,,,67f41aadb805ee4c476ddb19,001,3,2025-04-15_11h10.52.215,avatar_quest_3AFC_legacy,2022.1.3,Win32,60.97560976,67f41aadb805ee4c476ddb19,67fe6e666cecbc9329ddf6d6,67fe701944b434c9ccee4417,"[""left"",""left"",""right"",""right"",""left"",""left"",""left"",""right"",""right"",""left"",""left"",""right"",""right"",""right"",""left"",""left"",""right"",""right"",""right"",""right"",""right"",""right"",""left"",""left"",""right"",""right"",""right"",""right"",""right"",""left""]","[0.4026999999880445,0.5854999999999677,1.2864999999999895,1.502999999999986,1.6941999999880295,1.906499999999994,2.064699999988079,3.429600000023811,3.6793000000118923,4.210600000023817,4.401800000011917,4.668699999988064,4.851300000011918,5.037600000023815,5.721600000023841,5.92739999997616,6.231999999999971,6.416499999999985,6.6089999999999804,6.97589999997615,7.398199999988037,7.838499999999954,8.533699999988073,8.895800000011889,9.35519999998803,9.651600000023791,9.849800000011896,10.122600000023795,10.370399999976144,10.924399999976117]",,calibration,With Brainslug Difficult 2 With Money,13,11.11795,11.133,14,7,0,FALSE,na,na,na,na,,,,,,,,,,,,,,,,,,,,,,,,,,,,,,,,,,0,0,0,0,1,,,,,,,,,,,,,,,,,,,,,,,
,,,,,,,,,,,,67f41aadb805ee4c476ddb19,001,3,2025-04-15_11h10.52.215,avatar_quest_3AFC_legacy,2022.1.3,Win32,60.97560976,67f41aadb805ee4c476ddb19,67fe6e666cecbc9329ddf6d6,67fe701944b434c9ccee4417,,,,,,,,,,,,,,,,,,,,,,With Brainslug Difficult 2 With Money,12,images/assets/snowy_money.jpg,learning,20,images/assets/success_money.jpg,images/assets/gameover.jpg,,,,,,,,,,,,,0,4,4,2,1,,,,,,,,,,,,,,,,,,,,,,,,,,,,,,,,
,,,,,,,,,,,,67f41aadb805ee4c476ddb19,001,3,2025-04-15_11h10.52.215,avatar_quest_3AFC_legacy,2022.1.3,Win32,60.97560976,67f41aadb805ee4c476ddb19,67fe6e666cecbc9329ddf6d6,67fe701944b434c9ccee4417,,,,,,,,,,,,,,,,,,,,,,With Brainslug Difficult 2 No Money,12,images/assets/snowy_original.jpg,learning,20,images/assets/success.jpg,images/assets/gameover.jpg,,,,,,,,,,,,,0,5,5,3,1,,,,,,,,,,,,,,,,,,,,,,,,,,,,,,,,
,,,,,,,,,,,,67f41aadb805ee4c476ddb19,001,3,2025-04-15_11h10.52.215,avatar_quest_3AFC_legacy,2022.1.3,Win32,60.97560976,67f41aadb805ee4c476ddb19,67fe6e666cecbc9329ddf6d6,67fe701944b434c9ccee4417,,,,,,,,,,,,,,,,,,,,,,With Brainslug No Barriers With Money,0,images/assets/snowy_money.jpg,learning,10,images/assets/success_money.jpg,images/assets/gameover.jpg,,,,,,,,,,,,,0,6,6,4,1,,,,,,,,,,,,,,,,,,,,,,,,,,,,,,,,
,,,,,,,,,,,,67f41aadb805ee4c476ddb19,001,3,2025-04-15_11h10.52.215,avatar_quest_3AFC_legacy,2022.1.3,Win32,60.97560976,67f41aadb805ee4c476ddb19,67fe6e666cecbc9329ddf6d6,67fe701944b434c9ccee4417,,,,,,,,,,,,,,,,,,,,,,No Brainslug Difficult 2 No Money,12,images/assets/snowy_original.jpg,learning,20,images/assets/success.jpg,images/assets/gameover.jpg,,,,,,,,,,,,,0,7,7,8,1,,,,,,,,,,,,,,,,,,,,,,,,,,,,,,,,
,,,,,,,,,,,,67f41aadb805ee4c476ddb19,001,3,2025-04-15_11h10.52.215,avatar_quest_3AFC_legacy,2022.1.3,Win32,60.97560976,67f41aadb805ee4c476ddb19,67fe6e666cecbc9329ddf6d6,67fe701944b434c9ccee4417,,,,,,,,,,,,,,,,,,,,,,With Brainslug No Barriers No Money,0,images/assets/snowy_original.jpg,learning,10,images/assets/success.jpg,images/assets/gameover.jpg,,,,,,,,,,,,,0,8,8,5,1,,,,,,,,,,,,,,,,,,,,,,,,,,,,,,,,
,,,,,,,,,,,,67f41aadb805ee4c476ddb19,001,3,2025-04-15_11h10.52.215,avatar_quest_3AFC_legacy,2022.1.3,Win32,60.97560976,67f41aadb805ee4c476ddb19,67fe6e666cecbc9329ddf6d6,67fe701944b434c9ccee4417,,,,,,,,,,,,,,,,,,,,,,No Brainslug Difficult 2 With Money,12,images/assets/snowy_money.jpg,learning,20,images/assets/success_money.jpg,images/assets/gameover.jpg,,,,,,,,,,,,,0,9,9,7,1,,,,,,,,,,,,,,,,,,,,,,,,,,,,,,,,
,,,,,,,,,,,,67f41aadb805ee4c476ddb19,001,3,2025-04-15_11h10.52.215,avatar_quest_3AFC_legacy,2022.1.3,Win32,60.97560976,67f41aadb805ee4c476ddb19,67fe6e666cecbc9329ddf6d6,67fe701944b434c9ccee4417,,,,,,,,,,,,,,,,,,,,,,No Brainslug No Barriers No Money,0,images/assets/snowy_original.jpg,learning,10,images/assets/success.jpg,images/assets/gameover.jpg,,,,,,,,,,,,,0,10,10,10,1,,,,,,,,,,,,,,,,,,,,,,,,,,,,,,,,
,,,,,,,,,,,,67f41aadb805ee4c476ddb19,001,3,2025-04-15_11h10.52.215,avatar_quest_3AFC_legacy,2022.1.3,Win32,60.97560976,67f41aadb805ee4c476ddb19,67fe6e666cecbc9329ddf6d6,67fe701944b434c9ccee4417,,,,,,,,,,,,,,,,,,,,,,,,,,,,,,,,,,,,,,,,,,,,,,,,,,,,,,,9,0,9,0,1,,,,,,,,,,,,,,,,,,
,,,,,,,,,,,,67f41aadb805ee4c476ddb19,001,3,2025-04-15_11h10.52.215,avatar_quest_3AFC_legacy,2022.1.3,Win32,60.97560976,67f41aadb805ee4c476ddb19,67fe6e666cecbc9329ddf6d6,67fe701944b434c9ccee4417,,,,,,,,,,,,,,,,,,,,,,With Brainslug Difficult 2 No Money,12,images/assets/snowy_original.jpg,learning,20,images/assets/success.jpg,images/assets/gameover.jpg,,,,,,,,With Brainslug Difficult 2 With Money,With Brainslug Difficult 1 No Money,right,1.542,"[""With Brainslug Difficult 1 No Money"",""With Brainslug Difficult 2 No Money""]",0,0,0,3,1,,,,,,,,,,,,,,,,,,,,,,,,,,,,,,,,
,,,,,,,,,,,,67f41aadb805ee4c476ddb19,001,3,2025-04-15_11h10.52.215,avatar_quest_3AFC_legacy,2022.1.3,Win32,60.97560976,67f41aadb805ee4c476ddb19,67fe6e666cecbc9329ddf6d6,67fe701944b434c9ccee4417,"[""left"",""left"",""left"",""right"",""right"",""left"",""left"",""right"",""right"",""right"",""right"",""left"",""left"",""right"",""right"",""left"",""left"",""left"",""right"",""right"",""right"",""right"",""right"",""left"",""left"",""left"",""right"",""right""]","[0.46180000001191956,0.79849999999999,1.4032000000476614,1.8584999999999923,2.1231000000238396,2.3604000000357814,2.6469999999999914,3.051600000023825,3.319999999999993,3.581300000011936,3.9973000000119328,4.4529999999999745,4.716499999999996,4.986100000023839,5.201400000035733,5.491400000035753,5.73590000003577,5.946300000011888,6.1995000000000005,6.377999999999986,6.582100000023843,6.76400000000001,7.238100000023849,7.6684999999999945,7.8932000000476705,8.110200000047655,8.420300000011935,8.651600000023848]",,calibration,With Brainslug Difficult 2 With Money,14,11.11795,8.8578,16,10,0,TRUE,na,na,na,na,,,,,,,,,,,,,,,,,,,,,,,,,,,,,,,,,,0,0,0,0,1,,,,,,,,,,,,,,,,,,,,,,,
,,,,,,,,,,,,67f41aadb805ee4c476ddb19,001,3,2025-04-15_11h10.52.215,avatar_quest_3AFC_legacy,2022.1.3,Win32,60.97560976,67f41aadb805ee4c476ddb19,67fe6e666cecbc9329ddf6d6,67fe701944b434c9ccee4417,,,,,,,,,,,,,,,,,,,,,,With Brainslug Difficult 2 With Money,12,images/assets/snowy_money.jpg,learning,20,images/assets/success_money.jpg,images/assets/gameover.jpg,,,,,,,,,,,,,0,1,1,2,1,,,,,,,,,,,,,,,,,,,,,,,,,,,,,,,,
,,,,,,,,,,,,67f41aadb805ee4c476ddb19,001,3,2025-04-15_11h10.52.215,avatar_quest_3AFC_legacy,2022.1.3,Win32,60.97560976,67f41aadb805ee4c476ddb19,67fe6e666cecbc9329ddf6d6,67fe701944b434c9ccee4417,,,,,,,,,,,,,,,,,,,,,,With Brainslug Difficult 1 With Money,6,images/assets/snowy_money.jpg,learning,20,images/assets/success_money.jpg,images/assets/gameover.jpg,,,,,,,,,,,,,0,2,2,0,1,,,,,,,,,,,,,,,,,,,,,,,,,,,,,,,,
,,,,,,,,,,,,67f41aadb805ee4c476ddb19,001,3,2025-04-15_11h10.52.215,avatar_quest_3AFC_legacy,2022.1.3,Win32,60.97560976,67f41aadb805ee4c476ddb19,67fe6e666cecbc9329ddf6d6,67fe701944b434c9ccee4417,,,,,,,,,,,,,,,,,,,,,,With Brainslug No Barriers With Money,0,images/assets/snowy_money.jpg,learning,10,images/assets/success_money.jpg,images/assets/gameover.jpg,,,,,,,,,,,,,0,3,3,4,1,,,,,,,,,,,,,,,,,,,,,,,,,,,,,,,,
,,,,,,,,,,,,67f41aadb805ee4c476ddb19,001,3,2025-04-15_11h10.52.215,avatar_quest_3AFC_legacy,2022.1.3,Win32,60.97560976,67f41aadb805ee4c476ddb19,67fe6e666cecbc9329ddf6d6,67fe701944b434c9ccee4417,,,,,,,,,,,,,,,,,,,,,,No Brainslug No Barriers With Money,0,images/assets/snowy_money.jpg,learning,10,images/assets/success_money.jpg,images/assets/gameover.jpg,,,,,,,,,,,,,0,4,4,9,1,,,,,,,,,,,,,,,,,,,,,,,,,,,,,,,,
,,,,,,,,,,,,67f41aadb805ee4c476ddb19,001,3,2025-04-15_11h10.52.215,avatar_quest_3AFC_legacy,2022.1.3,Win32,60.97560976,67f41aadb805ee4c476ddb19,67fe6e666cecbc9329ddf6d6,67fe701944b434c9ccee4417,,,,,,,,,,,,,,,,,,,,,,With Brainslug No Barriers No Money,0,images/assets/snowy_original.jpg,learning,10,images/assets/success.jpg,images/assets/gameover.jpg,,,,,,,,,,,,,0,5,5,5,1,,,,,,,,,,,,,,,,,,,,,,,,,,,,,,,,
,,,,,,,,,,,,67f41aadb805ee4c476ddb19,001,3,2025-04-15_11h10.52.215,avatar_quest_3AFC_legacy,2022.1.3,Win32,60.97560976,67f41aadb805ee4c476ddb19,67fe6e666cecbc9329ddf6d6,67fe701944b434c9ccee4417,,,,,,,,,,,,,,,,,,,,,,No Brainslug No Barriers No Money,0,images/assets/snowy_original.jpg,learning,10,images/assets/success.jpg,images/assets/gameover.jpg,,,,,,,,,,,,,0,6,6,10,1,,,,,,,,,,,,,,,,,,,,,,,,,,,,,,,,
,,,,,,,,,,,,67f41aadb805ee4c476ddb19,001,3,2025-04-15_11h10.52.215,avatar_quest_3AFC_legacy,2022.1.3,Win32,60.97560976,67f41aadb805ee4c476ddb19,67fe6e666cecbc9329ddf6d6,67fe701944b434c9ccee4417,,,,,,,,,,,,,,,,,,,,,,No Brainslug Difficult 1 No Money,6,images/assets/snowy_original.jpg,learning,20,images/assets/success.jpg,images/assets/gameover.jpg,,,,,,,,,,,,,0,7,7,6,1,,,,,,,,,,,,,,,,,,,,,,,,,,,,,,,,
,,,,,,,,,,,,67f41aadb805ee4c476ddb19,001,3,2025-04-15_11h10.52.215,avatar_quest_3AFC_legacy,2022.1.3,Win32,60.97560976,67f41aadb805ee4c476ddb19,67fe6e666cecbc9329ddf6d6,67fe701944b434c9ccee4417,,,,,,,,,,,,,,,,,,,,,,No Brainslug Difficult 2 With Money,12,images/assets/snowy_money.jpg,learning,20,images/assets/success_money.jpg,images/assets/gameover.jpg,,,,,,,,,,,,,0,8,8,7,1,,,,,,,,,,,,,,,,,,,,,,,,,,,,,,,,
,,,,,,,,,,,,67f41aadb805ee4c476ddb19,001,3,2025-04-15_11h10.52.215,avatar_quest_3AFC_legacy,2022.1.3,Win32,60.97560976,67f41aadb805ee4c476ddb19,67fe6e666cecbc9329ddf6d6,67fe701944b434c9ccee4417,,,,,,,,,,,,,,,,,,,,,,With Brainslug Difficult 1 No Money,6,images/assets/snowy_original.jpg,learning,20,images/assets/success.jpg,images/assets/gameover.jpg,,,,,,,,,,,,,0,9,9,1,1,,,,,,,,,,,,,,,,,,,,,,,,,,,,,,,,
,,,,,,,,,,,,67f41aadb805ee4c476ddb19,001,3,2025-04-15_11h10.52.215,avatar_quest_3AFC_legacy,2022.1.3,Win32,60.97560976,67f41aadb805ee4c476ddb19,67fe6e666cecbc9329ddf6d6,67fe701944b434c9ccee4417,,,,,,,,,,,,,,,,,,,,,,No Brainslug Difficult 2 No Money,12,images/assets/snowy_original.jpg,learning,20,images/assets/success.jpg,images/assets/gameover.jpg,,,,,,,,,,,,,0,10,10,8,1,,,,,,,,,,,,,,,,,,,,,,,,,,,,,,,,
,,,,,,,,,,,,67f41aadb805ee4c476ddb19,001,3,2025-04-15_11h10.52.215,avatar_quest_3AFC_legacy,2022.1.3,Win32,60.97560976,67f41aadb805ee4c476ddb19,67fe6e666cecbc9329ddf6d6,67fe701944b434c9ccee4417,,,,,,,,,,,,,,,,,,,,,,,,,,,,,,,,,,,,,,,,,,,,,,,,,,,,,,,10,0,10,0,1,,,,,,,,,,,,,,,,,,
,,,,,,,,,,,,67f41aadb805ee4c476ddb19,001,3,2025-04-15_11h10.52.215,avatar_quest_3AFC_legacy,2022.1.3,Win32,60.97560976,67f41aadb805ee4c476ddb19,67fe6e666cecbc9329ddf6d6,67fe701944b434c9ccee4417,,,,,,,,,,,,,,,,,,,,,,With Brainslug Difficult 2 No Money,12,images/assets/snowy_original.jpg,learning,20,images/assets/success.jpg,images/assets/gameover.jpg,,,,,,,,With Brainslug Difficult 1 No Money,With Brainslug Difficult 1 No Money,left,1.305,"[""With Brainslug Difficult 2 No Money"",""With Brainslug Difficult 2 With Money""]",0,0,0,3,1,,,,,,,,,,,,,,,,,,,,,,,,,,,,,,,,
,,,,,,,,,,,,67f41aadb805ee4c476ddb19,001,3,2025-04-15_11h10.52.215,avatar_quest_3AFC_legacy,2022.1.3,Win32,60.97560976,67f41aadb805ee4c476ddb19,67fe6e666cecbc9329ddf6d6,67fe701944b434c9ccee4417,,,,,,,,,,,,,,,,,,,,,,With Brainslug Difficult 2 With Money,12,images/assets/snowy_money.jpg,learning,20,images/assets/success_money.jpg,images/assets/gameover.jpg,,,,,,,,,,,,,0,1,1,2,1,,,,,,,,,,,,,,,,,,,,,,,,,,,,,,,,
,,,,,,,,,,,,67f41aadb805ee4c476ddb19,001,3,2025-04-15_11h10.52.215,avatar_quest_3AFC_legacy,2022.1.3,Win32,60.97560976,67f41aadb805ee4c476ddb19,67fe6e666cecbc9329ddf6d6,67fe701944b434c9ccee4417,,,,,,,,,,,,,,,,,,,,,,No Brainslug No Barriers With Money,0,images/assets/snowy_money.jpg,learning,10,images/assets/success_money.jpg,images/assets/gameover.jpg,,,,,,,,,,,,,0,2,2,9,1,,,,,,,,,,,,,,,,,,,,,,,,,,,,,,,,
,,,,,,,,,,,,67f41aadb805ee4c476ddb19,001,3,2025-04-15_11h10.52.215,avatar_quest_3AFC_legacy,2022.1.3,Win32,60.97560976,67f41aadb805ee4c476ddb19,67fe6e666cecbc9329ddf6d6,67fe701944b434c9ccee4417,,,,,,,,,,,,,,,,,,,,,,With Brainslug No Barriers With Money,0,images/assets/snowy_money.jpg,learning,10,images/assets/success_money.jpg,images/assets/gameover.jpg,,,,,,,,,,,,,0,3,3,4,1,,,,,,,,,,,,,,,,,,,,,,,,,,,,,,,,
,,,,,,,,,,,,67f41aadb805ee4c476ddb19,001,3,2025-04-15_11h10.52.215,avatar_quest_3AFC_legacy,2022.1.3,Win32,60.97560976,67f41aadb805ee4c476ddb19,67fe6e666cecbc9329ddf6d6,67fe701944b434c9ccee4417,,,,,,,,,,,,,,,,,,,,,,With Brainslug No Barriers No Money,0,images/assets/snowy_original.jpg,learning,10,images/assets/success.jpg,images/assets/gameover.jpg,,,,,,,,,,,,,0,4,4,5,1,,,,,,,,,,,,,,,,,,,,,,,,,,,,,,,,
,,,,,,,,,,,,67f41aadb805ee4c476ddb19,001,3,2025-04-15_11h10.52.215,avatar_quest_3AFC_legacy,2022.1.3,Win32,60.97560976,67f41aadb805ee4c476ddb19,67fe6e666cecbc9329ddf6d6,67fe701944b434c9ccee4417,,,,,,,,,,,,,,,,,,,,,,No Brainslug Difficult 2 With Money,12,images/assets/snowy_money.jpg,learning,20,images/assets/success_money.jpg,images/assets/gameover.jpg,,,,,,,,,,,,,0,5,5,7,1,,,,,,,,,,,,,,,,,,,,,,,,,,,,,,,,
,,,,,,,,,,,,67f41aadb805ee4c476ddb19,001,3,2025-04-15_11h10.52.215,avatar_quest_3AFC_legacy,2022.1.3,Win32,60.97560976,67f41aadb805ee4c476ddb19,67fe6e666cecbc9329ddf6d6,67fe701944b434c9ccee4417,,,,,,,,,,,,,,,,,,,,,,No Brainslug Difficult 2 No Money,12,images/assets/snowy_original.jpg,learning,20,images/assets/success.jpg,images/assets/gameover.jpg,,,,,,,,,,,,,0,6,6,8,1,,,,,,,,,,,,,,,,,,,,,,,,,,,,,,,,
,,,,,,,,,,,,67f41aadb805ee4c476ddb19,001,3,2025-04-15_11h10.52.215,avatar_quest_3AFC_legacy,2022.1.3,Win32,60.97560976,67f41aadb805ee4c476ddb19,67fe6e666cecbc9329ddf6d6,67fe701944b434c9ccee4417,"[""left"",""right"",""right"",""left"",""left"",""left"",""left"",""left"",""right"",""right"",""left"",""left"",""left"",""left"",""left""]","[0.7637999999523117,1.4582999999523167,1.8723999999761531,2.199599999964221,2.453699999988089,2.6885999999641967,2.894599999964214,3.1014999999999873,3.705799999952319,3.898099999964245,4.383299999952271,4.580899999976168,4.797499999999957,4.9952999999522945,5.173299999952292]",,calibration,With Brainslug Difficult 1 No Money,15,11.11795,5.7771,10,2,0,TRUE,na,na,na,na,,,,,,,,,,,,,,,,,,,,,,,,,,,,,,,,,,0,0,0,0,1,,,,,,,,,,,,,,,,,,,,,,,
,,,,,,,,,,,,67f41aadb805ee4c476ddb19,001,3,2025-04-15_11h10.52.215,avatar_quest_3AFC_legacy,2022.1.3,Win32,60.97560976,67f41aadb805ee4c476ddb19,67fe6e666cecbc9329ddf6d6,67fe701944b434c9ccee4417,,,,,,,,,,,,,,,,,,,,,,With Brainslug Difficult 1 No Money,6,images/assets/snowy_original.jpg,learning,20,images/assets/success.jpg,images/assets/gameover.jpg,,,,,,,,,,,,,0,7,7,1,1,,,,,,,,,,,,,,,,,,,,,,,,,,,,,,,,
,,,,,,,,,,,,67f41aadb805ee4c476ddb19,001,3,2025-04-15_11h10.52.215,avatar_quest_3AFC_legacy,2022.1.3,Win32,60.97560976,67f41aadb805ee4c476ddb19,67fe6e666cecbc9329ddf6d6,67fe701944b434c9ccee4417,,,,,,,,,,,,,,,,,,,,,,No Brainslug Difficult 1 No Money,6,images/assets/snowy_original.jpg,learning,20,images/assets/success.jpg,images/assets/gameover.jpg,,,,,,,,,,,,,0,8,8,6,1,,,,,,,,,,,,,,,,,,,,,,,,,,,,,,,,
,,,,,,,,,,,,67f41aadb805ee4c476ddb19,001,3,2025-04-15_11h10.52.215,avatar_quest_3AFC_legacy,2022.1.3,Win32,60.97560976,67f41aadb805ee4c476ddb19,67fe6e666cecbc9329ddf6d6,67fe701944b434c9ccee4417,,,,,,,,,,,,,,,,,,,,,,With Brainslug Difficult 1 With Money,6,images/assets/snowy_money.jpg,learning,20,images/assets/success_money.jpg,images/assets/gameover.jpg,,,,,,,,,,,,,0,9,9,0,1,,,,,,,,,,,,,,,,,,,,,,,,,,,,,,,,
,,,,,,,,,,,,67f41aadb805ee4c476ddb19,001,3,2025-04-15_11h10.52.215,avatar_quest_3AFC_legacy,2022.1.3,Win32,60.97560976,67f41aadb805ee4c476ddb19,67fe6e666cecbc9329ddf6d6,67fe701944b434c9ccee4417,,,,,,,,,,,,,,,,,,,,,,No Brainslug No Barriers No Money,0,images/assets/snowy_original.jpg,learning,10,images/assets/success.jpg,images/assets/gameover.jpg,,,,,,,,,,,,,0,10,10,10,1,,,,,,,,,,,,,,,,,,,,,,,,,,,,,,,,
,,,,,,,,,,,,67f41aadb805ee4c476ddb19,001,3,2025-04-15_11h10.52.215,avatar_quest_3AFC_legacy,2022.1.3,Win32,60.97560976,67f41aadb805ee4c476ddb19,67fe6e666cecbc9329ddf6d6,67fe701944b434c9ccee4417,,,,,,,,,,,,,,,,,,,,,,,,,,,,,,,,,,,,,,,,,,,,,,,,,,,,,,,11,0,11,0,1,,,,,,,,,,,,,,,,,,
,,,,,,,,,,,,67f41aadb805ee4c476ddb19,001,3,2025-04-15_11h10.52.215,avatar_quest_3AFC_legacy,2022.1.3,Win32,60.97560976,67f41aadb805ee4c476ddb19,67fe6e666cecbc9329ddf6d6,67fe701944b434c9ccee4417,,,,,,,,,,,,,,,,,,,,,,,,,,,,,,,,,,,,,,,,,,,,,,,,,,,,,,,,,,,,0,0,0,0,1,1,With Brainslug Difficult 1 No Money,images/assets/With Brainslug Difficult 1 No Money.png,With Brainslug Difficult 2 No Money,images/assets/With Brainslug Difficult 2 No Money.png,With Brainslug Difficult 2 With Money,images/assets/With Brainslug Difficult 2 With Money.png,Achievement vs. money,,,,,
,,,,,,,,,,,,67f41aadb805ee4c476ddb19,001,3,2025-04-15_11h10.52.215,avatar_quest_3AFC_legacy,2022.1.3,Win32,60.97560976,67f41aadb805ee4c476ddb19,67fe6e666cecbc9329ddf6d6,67fe701944b434c9ccee4417,,,,,,,,,,,,,,,,,,,,,,With Brainslug Difficult 2 No Money,12,images/assets/snowy_original.jpg,learning,20,images/assets/success.jpg,images/assets/gameover.jpg,,,,,,,,No Brainslug No Barriers No Money,No Brainslug No Barriers No Money,left,1.4455,"[""No Brainslug Difficult 1 No Money"",""No Brainslug No Barriers With Money""]",0,0,0,3,1,,,,,,,,,,,,,,,,,,,,,,,,,,,,,,,,
,,,,,,,,,,,,67f41aadb805ee4c476ddb19,001,3,2025-04-15_11h10.52.215,avatar_quest_3AFC_legacy,2022.1.3,Win32,60.97560976,67f41aadb805ee4c476ddb19,67fe6e666cecbc9329ddf6d6,67fe701944b434c9ccee4417,"[""left"",""left"",""right"",""right"",""left"",""right"",""left""]","[0.3650000000000091,0.5480999999642222,0.9451999999880627,1.1770999999642413,1.7509999999999764,3.5958999999761545,4.39939999997614]",,calibration,No Brainslug No Barriers No Money,16,8.89436,6.4831,7,0,1,TRUE,na,na,na,na,,,,,,,,,,,,,,,,,,,,,,,,,,,,,,,,,,0,0,0,0,1,,,,,,,,,,,,,,,,,,,,,,,
,,,,,,,,,,,,67f41aadb805ee4c476ddb19,001,3,2025-04-15_11h10.52.215,avatar_quest_3AFC_legacy,2022.1.3,Win32,60.97560976,67f41aadb805ee4c476ddb19,67fe6e666cecbc9329ddf6d6,67fe701944b434c9ccee4417,,,,,,,,,,,,,,,,,,,,,,No Brainslug No Barriers No Money,0,images/assets/snowy_original.jpg,learning,10,images/assets/success.jpg,images/assets/gameover.jpg,,,,,,,,,,,,,0,1,1,10,1,,,,,,,,,,,,,,,,,,,,,,,,,,,,,,,,
,,,,,,,,,,,,67f41aadb805ee4c476ddb19,001,3,2025-04-15_11h10.52.215,avatar_quest_3AFC_legacy,2022.1.3,Win32,60.97560976,67f41aadb805ee4c476ddb19,67fe6e666cecbc9329ddf6d6,67fe701944b434c9ccee4417,,,,,,,,,,,,,,,,,,,,,,With Brainslug Difficult 1 With Money,6,images/assets/snowy_money.jpg,learning,20,images/assets/success_money.jpg,images/assets/gameover.jpg,,,,,,,,,,,,,0,2,2,0,1,,,,,,,,,,,,,,,,,,,,,,,,,,,,,,,,
,,,,,,,,,,,,67f41aadb805ee4c476ddb19,001,3,2025-04-15_11h10.52.215,avatar_quest_3AFC_legacy,2022.1.3,Win32,60.97560976,67f41aadb805ee4c476ddb19,67fe6e666cecbc9329ddf6d6,67fe701944b434c9ccee4417,,,,,,,,,,,,,,,,,,,,,,No Brainslug Difficult 1 No Money,6,images/assets/snowy_original.jpg,learning,20,images/assets/success.jpg,images/assets/gameover.jpg,,,,,,,,,,,,,0,3,3,6,1,,,,,,,,,,,,,,,,,,,,,,,,,,,,,,,,
,,,,,,,,,,,,67f41aadb805ee4c476ddb19,001,3,2025-04-15_11h10.52.215,avatar_quest_3AFC_legacy,2022.1.3,Win32,60.97560976,67f41aadb805ee4c476ddb19,67fe6e666cecbc9329ddf6d6,67fe701944b434c9ccee4417,,,,,,,,,,,,,,,,,,,,,,No Brainslug Difficult 2 No Money,12,images/assets/snowy_original.jpg,learning,20,images/assets/success.jpg,images/assets/gameover.jpg,,,,,,,,,,,,,0,4,4,8,1,,,,,,,,,,,,,,,,,,,,,,,,,,,,,,,,
,,,,,,,,,,,,67f41aadb805ee4c476ddb19,001,3,2025-04-15_11h10.52.215,avatar_quest_3AFC_legacy,2022.1.3,Win32,60.97560976,67f41aadb805ee4c476ddb19,67fe6e666cecbc9329ddf6d6,67fe701944b434c9ccee4417,,,,,,,,,,,,,,,,,,,,,,With Brainslug Difficult 2 With Money,12,images/assets/snowy_money.jpg,learning,20,images/assets/success_money.jpg,images/assets/gameover.jpg,,,,,,,,,,,,,0,5,5,2,1,,,,,,,,,,,,,,,,,,,,,,,,,,,,,,,,
,,,,,,,,,,,,67f41aadb805ee4c476ddb19,001,3,2025-04-15_11h10.52.215,avatar_quest_3AFC_legacy,2022.1.3,Win32,60.97560976,67f41aadb805ee4c476ddb19,67fe6e666cecbc9329ddf6d6,67fe701944b434c9ccee4417,,,,,,,,,,,,,,,,,,,,,,No Brainslug Difficult 2 With Money,12,images/assets/snowy_money.jpg,learning,20,images/assets/success_money.jpg,images/assets/gameover.jpg,,,,,,,,,,,,,0,6,6,7,1,,,,,,,,,,,,,,,,,,,,,,,,,,,,,,,,
,,,,,,,,,,,,67f41aadb805ee4c476ddb19,001,3,2025-04-15_11h10.52.215,avatar_quest_3AFC_legacy,2022.1.3,Win32,60.97560976,67f41aadb805ee4c476ddb19,67fe6e666cecbc9329ddf6d6,67fe701944b434c9ccee4417,,,,,,,,,,,,,,,,,,,,,,With Brainslug No Barriers With Money,0,images/assets/snowy_money.jpg,learning,10,images/assets/success_money.jpg,images/assets/gameover.jpg,,,,,,,,,,,,,0,7,7,4,1,,,,,,,,,,,,,,,,,,,,,,,,,,,,,,,,
,,,,,,,,,,,,67f41aadb805ee4c476ddb19,001,3,2025-04-15_11h10.52.215,avatar_quest_3AFC_legacy,2022.1.3,Win32,60.97560976,67f41aadb805ee4c476ddb19,67fe6e666cecbc9329ddf6d6,67fe701944b434c9ccee4417,,,,,,,,,,,,,,,,,,,,,,With Brainslug Difficult 1 No Money,6,images/assets/snowy_original.jpg,learning,20,images/assets/success.jpg,images/assets/gameover.jpg,,,,,,,,,,,,,0,8,8,1,1,,,,,,,,,,,,,,,,,,,,,,,,,,,,,,,,
,,,,,,,,,,,,67f41aadb805ee4c476ddb19,001,3,2025-04-15_11h10.52.215,avatar_quest_3AFC_legacy,2022.1.3,Win32,60.97560976,67f41aadb805ee4c476ddb19,67fe6e666cecbc9329ddf6d6,67fe701944b434c9ccee4417,,,,,,,,,,,,,,,,,,,,,,With Brainslug No Barriers No Money,0,images/assets/snowy_original.jpg,learning,10,images/assets/success.jpg,images/assets/gameover.jpg,,,,,,,,,,,,,0,9,9,5,1,,,,,,,,,,,,,,,,,,,,,,,,,,,,,,,,
,,,,,,,,,,,,67f41aadb805ee4c476ddb19,001,3,2025-04-15_11h10.52.215,avatar_quest_3AFC_legacy,2022.1.3,Win32,60.97560976,67f41aadb805ee4c476ddb19,67fe6e666cecbc9329ddf6d6,67fe701944b434c9ccee4417,,,,,,,,,,,,,,,,,,,,,,No Brainslug No Barriers With Money,0,images/assets/snowy_money.jpg,learning,10,images/assets/success_money.jpg,images/assets/gameover.jpg,,,,,,,,,,,,,0,10,10,9,1,,,,,,,,,,,,,,,,,,,,,,,,,,,,,,,,
,,,,,,,,,,,,67f41aadb805ee4c476ddb19,001,3,2025-04-15_11h10.52.215,avatar_quest_3AFC_legacy,2022.1.3,Win32,60.97560976,67f41aadb805ee4c476ddb19,67fe6e666cecbc9329ddf6d6,67fe701944b434c9ccee4417,,,,,,,,,,,,,,,,,,,,,,,,,,,,,,,,,,,,,,,,,,,,,,,,,,,,,,,0,0,0,0,1,,,,,,,,,,,,,,,,,,
,,,,,,,,,,,,67f41aadb805ee4c476ddb19,001,3,2025-04-15_11h10.52.215,avatar_quest_3AFC_legacy,2022.1.3,Win32,60.97560976,67f41aadb805ee4c476ddb19,67fe6e666cecbc9329ddf6d6,67fe701944b434c9ccee4417,,,,,,,,,,,,,,,,,,,,,,No Brainslug Difficult 2 With Money,12,images/assets/snowy_money.jpg,learning,20,images/assets/success_money.jpg,images/assets/gameover.jpg,,,,,,,,No Brainslug No Barriers With Money,No Brainslug No Barriers No Money,right,2.21,"[""No Brainslug No Barriers No Money"",""No Brainslug Difficult 1 No Money""]",0,0,0,7,1,,,,,,,,,,,,,,,,,,,,,,,,,,,,,,,,
,,,,,,,,,,,,67f41aadb805ee4c476ddb19,001,3,2025-04-15_11h10.52.215,avatar_quest_3AFC_legacy,2022.1.3,Win32,60.97560976,67f41aadb805ee4c476ddb19,67fe6e666cecbc9329ddf6d6,67fe701944b434c9ccee4417,"[""left"",""left"",""right"",""right"",""left""]","[2.2206000000238078,2.652499999999975,3.035900000035724,3.503600000023823,4.203200000047673]",,calibration,No Brainslug No Barriers With Money,17,8.89436,6.2491,5,0,1,TRUE,na,na,na,na,,,,,,,,,,,,,,,,,,,,,,,,,,,,,,,,,,0,0,0,0,1,,,,,,,,,,,,,,,,,,,,,,,
,,,,,,,,,,,,67f41aadb805ee4c476ddb19,001,3,2025-04-15_11h10.52.215,avatar_quest_3AFC_legacy,2022.1.3,Win32,60.97560976,67f41aadb805ee4c476ddb19,67fe6e666cecbc9329ddf6d6,67fe701944b434c9ccee4417,,,,,,,,,,,,,,,,,,,,,,No Brainslug No Barriers With Money,0,images/assets/snowy_money.jpg,learning,10,images/assets/success_money.jpg,images/assets/gameover.jpg,,,,,,,,,,,,,0,1,1,9,1,,,,,,,,,,,,,,,,,,,,,,,,,,,,,,,,
,,,,,,,,,,,,67f41aadb805ee4c476ddb19,001,3,2025-04-15_11h10.52.215,avatar_quest_3AFC_legacy,2022.1.3,Win32,60.97560976,67f41aadb805ee4c476ddb19,67fe6e666cecbc9329ddf6d6,67fe701944b434c9ccee4417,,,,,,,,,,,,,,,,,,,,,,No Brainslug No Barriers No Money,0,images/assets/snowy_original.jpg,learning,10,images/assets/success.jpg,images/assets/gameover.jpg,,,,,,,,,,,,,0,2,2,10,1,,,,,,,,,,,,,,,,,,,,,,,,,,,,,,,,
,,,,,,,,,,,,67f41aadb805ee4c476ddb19,001,3,2025-04-15_11h10.52.215,avatar_quest_3AFC_legacy,2022.1.3,Win32,60.97560976,67f41aadb805ee4c476ddb19,67fe6e666cecbc9329ddf6d6,67fe701944b434c9ccee4417,,,,,,,,,,,,,,,,,,,,,,With Brainslug No Barriers With Money,0,images/assets/snowy_money.jpg,learning,10,images/assets/success_money.jpg,images/assets/gameover.jpg,,,,,,,,,,,,,0,3,3,4,1,,,,,,,,,,,,,,,,,,,,,,,,,,,,,,,,
,,,,,,,,,,,,67f41aadb805ee4c476ddb19,001,3,2025-04-15_11h10.52.215,avatar_quest_3AFC_legacy,2022.1.3,Win32,60.97560976,67f41aadb805ee4c476ddb19,67fe6e666cecbc9329ddf6d6,67fe701944b434c9ccee4417,,,,,,,,,,,,,,,,,,,,,,With Brainslug Difficult 1 With Money,6,images/assets/snowy_money.jpg,learning,20,images/assets/success_money.jpg,images/assets/gameover.jpg,,,,,,,,,,,,,0,4,4,0,1,,,,,,,,,,,,,,,,,,,,,,,,,,,,,,,,
,,,,,,,,,,,,67f41aadb805ee4c476ddb19,001,3,2025-04-15_11h10.52.215,avatar_quest_3AFC_legacy,2022.1.3,Win32,60.97560976,67f41aadb805ee4c476ddb19,67fe6e666cecbc9329ddf6d6,67fe701944b434c9ccee4417,,,,,,,,,,,,,,,,,,,,,,With Brainslug No Barriers No Money,0,images/assets/snowy_original.jpg,learning,10,images/assets/success.jpg,images/assets/gameover.jpg,,,,,,,,,,,,,0,5,5,5,1,,,,,,,,,,,,,,,,,,,,,,,,,,,,,,,,
,,,,,,,,,,,,67f41aadb805ee4c476ddb19,001,3,2025-04-15_11h10.52.215,avatar_quest_3AFC_legacy,2022.1.3,Win32,60.97560976,67f41aadb805ee4c476ddb19,67fe6e666cecbc9329ddf6d6,67fe701944b434c9ccee4417,,,,,,,,,,,,,,,,,,,,,,With Brainslug Difficult 2 With Money,12,images/assets/snowy_money.jpg,learning,20,images/assets/success_money.jpg,images/assets/gameover.jpg,,,,,,,,,,,,,0,6,6,2,1,,,,,,,,,,,,,,,,,,,,,,,,,,,,,,,,
,,,,,,,,,,,,67f41aadb805ee4c476ddb19,001,3,2025-04-15_11h10.52.215,avatar_quest_3AFC_legacy,2022.1.3,Win32,60.97560976,67f41aadb805ee4c476ddb19,67fe6e666cecbc9329ddf6d6,67fe701944b434c9ccee4417,,,,,,,,,,,,,,,,,,,,,,With Brainslug Difficult 2 No Money,12,images/assets/snowy_original.jpg,learning,20,images/assets/success.jpg,images/assets/gameover.jpg,,,,,,,,,,,,,0,7,7,3,1,,,,,,,,,,,,,,,,,,,,,,,,,,,,,,,,
,,,,,,,,,,,,67f41aadb805ee4c476ddb19,001,3,2025-04-15_11h10.52.215,avatar_quest_3AFC_legacy,2022.1.3,Win32,60.97560976,67f41aadb805ee4c476ddb19,67fe6e666cecbc9329ddf6d6,67fe701944b434c9ccee4417,,,,,,,,,,,,,,,,,,,,,,No Brainslug Difficult 2 No Money,12,images/assets/snowy_original.jpg,learning,20,images/assets/success.jpg,images/assets/gameover.jpg,,,,,,,,,,,,,0,8,8,8,1,,,,,,,,,,,,,,,,,,,,,,,,,,,,,,,,
,,,,,,,,,,,,67f41aadb805ee4c476ddb19,001,3,2025-04-15_11h10.52.215,avatar_quest_3AFC_legacy,2022.1.3,Win32,60.97560976,67f41aadb805ee4c476ddb19,67fe6e666cecbc9329ddf6d6,67fe701944b434c9ccee4417,,,,,,,,,,,,,,,,,,,,,,With Brainslug Difficult 1 No Money,6,images/assets/snowy_original.jpg,learning,20,images/assets/success.jpg,images/assets/gameover.jpg,,,,,,,,,,,,,0,9,9,1,1,,,,,,,,,,,,,,,,,,,,,,,,,,,,,,,,
,,,,,,,,,,,,67f41aadb805ee4c476ddb19,001,3,2025-04-15_11h10.52.215,avatar_quest_3AFC_legacy,2022.1.3,Win32,60.97560976,67f41aadb805ee4c476ddb19,67fe6e666cecbc9329ddf6d6,67fe701944b434c9ccee4417,,,,,,,,,,,,,,,,,,,,,,No Brainslug Difficult 1 No Money,6,images/assets/snowy_original.jpg,learning,20,images/assets/success.jpg,images/assets/gameover.jpg,,,,,,,,,,,,,0,10,10,6,1,,,,,,,,,,,,,,,,,,,,,,,,,,,,,,,,
,,,,,,,,,,,,67f41aadb805ee4c476ddb19,001,3,2025-04-15_11h10.52.215,avatar_quest_3AFC_legacy,2022.1.3,Win32,60.97560976,67f41aadb805ee4c476ddb19,67fe6e666cecbc9329ddf6d6,67fe701944b434c9ccee4417,,,,,,,,,,,,,,,,,,,,,,,,,,,,,,,,,,,,,,,,,,,,,,,,,,,,,,,1,0,1,0,1,,,,,,,,,,,,,,,,,,
,,,,,,,,,,,,67f41aadb805ee4c476ddb19,001,3,2025-04-15_11h10.52.215,avatar_quest_3AFC_legacy,2022.1.3,Win32,60.97560976,67f41aadb805ee4c476ddb19,67fe6e666cecbc9329ddf6d6,67fe701944b434c9ccee4417,,,,,,,,,,,,,,,,,,,,,,No Brainslug Difficult 2 No Money,12,images/assets/snowy_original.jpg,learning,20,images/assets/success.jpg,images/assets/gameover.jpg,,,,,,,,No Brainslug No Barriers With Money,No Brainslug No Barriers No Money,right,1.2203,"[""No Brainslug No Barriers No Money"",""No Brainslug Difficult 1 No Money""]",0,0,0,8,1,,,,,,,,,,,,,,,,,,,,,,,,,,,,,,,,
,,,,,,,,,,,,67f41aadb805ee4c476ddb19,001,3,2025-04-15_11h10.52.215,avatar_quest_3AFC_legacy,2022.1.3,Win32,60.97560976,67f41aadb805ee4c476ddb19,67fe6e666cecbc9329ddf6d6,67fe701944b434c9ccee4417,"[""left"",""right"",""left"",""left"",""right"",""right"",""left""]","[0.4573000000119123,0.9238000000119087,2.073500000000024,2.5561000000238323,3.258400000035749,3.9748000000118964,4.38900000000001]",,calibration,No Brainslug No Barriers With Money,18,8.89436,5.3991,7,0,0,TRUE,na,na,na,na,,,,,,,,,,,,,,,,,,,,,,,,,,,,,,,,,,0,0,0,0,1,,,,,,,,,,,,,,,,,,,,,,,
,,,,,,,,,,,,67f41aadb805ee4c476ddb19,001,3,2025-04-15_11h10.52.215,avatar_quest_3AFC_legacy,2022.1.3,Win32,60.97560976,67f41aadb805ee4c476ddb19,67fe6e666cecbc9329ddf6d6,67fe701944b434c9ccee4417,,,,,,,,,,,,,,,,,,,,,,No Brainslug No Barriers With Money,0,images/assets/snowy_money.jpg,learning,10,images/assets/success_money.jpg,images/assets/gameover.jpg,,,,,,,,,,,,,0,1,1,9,1,,,,,,,,,,,,,,,,,,,,,,,,,,,,,,,,
,,,,,,,,,,,,67f41aadb805ee4c476ddb19,001,3,2025-04-15_11h10.52.215,avatar_quest_3AFC_legacy,2022.1.3,Win32,60.97560976,67f41aadb805ee4c476ddb19,67fe6e666cecbc9329ddf6d6,67fe701944b434c9ccee4417,,,,,,,,,,,,,,,,,,,,,,With Brainslug No Barriers With Money,0,images/assets/snowy_money.jpg,learning,10,images/assets/success_money.jpg,images/assets/gameover.jpg,,,,,,,,,,,,,0,2,2,4,1,,,,,,,,,,,,,,,,,,,,,,,,,,,,,,,,
,,,,,,,,,,,,67f41aadb805ee4c476ddb19,001,3,2025-04-15_11h10.52.215,avatar_quest_3AFC_legacy,2022.1.3,Win32,60.97560976,67f41aadb805ee4c476ddb19,67fe6e666cecbc9329ddf6d6,67fe701944b434c9ccee4417,,,,,,,,,,,,,,,,,,,,,,With Brainslug Difficult 1 No Money,6,images/assets/snowy_original.jpg,learning,20,images/assets/success.jpg,images/assets/gameover.jpg,,,,,,,,,,,,,0,3,3,1,1,,,,,,,,,,,,,,,,,,,,,,,,,,,,,,,,
,,,,,,,,,,,,67f41aadb805ee4c476ddb19,001,3,2025-04-15_11h10.52.215,avatar_quest_3AFC_legacy,2022.1.3,Win32,60.97560976,67f41aadb805ee4c476ddb19,67fe6e666cecbc9329ddf6d6,67fe701944b434c9ccee4417,,,,,,,,,,,,,,,,,,,,,,With Brainslug Difficult 2 With Money,12,images/assets/snowy_money.jpg,learning,20,images/assets/success_money.jpg,images/assets/gameover.jpg,,,,,,,,,,,,,0,4,4,2,1,,,,,,,,,,,,,,,,,,,,,,,,,,,,,,,,
,,,,,,,,,,,,67f41aadb805ee4c476ddb19,001,3,2025-04-15_11h10.52.215,avatar_quest_3AFC_legacy,2022.1.3,Win32,60.97560976,67f41aadb805ee4c476ddb19,67fe6e666cecbc9329ddf6d6,67fe701944b434c9ccee4417,,,,,,,,,,,,,,,,,,,,,,No Brainslug No Barriers No Money,0,images/assets/snowy_original.jpg,learning,10,images/assets/success.jpg,images/assets/gameover.jpg,,,,,,,,,,,,,0,5,5,10,1,,,,,,,,,,,,,,,,,,,,,,,,,,,,,,,,
,,,,,,,,,,,,67f41aadb805ee4c476ddb19,001,3,2025-04-15_11h10.52.215,avatar_quest_3AFC_legacy,2022.1.3,Win32,60.97560976,67f41aadb805ee4c476ddb19,67fe6e666cecbc9329ddf6d6,67fe701944b434c9ccee4417,,,,,,,,,,,,,,,,,,,,,,With Brainslug Difficult 2 No Money,12,images/assets/snowy_original.jpg,learning,20,images/assets/success.jpg,images/assets/gameover.jpg,,,,,,,,,,,,,0,6,6,3,1,,,,,,,,,,,,,,,,,,,,,,,,,,,,,,,,
,,,,,,,,,,,,67f41aadb805ee4c476ddb19,001,3,2025-04-15_11h10.52.215,avatar_quest_3AFC_legacy,2022.1.3,Win32,60.97560976,67f41aadb805ee4c476ddb19,67fe6e666cecbc9329ddf6d6,67fe701944b434c9ccee4417,,,,,,,,,,,,,,,,,,,,,,With Brainslug Difficult 1 With Money,6,images/assets/snowy_money.jpg,learning,20,images/assets/success_money.jpg,images/assets/gameover.jpg,,,,,,,,,,,,,0,7,7,0,1,,,,,,,,,,,,,,,,,,,,,,,,,,,,,,,,
,,,,,,,,,,,,67f41aadb805ee4c476ddb19,001,3,2025-04-15_11h10.52.215,avatar_quest_3AFC_legacy,2022.1.3,Win32,60.97560976,67f41aadb805ee4c476ddb19,67fe6e666cecbc9329ddf6d6,67fe701944b434c9ccee4417,,,,,,,,,,,,,,,,,,,,,,No Brainslug Difficult 2 With Money,12,images/assets/snowy_money.jpg,learning,20,images/assets/success_money.jpg,images/assets/gameover.jpg,,,,,,,,,,,,,0,8,8,7,1,,,,,,,,,,,,,,,,,,,,,,,,,,,,,,,,
,,,,,,,,,,,,67f41aadb805ee4c476ddb19,001,3,2025-04-15_11h10.52.215,avatar_quest_3AFC_legacy,2022.1.3,Win32,60.97560976,67f41aadb805ee4c476ddb19,67fe6e666cecbc9329ddf6d6,67fe701944b434c9ccee4417,,,,,,,,,,,,,,,,,,,,,,With Brainslug No Barriers No Money,0,images/assets/snowy_original.jpg,learning,10,images/assets/success.jpg,images/assets/gameover.jpg,,,,,,,,,,,,,0,9,9,5,1,,,,,,,,,,,,,,,,,,,,,,,,,,,,,,,,
,,,,,,,,,,,,67f41aadb805ee4c476ddb19,001,3,2025-04-15_11h10.52.215,avatar_quest_3AFC_legacy,2022.1.3,Win32,60.97560976,67f41aadb805ee4c476ddb19,67fe6e666cecbc9329ddf6d6,67fe701944b434c9ccee4417,,,,,,,,,,,,,,,,,,,,,,No Brainslug Difficult 1 No Money,6,images/assets/snowy_original.jpg,learning,20,images/assets/success.jpg,images/assets/gameover.jpg,,,,,,,,,,,,,0,10,10,6,1,,,,,,,,,,,,,,,,,,,,,,,,,,,,,,,,
,,,,,,,,,,,,67f41aadb805ee4c476ddb19,001,3,2025-04-15_11h10.52.215,avatar_quest_3AFC_legacy,2022.1.3,Win32,60.97560976,67f41aadb805ee4c476ddb19,67fe6e666cecbc9329ddf6d6,67fe701944b434c9ccee4417,,,,,,,,,,,,,,,,,,,,,,,,,,,,,,,,,,,,,,,,,,,,,,,,,,,,,,,2,0,2,0,1,,,,,,,,,,,,,,,,,,
,,,,,,,,,,,,67f41aadb805ee4c476ddb19,001,3,2025-04-15_11h10.52.215,avatar_quest_3AFC_legacy,2022.1.3,Win32,60.97560976,67f41aadb805ee4c476ddb19,67fe6e666cecbc9329ddf6d6,67fe701944b434c9ccee4417,,,,,,,,,,,,,,,,,,,,,,With Brainslug No Barriers With Money,0,images/assets/snowy_money.jpg,learning,10,images/assets/success_money.jpg,images/assets/gameover.jpg,,,,,,,,No Brainslug No Barriers With Money,No Brainslug No Barriers No Money,right,2.8497,"[""No Brainslug No Barriers No Money"",""No Brainslug Difficult 1 No Money""]",0,0,0,4,1,,,,,,,,,,,,,,,,,,,,,,,,,,,,,,,,
,,,,,,,,,,,,67f41aadb805ee4c476ddb19,001,3,2025-04-15_11h10.52.215,avatar_quest_3AFC_legacy,2022.1.3,Win32,60.97560976,67f41aadb805ee4c476ddb19,67fe6e666cecbc9329ddf6d6,67fe701944b434c9ccee4417,,,,,,,,,,,,,,,,,,,,,,With Brainslug Difficult 2 With Money,12,images/assets/snowy_money.jpg,learning,20,images/assets/success_money.jpg,images/assets/gameover.jpg,,,,,,,,,,,,,0,1,1,2,1,,,,,,,,,,,,,,,,,,,,,,,,,,,,,,,,
,,,,,,,,,,,,67f41aadb805ee4c476ddb19,001,3,2025-04-15_11h10.52.215,avatar_quest_3AFC_legacy,2022.1.3,Win32,60.97560976,67f41aadb805ee4c476ddb19,67fe6e666cecbc9329ddf6d6,67fe701944b434c9ccee4417,,,,,,,,,,,,,,,,,,,,,,No Brainslug No Barriers No Money,0,images/assets/snowy_original.jpg,learning,10,images/assets/success.jpg,images/assets/gameover.jpg,,,,,,,,,,,,,0,2,2,10,1,,,,,,,,,,,,,,,,,,,,,,,,,,,,,,,,
,,,,,,,,,,,,67f41aadb805ee4c476ddb19,001,3,2025-04-15_11h10.52.215,avatar_quest_3AFC_legacy,2022.1.3,Win32,60.97560976,67f41aadb805ee4c476ddb19,67fe6e666cecbc9329ddf6d6,67fe701944b434c9ccee4417,,,,,,,,,,,,,,,,,,,,,,No Brainslug Difficult 2 With Money,12,images/assets/snowy_money.jpg,learning,20,images/assets/success_money.jpg,images/assets/gameover.jpg,,,,,,,,,,,,,0,3,3,7,1,,,,,,,,,,,,,,,,,,,,,,,,,,,,,,,,
,,,,,,,,,,,,67f41aadb805ee4c476ddb19,001,3,2025-04-15_11h10.52.215,avatar_quest_3AFC_legacy,2022.1.3,Win32,60.97560976,67f41aadb805ee4c476ddb19,67fe6e666cecbc9329ddf6d6,67fe701944b434c9ccee4417,,,,,,,,,,,,,,,,,,,,,,With Brainslug Difficult 1 No Money,6,images/assets/snowy_original.jpg,learning,20,images/assets/success.jpg,images/assets/gameover.jpg,,,,,,,,,,,,,0,4,4,1,1,,,,,,,,,,,,,,,,,,,,,,,,,,,,,,,,
,,,,,,,,,,,,67f41aadb805ee4c476ddb19,001,3,2025-04-15_11h10.52.215,avatar_quest_3AFC_legacy,2022.1.3,Win32,60.97560976,67f41aadb805ee4c476ddb19,67fe6e666cecbc9329ddf6d6,67fe701944b434c9ccee4417,"[""left"",""right"",""left"",""left"",""right"",""right"",""left""]","[0.4446999999880745,0.85269999998809,2.286699999988059,2.785400000035793,3.271000000000015,3.6841999999880954,4.400699999988092]",,calibration,No Brainslug No Barriers With Money,19,8.89436,6.0176,7,0,43,TRUE,na,na,na,na,,,,,,,,,,,,,,,,,,,,,,,,,,,,,,,,,,0,0,0,0,1,,,,,,,,,,,,,,,,,,,,,,,
,,,,,,,,,,,,67f41aadb805ee4c476ddb19,001,3,2025-04-15_11h10.52.215,avatar_quest_3AFC_legacy,2022.1.3,Win32,60.97560976,67f41aadb805ee4c476ddb19,67fe6e666cecbc9329ddf6d6,67fe701944b434c9ccee4417,,,,,,,,,,,,,,,,,,,,,,No Brainslug No Barriers With Money,0,images/assets/snowy_money.jpg,learning,10,images/assets/success_money.jpg,images/assets/gameover.jpg,,,,,,,,,,,,,0,5,5,9,1,,,,,,,,,,,,,,,,,,,,,,,,,,,,,,,,
,,,,,,,,,,,,67f41aadb805ee4c476ddb19,001,3,2025-04-15_11h10.52.215,avatar_quest_3AFC_legacy,2022.1.3,Win32,60.97560976,67f41aadb805ee4c476ddb19,67fe6e666cecbc9329ddf6d6,67fe701944b434c9ccee4417,,,,,,,,,,,,,,,,,,,,,,With Brainslug No Barriers No Money,0,images/assets/snowy_original.jpg,learning,10,images/assets/success.jpg,images/assets/gameover.jpg,,,,,,,,,,,,,0,6,6,5,1,,,,,,,,,,,,,,,,,,,,,,,,,,,,,,,,
,,,,,,,,,,,,67f41aadb805ee4c476ddb19,001,3,2025-04-15_11h10.52.215,avatar_quest_3AFC_legacy,2022.1.3,Win32,60.97560976,67f41aadb805ee4c476ddb19,67fe6e666cecbc9329ddf6d6,67fe701944b434c9ccee4417,,,,,,,,,,,,,,,,,,,,,,No Brainslug Difficult 1 No Money,6,images/assets/snowy_original.jpg,learning,20,images/assets/success.jpg,images/assets/gameover.jpg,,,,,,,,,,,,,0,7,7,6,1,,,,,,,,,,,,,,,,,,,,,,,,,,,,,,,,
,,,,,,,,,,,,67f41aadb805ee4c476ddb19,001,3,2025-04-15_11h10.52.215,avatar_quest_3AFC_legacy,2022.1.3,Win32,60.97560976,67f41aadb805ee4c476ddb19,67fe6e666cecbc9329ddf6d6,67fe701944b434c9ccee4417,,,,,,,,,,,,,,,,,,,,,,No Brainslug Difficult 2 No Money,12,images/assets/snowy_original.jpg,learning,20,images/assets/success.jpg,images/assets/gameover.jpg,,,,,,,,,,,,,0,8,8,8,1,,,,,,,,,,,,,,,,,,,,,,,,,,,,,,,,
,,,,,,,,,,,,67f41aadb805ee4c476ddb19,001,3,2025-04-15_11h10.52.215,avatar_quest_3AFC_legacy,2022.1.3,Win32,60.97560976,67f41aadb805ee4c476ddb19,67fe6e666cecbc9329ddf6d6,67fe701944b434c9ccee4417,,,,,,,,,,,,,,,,,,,,,,With Brainslug Difficult 1 With Money,6,images/assets/snowy_money.jpg,learning,20,images/assets/success_money.jpg,images/assets/gameover.jpg,,,,,,,,,,,,,0,9,9,0,1,,,,,,,,,,,,,,,,,,,,,,,,,,,,,,,,
,,,,,,,,,,,,67f41aadb805ee4c476ddb19,001,3,2025-04-15_11h10.52.215,avatar_quest_3AFC_legacy,2022.1.3,Win32,60.97560976,67f41aadb805ee4c476ddb19,67fe6e666cecbc9329ddf6d6,67fe701944b434c9ccee4417,,,,,,,,,,,,,,,,,,,,,,With Brainslug Difficult 2 No Money,12,images/assets/snowy_original.jpg,learning,20,images/assets/success.jpg,images/assets/gameover.jpg,,,,,,,,,,,,,0,10,10,3,1,,,,,,,,,,,,,,,,,,,,,,,,,,,,,,,,
,,,,,,,,,,,,67f41aadb805ee4c476ddb19,001,3,2025-04-15_11h10.52.215,avatar_quest_3AFC_legacy,2022.1.3,Win32,60.97560976,67f41aadb805ee4c476ddb19,67fe6e666cecbc9329ddf6d6,67fe701944b434c9ccee4417,,,,,,,,,,,,,,,,,,,,,,,,,,,,,,,,,,,,,,,,,,,,,,,,,,,,,,,3,0,3,0,1,,,,,,,,,,,,,,,,,,
