instruction_mouse.x,instruction_mouse.y,instruction_mouse.leftButton,instruction_mouse.midButton,instruction_mouse.rightButton,instruction_mouse.clicked_name,introduce_general.thisRepN,introduce_general.thisTrialN,introduce_general.thisN,introduce_general.thisIndex,introduce_general.ran,thisInstruction,participant,session,game version,date,expName,psychopyVersion,OS,frameRate,PROLIFIC PID,STUDY ID,SESSION ID,move_resp.keys,move_resp.rt,end_resp.keys,phase,condition,trial_num,time_limit,completion_time,left_right_steps,number_of_obsticle_blocks,number_of_tree_blocks,quest_complete,responsivity_summary,av_inter_brainslug_intervals,proportion_jitter,jitter_direction_proportion_right,calibration_phase.thisRepN,calibration_phase.thisTrialN,calibration_phase.thisN,calibration_phase.thisIndex,calibration_phase.ran,BlockLabel,nObsticles,backgroundImage,phaseLabel,n_side_steps,success_im,gameover_im,success_condition,introduce_learning_or_choice.thisRepN,introduce_learning_or_choice.thisTrialN,introduce_learning_or_choice.thisN,introduce_learning_or_choice.thisIndex,introduce_learning_or_choice.ran,choice_resp.keys,chosen_quest,unchosen_quest,choice_resp_3afc.keys,choice_resp_3afc.rt,unchosen_quests,forced_choice_trial.thisRepN,forced_choice_trial.thisTrialN,forced_choice_trial.thisN,forced_choice_trial.thisIndex,forced_choice_trial.ran,enjoyment_slider.response,enjoyment_slider.rt,effort_slider.response,effort_slider.rt,show_loop2.thisRepN,show_loop2.thisTrialN,show_loop2.thisN,show_loop2.thisIndex,show_loop2.ran,trials_per_block.thisRepN,trials_per_block.thisTrialN,trials_per_block.thisN,trials_per_block.thisIndex,trials_per_block.ran,decision_phase_AFC.thisRepN,decision_phase_AFC.thisTrialN,decision_phase_AFC.thisN,decision_phase_AFC.thisIndex,decision_phase_AFC.ran,blockN,BlockLabel1,questIm1,BlockLabel2,questIm2,BlockLabel3,questIm3,quest_condition,showForcedChoice.thisRepN,showForcedChoice.thisTrialN,showForcedChoice.thisN,showForcedChoice.thisIndex,showForcedChoice.ran
0.392592642,-0.404629707,1,0,0,instruction_button,0,0,0,0,1,images/instructions_part1_LSM_taskversion1/Slide1.JPG,67f8d8e6750ee10869241ef1,001,3,2025-04-15_09h26.25.855,avatar_quest_3AFC_legacy,2022.1.3,Win32,29.94011976,67f8d8e6750ee10869241ef1,67fe6e666cecbc9329ddf6d6,67fe861a28fcabaf5d186722,,,,,,,,,,,,,,,,,,,,,,,,,,,,,,,,,,,,,,,,,,,,,,,,,,,,,,,,,,,,,,,,,,,,,,,,,,,,,
0.394444466,-0.390740818,1,0,0,instruction_button,0,1,1,1,1,images/instructions_part1_LSM_taskversion1/Slide2.JPG,67f8d8e6750ee10869241ef1,001,3,2025-04-15_09h26.25.855,avatar_quest_3AFC_legacy,2022.1.3,Win32,29.94011976,67f8d8e6750ee10869241ef1,67fe6e666cecbc9329ddf6d6,67fe861a28fcabaf5d186722,,,,,,,,,,,,,,,,,,,,,,,,,,,,,,,,,,,,,,,,,,,,,,,,,,,,,,,,,,,,,,,,,,,,,,,,,,,,,
0.443518639,-0.42037042,1,0,0,instruction_button,0,2,2,2,1,images/instructions_part1_LSM_taskversion1/Slide3.JPG,67f8d8e6750ee10869241ef1,001,3,2025-04-15_09h26.25.855,avatar_quest_3AFC_legacy,2022.1.3,Win32,29.94011976,67f8d8e6750ee10869241ef1,67fe6e666cecbc9329ddf6d6,67fe861a28fcabaf5d186722,,,,,,,,,,,,,,,,,,,,,,,,,,,,,,,,,,,,,,,,,,,,,,,,,,,,,,,,,,,,,,,,,,,,,,,,,,,,,
0.437963062,-0.400925954,1,0,0,instruction_button,0,3,3,3,1,images/instructions_part1_LSM_taskversion1/Slide3.5.JPG,67f8d8e6750ee10869241ef1,001,3,2025-04-15_09h26.25.855,avatar_quest_3AFC_legacy,2022.1.3,Win32,29.94011976,67f8d8e6750ee10869241ef1,67fe6e666cecbc9329ddf6d6,67fe861a28fcabaf5d186722,,,,,,,,,,,,,,,,,,,,,,,,,,,,,,,,,,,,,,,,,,,,,,,,,,,,,,,,,,,,,,,,,,,,,,,,,,,,,
0.428703732,-0.412037108,1,0,0,instruction_button,0,4,4,4,1,images/instructions_part1_LSM_taskversion1/Slide4.JPG,67f8d8e6750ee10869241ef1,001,3,2025-04-15_09h26.25.855,avatar_quest_3AFC_legacy,2022.1.3,Win32,29.94011976,67f8d8e6750ee10869241ef1,67fe6e666cecbc9329ddf6d6,67fe861a28fcabaf5d186722,,,,,,,,,,,,,,,,,,,,,,,,,,,,,,,,,,,,,,,,,,,,,,,,,,,,,,,,,,,,,,,,,,,,,,,,,,,,,
0.447222286,-0.394444466,1,0,0,instruction_button,0,5,5,5,1,images/instructions_part1_LSM_taskversion1/Slide6.5.JPG,67f8d8e6750ee10869241ef1,001,3,2025-04-15_09h26.25.855,avatar_quest_3AFC_legacy,2022.1.3,Win32,29.94011976,67f8d8e6750ee10869241ef1,67fe6e666cecbc9329ddf6d6,67fe861a28fcabaf5d186722,,,,,,,,,,,,,,,,,,,,,,,,,,,,,,,,,,,,,,,,,,,,,,,,,,,,,,,,,,,,,,,,,,,,,,,,,,,,,
,,,,,,,,,,,,67f8d8e6750ee10869241ef1,001,3,2025-04-15_09h26.25.855,avatar_quest_3AFC_legacy,2022.1.3,Win32,29.94011976,67f8d8e6750ee10869241ef1,67fe6e666cecbc9329ddf6d6,67fe861a28fcabaf5d186722,"[""left"",""right"",""right""]","[2.1265999999940846,3.9920999999940534,5.15900000000002]",,calibration,No Brainslug No Barriers No Money,1,100,5.428,3,0,0,TRUE,na,na,na,na,0,0,0,0,1,No Brainslug No Barriers No Money,0,images/assets/snowy_original.jpg,calibration,10,images/assets/success.jpg,images/assets/gameover.jpg,never,,,,,,,,,,,,,,,,,,,,,,,,,,,,,,,,,,,,,,,,,,,,,,,,
,,,,,,,,,,,,67f8d8e6750ee10869241ef1,001,3,2025-04-15_09h26.25.855,avatar_quest_3AFC_legacy,2022.1.3,Win32,29.94011976,67f8d8e6750ee10869241ef1,67fe6e666cecbc9329ddf6d6,67fe861a28fcabaf5d186722,"[""left"",""left"",""right""]","[2.1175000000000637,2.834399999991092,4.21739999999113]",,calibration,No Brainslug No Barriers No Money,2,100,5.4143,3,0,0,TRUE,na,na,na,na,0,1,1,2,1,No Brainslug No Barriers No Money,0,images/assets/snowy_original.jpg,calibration,10,images/assets/success.jpg,images/assets/gameover.jpg,never,,,,,,,,,,,,,,,,,,,,,,,,,,,,,,,,,,,,,,,,,,,,,,,,
,,,,,,,,,,,,67f8d8e6750ee10869241ef1,001,3,2025-04-15_09h26.25.855,avatar_quest_3AFC_legacy,2022.1.3,Win32,29.94011976,67f8d8e6750ee10869241ef1,67fe6e666cecbc9329ddf6d6,67fe861a28fcabaf5d186722,"[""left"",""left"",""left"",""left""]","[2.1844000000060078,2.401200000002973,2.5842000000029657,3.917299999996999]",,calibration,No Brainslug No Barriers No Money,3,100,5.4488,3,0,0,TRUE,na,na,na,na,0,2,2,1,1,No Brainslug No Barriers No Money,0,images/assets/snowy_original.jpg,calibration,10,images/assets/success.jpg,images/assets/gameover.jpg,never,,,,,,,,,,,,,,,,,,,,,,,,,,,,,,,,,,,,,,,,,,,,,,,,
0.421296332,-0.408333355,1,0,0,instruction_button,,,,,,images/instructions_part2_LSM_taskversion3.jpg,67f8d8e6750ee10869241ef1,001,3,2025-04-15_09h26.25.855,avatar_quest_3AFC_legacy,2022.1.3,Win32,29.94011976,67f8d8e6750ee10869241ef1,67fe6e666cecbc9329ddf6d6,67fe861a28fcabaf5d186722,,,,,,,,,,,,,,,,,,,,,,,,,,,,,,0,0,0,0,1,,,,,,,,,,,,,,,,,,,,,,,,,,,,,,,,,,,,,,,,,,,
,,,,,,,,,,,,67f8d8e6750ee10869241ef1,001,3,2025-04-15_09h26.25.855,avatar_quest_3AFC_legacy,2022.1.3,Win32,29.94011976,67f8d8e6750ee10869241ef1,67fe6e666cecbc9329ddf6d6,67fe861a28fcabaf5d186722,,,,,,,,,,,,,,,,,,,,,,With Brainslug Difficult 2 No Money,12,images/assets/snowy_original.jpg,learning,20,images/assets/success.jpg,images/assets/gameover.jpg,,,,,,,,With Brainslug Difficult 2 With Money,With Brainslug Difficult 1 No Money,right,5.6195,"[""With Brainslug Difficult 1 No Money"",""With Brainslug Difficult 2 No Money""]",0,0,0,3,1,,,,,,,,,,,,,,,,,,,,,,,,,,,,,,,,
,,,,,,,,,,,,67f8d8e6750ee10869241ef1,001,3,2025-04-15_09h26.25.855,avatar_quest_3AFC_legacy,2022.1.3,Win32,29.94011976,67f8d8e6750ee10869241ef1,67fe6e666cecbc9329ddf6d6,67fe861a28fcabaf5d186722,,,,,,,,,,,,,,,,,,,,,,With Brainslug No Barriers No Money,0,images/assets/snowy_original.jpg,learning,10,images/assets/success.jpg,images/assets/gameover.jpg,,,,,,,,,,,,,0,1,1,5,1,,,,,,,,,,,,,,,,,,,,,,,,,,,,,,,,
,,,,,,,,,,,,67f8d8e6750ee10869241ef1,001,3,2025-04-15_09h26.25.855,avatar_quest_3AFC_legacy,2022.1.3,Win32,29.94011976,67f8d8e6750ee10869241ef1,67fe6e666cecbc9329ddf6d6,67fe861a28fcabaf5d186722,,,,,,,,,,,,,,,,,,,,,,No Brainslug Difficult 1 No Money,6,images/assets/snowy_original.jpg,learning,20,images/assets/success.jpg,images/assets/gameover.jpg,,,,,,,,,,,,,0,2,2,6,1,,,,,,,,,,,,,,,,,,,,,,,,,,,,,,,,
,,,,,,,,,,,,67f8d8e6750ee10869241ef1,001,3,2025-04-15_09h26.25.855,avatar_quest_3AFC_legacy,2022.1.3,Win32,29.94011976,67f8d8e6750ee10869241ef1,67fe6e666cecbc9329ddf6d6,67fe861a28fcabaf5d186722,,,,,,,,,,,,,,,,,,,,,,No Brainslug No Barriers With Money,0,images/assets/snowy_money.jpg,learning,10,images/assets/success_money.jpg,images/assets/gameover.jpg,,,,,,,,,,,,,0,3,3,9,1,,,,,,,,,,,,,,,,,,,,,,,,,,,,,,,,
,,,,,,,,,,,,67f8d8e6750ee10869241ef1,001,3,2025-04-15_09h26.25.855,avatar_quest_3AFC_legacy,2022.1.3,Win32,29.94011976,67f8d8e6750ee10869241ef1,67fe6e666cecbc9329ddf6d6,67fe861a28fcabaf5d186722,,,,,,,,,,,,,,,,,,,,,,With Brainslug No Barriers With Money,0,images/assets/snowy_money.jpg,learning,10,images/assets/success_money.jpg,images/assets/gameover.jpg,,,,,,,,,,,,,0,4,4,4,1,,,,,,,,,,,,,,,,,,,,,,,,,,,,,,,,
,,,,,,,,,,,,67f8d8e6750ee10869241ef1,001,3,2025-04-15_09h26.25.855,avatar_quest_3AFC_legacy,2022.1.3,Win32,29.94011976,67f8d8e6750ee10869241ef1,67fe6e666cecbc9329ddf6d6,67fe861a28fcabaf5d186722,,,,,,,,,,,,,,,,,,,,,,No Brainslug No Barriers No Money,0,images/assets/snowy_original.jpg,learning,10,images/assets/success.jpg,images/assets/gameover.jpg,,,,,,,,,,,,,0,5,5,10,1,,,,,,,,,,,,,,,,,,,,,,,,,,,,,,,,
,,,,,,,,,,,,67f8d8e6750ee10869241ef1,001,3,2025-04-15_09h26.25.855,avatar_quest_3AFC_legacy,2022.1.3,Win32,29.94011976,67f8d8e6750ee10869241ef1,67fe6e666cecbc9329ddf6d6,67fe861a28fcabaf5d186722,,,,,,,,,,,,,,,,,,,,,,With Brainslug Difficult 1 With Money,6,images/assets/snowy_money.jpg,learning,20,images/assets/success_money.jpg,images/assets/gameover.jpg,,,,,,,,,,,,,0,6,6,0,1,,,,,,,,,,,,,,,,,,,,,,,,,,,,,,,,
,,,,,,,,,,,,67f8d8e6750ee10869241ef1,001,3,2025-04-15_09h26.25.855,avatar_quest_3AFC_legacy,2022.1.3,Win32,29.94011976,67f8d8e6750ee10869241ef1,67fe6e666cecbc9329ddf6d6,67fe861a28fcabaf5d186722,,,,,,,,,,,,,,,,,,,,,,With Brainslug Difficult 1 No Money,6,images/assets/snowy_original.jpg,learning,20,images/assets/success.jpg,images/assets/gameover.jpg,,,,,,,,,,,,,0,7,7,1,1,,,,,,,,,,,,,,,,,,,,,,,,,,,,,,,,
,,,,,,,,,,,,67f8d8e6750ee10869241ef1,001,3,2025-04-15_09h26.25.855,avatar_quest_3AFC_legacy,2022.1.3,Win32,29.94011976,67f8d8e6750ee10869241ef1,67fe6e666cecbc9329ddf6d6,67fe861a28fcabaf5d186722,"[""right"",""up"",""up"",""up"",""up"",""right"",""right"",""left"",""left""]","[2.52800000000002,4.1939000000060105,4.401799999997024,4.600400000005948,5.042200000002936,5.5390999999940504,5.912700000003042,7.727200000002995,8.012299999997026]",,calibration,With Brainslug Difficult 2 With Money,4,8.14555,8.1595,3,1,0,FALSE,na,na,na,na,,,,,,,,,,,,,,,,,,,,,,,,,,,,,,,,,,0,0,0,0,1,,,,,,,,,,,,,,,,,,,,,,,
,,,,,,,,,,,,67f8d8e6750ee10869241ef1,001,3,2025-04-15_09h26.25.855,avatar_quest_3AFC_legacy,2022.1.3,Win32,29.94011976,67f8d8e6750ee10869241ef1,67fe6e666cecbc9329ddf6d6,67fe861a28fcabaf5d186722,,,,,,,,,,,,,,,,,,,,,,With Brainslug Difficult 2 With Money,12,images/assets/snowy_money.jpg,learning,20,images/assets/success_money.jpg,images/assets/gameover.jpg,,,,,,,,,,,,,0,8,8,2,1,,,,,,,,,,,,,,,,,,,,,,,,,,,,,,,,
,,,,,,,,,,,,67f8d8e6750ee10869241ef1,001,3,2025-04-15_09h26.25.855,avatar_quest_3AFC_legacy,2022.1.3,Win32,29.94011976,67f8d8e6750ee10869241ef1,67fe6e666cecbc9329ddf6d6,67fe861a28fcabaf5d186722,,,,,,,,,,,,,,,,,,,,,,No Brainslug Difficult 2 No Money,12,images/assets/snowy_original.jpg,learning,20,images/assets/success.jpg,images/assets/gameover.jpg,,,,,,,,,,,,,0,9,9,8,1,,,,,,,,,,,,,,,,,,,,,,,,,,,,,,,,
,,,,,,,,,,,,67f8d8e6750ee10869241ef1,001,3,2025-04-15_09h26.25.855,avatar_quest_3AFC_legacy,2022.1.3,Win32,29.94011976,67f8d8e6750ee10869241ef1,67fe6e666cecbc9329ddf6d6,67fe861a28fcabaf5d186722,,,,,,,,,,,,,,,,,,,,,,No Brainslug Difficult 2 With Money,12,images/assets/snowy_money.jpg,learning,20,images/assets/success_money.jpg,images/assets/gameover.jpg,,,,,,,,,,,,,0,10,10,7,1,,,,,,,,,,,,,,,,,,,,,,,,,,,,,,,,
,,,,,,,,,,,,67f8d8e6750ee10869241ef1,001,3,2025-04-15_09h26.25.855,avatar_quest_3AFC_legacy,2022.1.3,Win32,29.94011976,67f8d8e6750ee10869241ef1,67fe6e666cecbc9329ddf6d6,67fe861a28fcabaf5d186722,,,,,,,,,,,,,,,,,,,,,,,,,,,,,,,,,,,,,,,,,,,,,,,,,,,,,,,0,0,0,0,1,,,,,,,,,,,,,,,,,,
,,,,,,,,,,,,67f8d8e6750ee10869241ef1,001,3,2025-04-15_09h26.25.855,avatar_quest_3AFC_legacy,2022.1.3,Win32,29.94011976,67f8d8e6750ee10869241ef1,67fe6e666cecbc9329ddf6d6,67fe861a28fcabaf5d186722,"[""left"",""left"",""left"",""right"",""right"",""right"",""right"",""right"",""left"",""left"",""right""]","[0.7224999999999682,1.5211999999880845,1.7595999999939522,2.240299999996978,2.764799999996967,3.2234999999999445,3.790599999994015,4.289399999991019,6.371599999994032,6.800799999997025,7.693399999991016]",,calibration,With Brainslug Difficult 2 With Money,5,8.14555,8.1655,6,4,0,FALSE,na,na,na,na,,,,,,,,,,,,,,,,,,,,With Brainslug Difficult 2 With Money,With Brainslug Difficult 1 No Money,right,6.0111,"[""With Brainslug Difficult 1 No Money"",""With Brainslug Difficult 2 No Money""]",,,,,,,,,,0,0,0,0,1,,,,,,,,,,,,,,,,,,,,,,,
,,,,,,,,,,,,67f8d8e6750ee10869241ef1,001,3,2025-04-15_09h26.25.855,avatar_quest_3AFC_legacy,2022.1.3,Win32,29.94011976,67f8d8e6750ee10869241ef1,67fe6e666cecbc9329ddf6d6,67fe861a28fcabaf5d186722,,,,,,,,,,,,,,,,,,,,,,With Brainslug Difficult 2 With Money,12,images/assets/snowy_money.jpg,learning,20,images/assets/success_money.jpg,images/assets/gameover.jpg,,,,,,,,,,,,,0,0,0,2,1,,,,,,,,,,,,,,,,,,,,,,,,,,,,,,,,
,,,,,,,,,,,,67f8d8e6750ee10869241ef1,001,3,2025-04-15_09h26.25.855,avatar_quest_3AFC_legacy,2022.1.3,Win32,29.94011976,67f8d8e6750ee10869241ef1,67fe6e666cecbc9329ddf6d6,67fe861a28fcabaf5d186722,,,,,,,,,,,,,,,,,,,,,,No Brainslug No Barriers With Money,0,images/assets/snowy_money.jpg,learning,10,images/assets/success_money.jpg,images/assets/gameover.jpg,,,,,,,,,,,,,0,1,1,9,1,,,,,,,,,,,,,,,,,,,,,,,,,,,,,,,,
,,,,,,,,,,,,67f8d8e6750ee10869241ef1,001,3,2025-04-15_09h26.25.855,avatar_quest_3AFC_legacy,2022.1.3,Win32,29.94011976,67f8d8e6750ee10869241ef1,67fe6e666cecbc9329ddf6d6,67fe861a28fcabaf5d186722,,,,,,,,,,,,,,,,,,,,,,No Brainslug Difficult 2 No Money,12,images/assets/snowy_original.jpg,learning,20,images/assets/success.jpg,images/assets/gameover.jpg,,,,,,,,,,,,,0,2,2,8,1,,,,,,,,,,,,,,,,,,,,,,,,,,,,,,,,
,,,,,,,,,,,,67f8d8e6750ee10869241ef1,001,3,2025-04-15_09h26.25.855,avatar_quest_3AFC_legacy,2022.1.3,Win32,29.94011976,67f8d8e6750ee10869241ef1,67fe6e666cecbc9329ddf6d6,67fe861a28fcabaf5d186722,,,,,,,,,,,,,,,,,,,,,,With Brainslug No Barriers No Money,0,images/assets/snowy_original.jpg,learning,10,images/assets/success.jpg,images/assets/gameover.jpg,,,,,,,,,,,,,0,3,3,5,1,,,,,,,,,,,,,,,,,,,,,,,,,,,,,,,,
,,,,,,,,,,,,67f8d8e6750ee10869241ef1,001,3,2025-04-15_09h26.25.855,avatar_quest_3AFC_legacy,2022.1.3,Win32,29.94011976,67f8d8e6750ee10869241ef1,67fe6e666cecbc9329ddf6d6,67fe861a28fcabaf5d186722,,,,,,,,,,,,,,,,,,,,,,No Brainslug Difficult 2 With Money,12,images/assets/snowy_money.jpg,learning,20,images/assets/success_money.jpg,images/assets/gameover.jpg,,,,,,,,,,,,,0,4,4,7,1,,,,,,,,,,,,,,,,,,,,,,,,,,,,,,,,
,,,,,,,,,,,,67f8d8e6750ee10869241ef1,001,3,2025-04-15_09h26.25.855,avatar_quest_3AFC_legacy,2022.1.3,Win32,29.94011976,67f8d8e6750ee10869241ef1,67fe6e666cecbc9329ddf6d6,67fe861a28fcabaf5d186722,,,,,,,,,,,,,,,,,,,,,,No Brainslug Difficult 1 No Money,6,images/assets/snowy_original.jpg,learning,20,images/assets/success.jpg,images/assets/gameover.jpg,,,,,,,,,,,,,0,5,5,6,1,,,,,,,,,,,,,,,,,,,,,,,,,,,,,,,,
,,,,,,,,,,,,67f8d8e6750ee10869241ef1,001,3,2025-04-15_09h26.25.855,avatar_quest_3AFC_legacy,2022.1.3,Win32,29.94011976,67f8d8e6750ee10869241ef1,67fe6e666cecbc9329ddf6d6,67fe861a28fcabaf5d186722,,,,,,,,,,,,,,,,,,,,,,With Brainslug No Barriers With Money,0,images/assets/snowy_money.jpg,learning,10,images/assets/success_money.jpg,images/assets/gameover.jpg,,,,,,,,,,,,,0,6,6,4,1,,,,,,,,,,,,,,,,,,,,,,,,,,,,,,,,
,,,,,,,,,,,,67f8d8e6750ee10869241ef1,001,3,2025-04-15_09h26.25.855,avatar_quest_3AFC_legacy,2022.1.3,Win32,29.94011976,67f8d8e6750ee10869241ef1,67fe6e666cecbc9329ddf6d6,67fe861a28fcabaf5d186722,,,,,,,,,,,,,,,,,,,,,,No Brainslug No Barriers No Money,0,images/assets/snowy_original.jpg,learning,10,images/assets/success.jpg,images/assets/gameover.jpg,,,,,,,,,,,,,0,7,7,10,1,,,,,,,,,,,,,,,,,,,,,,,,,,,,,,,,
,,,,,,,,,,,,67f8d8e6750ee10869241ef1,001,3,2025-04-15_09h26.25.855,avatar_quest_3AFC_legacy,2022.1.3,Win32,29.94011976,67f8d8e6750ee10869241ef1,67fe6e666cecbc9329ddf6d6,67fe861a28fcabaf5d186722,,,,,,,,,,,,,,,,,,,,,,With Brainslug Difficult 2 No Money,12,images/assets/snowy_original.jpg,learning,20,images/assets/success.jpg,images/assets/gameover.jpg,,,,,,,,,,,,,0,8,8,3,1,,,,,,,,,,,,,,,,,,,,,,,,,,,,,,,,
,,,,,,,,,,,,67f8d8e6750ee10869241ef1,001,3,2025-04-15_09h26.25.855,avatar_quest_3AFC_legacy,2022.1.3,Win32,29.94011976,67f8d8e6750ee10869241ef1,67fe6e666cecbc9329ddf6d6,67fe861a28fcabaf5d186722,,,,,,,,,,,,,,,,,,,,,,With Brainslug Difficult 1 No Money,6,images/assets/snowy_original.jpg,learning,20,images/assets/success.jpg,images/assets/gameover.jpg,,,,,,,,,,,,,0,9,9,1,1,,,,,,,,,,,,,,,,,,,,,,,,,,,,,,,,
,,,,,,,,,,,,67f8d8e6750ee10869241ef1,001,3,2025-04-15_09h26.25.855,avatar_quest_3AFC_legacy,2022.1.3,Win32,29.94011976,67f8d8e6750ee10869241ef1,67fe6e666cecbc9329ddf6d6,67fe861a28fcabaf5d186722,,,,,,,,,,,,,,,,,,,,,,With Brainslug Difficult 1 With Money,6,images/assets/snowy_money.jpg,learning,20,images/assets/success_money.jpg,images/assets/gameover.jpg,,,,,,,,,,,,,0,10,10,0,1,,,,,,,,,,,,,,,,,,,,,,,,,,,,,,,,
,,,,,,,,,,,,67f8d8e6750ee10869241ef1,001,3,2025-04-15_09h26.25.855,avatar_quest_3AFC_legacy,2022.1.3,Win32,29.94011976,67f8d8e6750ee10869241ef1,67fe6e666cecbc9329ddf6d6,67fe861a28fcabaf5d186722,,,,,,,,,,,,,,,,,,,,,,,,,,,,,,,,,,,,,,,,,,,,,,,,,,,,,,,1,0,1,0,1,,,,,,,,,,,,,,,,,,
,,,,,,,,,,,,67f8d8e6750ee10869241ef1,001,3,2025-04-15_09h26.25.855,avatar_quest_3AFC_legacy,2022.1.3,Win32,29.94011976,67f8d8e6750ee10869241ef1,67fe6e666cecbc9329ddf6d6,67fe861a28fcabaf5d186722,,,,,,,,,,,,,,,,,,,,,,No Brainslug Difficult 2 With Money,12,images/assets/snowy_money.jpg,learning,20,images/assets/success_money.jpg,images/assets/gameover.jpg,,,,,,,,With Brainslug Difficult 1 No Money,With Brainslug Difficult 1 No Money,left,10.8822,"[""With Brainslug Difficult 2 No Money"",""With Brainslug Difficult 2 With Money""]",0,0,0,7,1,,,,,,,,,,,,,,,,,,,,,,,,,,,,,,,,
,,,,,,,,,,,,67f8d8e6750ee10869241ef1,001,3,2025-04-15_09h26.25.855,avatar_quest_3AFC_legacy,2022.1.3,Win32,29.94011976,67f8d8e6750ee10869241ef1,67fe6e666cecbc9329ddf6d6,67fe861a28fcabaf5d186722,,,,,,,,,,,,,,,,,,,,,,With Brainslug Difficult 2 With Money,12,images/assets/snowy_money.jpg,learning,20,images/assets/success_money.jpg,images/assets/gameover.jpg,,,,,,,,,,,,,0,1,1,2,1,,,,,,,,,,,,,,,,,,,,,,,,,,,,,,,,
,,,,,,,,,,,,67f8d8e6750ee10869241ef1,001,3,2025-04-15_09h26.25.855,avatar_quest_3AFC_legacy,2022.1.3,Win32,29.94011976,67f8d8e6750ee10869241ef1,67fe6e666cecbc9329ddf6d6,67fe861a28fcabaf5d186722,,,,,,,,,,,,,,,,,,,,,,With Brainslug Difficult 1 With Money,6,images/assets/snowy_money.jpg,learning,20,images/assets/success_money.jpg,images/assets/gameover.jpg,,,,,,,,,,,,,0,2,2,0,1,,,,,,,,,,,,,,,,,,,,,,,,,,,,,,,,
,,,,,,,,,,,,67f8d8e6750ee10869241ef1,001,3,2025-04-15_09h26.25.855,avatar_quest_3AFC_legacy,2022.1.3,Win32,29.94011976,67f8d8e6750ee10869241ef1,67fe6e666cecbc9329ddf6d6,67fe861a28fcabaf5d186722,,,,,,,,,,,,,,,,,,,,,,No Brainslug No Barriers No Money,0,images/assets/snowy_original.jpg,learning,10,images/assets/success.jpg,images/assets/gameover.jpg,,,,,,,,,,,,,0,3,3,10,1,,,,,,,,,,,,,,,,,,,,,,,,,,,,,,,,
,,,,,,,,,,,,67f8d8e6750ee10869241ef1,001,3,2025-04-15_09h26.25.855,avatar_quest_3AFC_legacy,2022.1.3,Win32,29.94011976,67f8d8e6750ee10869241ef1,67fe6e666cecbc9329ddf6d6,67fe861a28fcabaf5d186722,,,,,,,,,,,,,,,,,,,,,,No Brainslug Difficult 1 No Money,6,images/assets/snowy_original.jpg,learning,20,images/assets/success.jpg,images/assets/gameover.jpg,,,,,,,,,,,,,0,4,4,6,1,,,,,,,,,,,,,,,,,,,,,,,,,,,,,,,,
,,,,,,,,,,,,67f8d8e6750ee10869241ef1,001,3,2025-04-15_09h26.25.855,avatar_quest_3AFC_legacy,2022.1.3,Win32,29.94011976,67f8d8e6750ee10869241ef1,67fe6e666cecbc9329ddf6d6,67fe861a28fcabaf5d186722,,,,,,,,,,,,,,,,,,,,,,No Brainslug Difficult 2 No Money,12,images/assets/snowy_original.jpg,learning,20,images/assets/success.jpg,images/assets/gameover.jpg,,,,,,,,,,,,,0,5,5,8,1,,,,,,,,,,,,,,,,,,,,,,,,,,,,,,,,
,,,,,,,,,,,,67f8d8e6750ee10869241ef1,001,3,2025-04-15_09h26.25.855,avatar_quest_3AFC_legacy,2022.1.3,Win32,29.94011976,67f8d8e6750ee10869241ef1,67fe6e666cecbc9329ddf6d6,67fe861a28fcabaf5d186722,,,,,,,,,,,,,,,,,,,,,,With Brainslug Difficult 2 No Money,12,images/assets/snowy_original.jpg,learning,20,images/assets/success.jpg,images/assets/gameover.jpg,,,,,,,,,,,,,0,6,6,3,1,,,,,,,,,,,,,,,,,,,,,,,,,,,,,,,,
,,,,,,,,,,,,67f8d8e6750ee10869241ef1,001,3,2025-04-15_09h26.25.855,avatar_quest_3AFC_legacy,2022.1.3,Win32,29.94011976,67f8d8e6750ee10869241ef1,67fe6e666cecbc9329ddf6d6,67fe861a28fcabaf5d186722,,,,,,,,,,,,,,,,,,,,,,With Brainslug No Barriers No Money,0,images/assets/snowy_original.jpg,learning,10,images/assets/success.jpg,images/assets/gameover.jpg,,,,,,,,,,,,,0,7,7,5,1,,,,,,,,,,,,,,,,,,,,,,,,,,,,,,,,
,,,,,,,,,,,,67f8d8e6750ee10869241ef1,001,3,2025-04-15_09h26.25.855,avatar_quest_3AFC_legacy,2022.1.3,Win32,29.94011976,67f8d8e6750ee10869241ef1,67fe6e666cecbc9329ddf6d6,67fe861a28fcabaf5d186722,,,,,,,,,,,,,,,,,,,,,,No Brainslug No Barriers With Money,0,images/assets/snowy_money.jpg,learning,10,images/assets/success_money.jpg,images/assets/gameover.jpg,,,,,,,,,,,,,0,8,8,9,1,,,,,,,,,,,,,,,,,,,,,,,,,,,,,,,,
,,,,,,,,,,,,67f8d8e6750ee10869241ef1,001,3,2025-04-15_09h26.25.855,avatar_quest_3AFC_legacy,2022.1.3,Win32,29.94011976,67f8d8e6750ee10869241ef1,67fe6e666cecbc9329ddf6d6,67fe861a28fcabaf5d186722,"[""down"",""left"",""left"",""left"",""up"",""down"",""right"",""left"",""left"",""left""]","[0.9829000000059978,2.2266000000089434,3.5610000000000355,3.8833000000120137,4.5991000000090025,5.230800000011982,5.981600000008939,6.515400000006025,6.748800000012011,6.958500000000072]",,calibration,With Brainslug Difficult 1 No Money,6,8.14555,8.1663,2,2,0,FALSE,na,na,na,na,,,,,,,,,,,,,,,,,,,,,,,,,,,,,,,,,,0,0,0,0,1,,,,,,,,,,,,,,,,,,,,,,,
,,,,,,,,,,,,67f8d8e6750ee10869241ef1,001,3,2025-04-15_09h26.25.855,avatar_quest_3AFC_legacy,2022.1.3,Win32,29.94011976,67f8d8e6750ee10869241ef1,67fe6e666cecbc9329ddf6d6,67fe861a28fcabaf5d186722,,,,,,,,,,,,,,,,,,,,,,With Brainslug Difficult 1 No Money,6,images/assets/snowy_original.jpg,learning,20,images/assets/success.jpg,images/assets/gameover.jpg,,,,,,,,,,,,,0,9,9,1,1,,,,,,,,,,,,,,,,,,,,,,,,,,,,,,,,
,,,,,,,,,,,,67f8d8e6750ee10869241ef1,001,3,2025-04-15_09h26.25.855,avatar_quest_3AFC_legacy,2022.1.3,Win32,29.94011976,67f8d8e6750ee10869241ef1,67fe6e666cecbc9329ddf6d6,67fe861a28fcabaf5d186722,,,,,,,,,,,,,,,,,,,,,,With Brainslug No Barriers With Money,0,images/assets/snowy_money.jpg,learning,10,images/assets/success_money.jpg,images/assets/gameover.jpg,,,,,,,,,,,,,0,10,10,4,1,,,,,,,,,,,,,,,,,,,,,,,,,,,,,,,,
,,,,,,,,,,,,67f8d8e6750ee10869241ef1,001,3,2025-04-15_09h26.25.855,avatar_quest_3AFC_legacy,2022.1.3,Win32,29.94011976,67f8d8e6750ee10869241ef1,67fe6e666cecbc9329ddf6d6,67fe861a28fcabaf5d186722,,,,,,,,,,,,,,,,,,,,,,,,,,,,,,,,,,,,,,,,,,,,,,,,,,,,,,,2,0,2,0,1,,,,,,,,,,,,,,,,,,
,,,,,,,,,,,,67f8d8e6750ee10869241ef1,001,3,2025-04-15_09h26.25.855,avatar_quest_3AFC_legacy,2022.1.3,Win32,29.94011976,67f8d8e6750ee10869241ef1,67fe6e666cecbc9329ddf6d6,67fe861a28fcabaf5d186722,,,,,,,,,,,,,,,,,,,,,,With Brainslug No Barriers With Money,0,images/assets/snowy_money.jpg,learning,10,images/assets/success_money.jpg,images/assets/gameover.jpg,,,,,,,,With Brainslug Difficult 1 No Money,With Brainslug Difficult 1 No Money,left,0.0916,"[""With Brainslug Difficult 2 No Money"",""With Brainslug Difficult 2 With Money""]",0,0,0,4,1,,,,,,,,,,,,,,,,,,,,,,,,,,,,,,,,
,,,,,,,,,,,,67f8d8e6750ee10869241ef1,001,3,2025-04-15_09h26.25.855,avatar_quest_3AFC_legacy,2022.1.3,Win32,29.94011976,67f8d8e6750ee10869241ef1,67fe6e666cecbc9329ddf6d6,67fe861a28fcabaf5d186722,,,,,,,,,,,,,,,,,,,,,,No Brainslug Difficult 1 No Money,6,images/assets/snowy_original.jpg,learning,20,images/assets/success.jpg,images/assets/gameover.jpg,,,,,,,,,,,,,0,1,1,6,1,,,,,,,,,,,,,,,,,,,,,,,,,,,,,,,,
,,,,,,,,,,,,67f8d8e6750ee10869241ef1,001,3,2025-04-15_09h26.25.855,avatar_quest_3AFC_legacy,2022.1.3,Win32,29.94011976,67f8d8e6750ee10869241ef1,67fe6e666cecbc9329ddf6d6,67fe861a28fcabaf5d186722,,,,,,,,,,,,,,,,,,,,,,No Brainslug Difficult 2 No Money,12,images/assets/snowy_original.jpg,learning,20,images/assets/success.jpg,images/assets/gameover.jpg,,,,,,,,,,,,,0,2,2,8,1,,,,,,,,,,,,,,,,,,,,,,,,,,,,,,,,
,,,,,,,,,,,,67f8d8e6750ee10869241ef1,001,3,2025-04-15_09h26.25.855,avatar_quest_3AFC_legacy,2022.1.3,Win32,29.94011976,67f8d8e6750ee10869241ef1,67fe6e666cecbc9329ddf6d6,67fe861a28fcabaf5d186722,,,,,,,,,,,,,,,,,,,,,,No Brainslug Difficult 2 With Money,12,images/assets/snowy_money.jpg,learning,20,images/assets/success_money.jpg,images/assets/gameover.jpg,,,,,,,,,,,,,0,3,3,7,1,,,,,,,,,,,,,,,,,,,,,,,,,,,,,,,,
,,,,,,,,,,,,67f8d8e6750ee10869241ef1,001,3,2025-04-15_09h26.25.855,avatar_quest_3AFC_legacy,2022.1.3,Win32,29.94011976,67f8d8e6750ee10869241ef1,67fe6e666cecbc9329ddf6d6,67fe861a28fcabaf5d186722,,,,,,,,,,,,,,,,,,,,,,With Brainslug No Barriers No Money,0,images/assets/snowy_original.jpg,learning,10,images/assets/success.jpg,images/assets/gameover.jpg,,,,,,,,,,,,,0,4,4,5,1,,,,,,,,,,,,,,,,,,,,,,,,,,,,,,,,
,,,,,,,,,,,,67f8d8e6750ee10869241ef1,001,3,2025-04-15_09h26.25.855,avatar_quest_3AFC_legacy,2022.1.3,Win32,29.94011976,67f8d8e6750ee10869241ef1,67fe6e666cecbc9329ddf6d6,67fe861a28fcabaf5d186722,,,,,,,,,,,,,,,,,,,,,,With Brainslug Difficult 1 With Money,6,images/assets/snowy_money.jpg,learning,20,images/assets/success_money.jpg,images/assets/gameover.jpg,,,,,,,,,,,,,0,5,5,0,1,,,,,,,,,,,,,,,,,,,,,,,,,,,,,,,,
,,,,,,,,,,,,67f8d8e6750ee10869241ef1,001,3,2025-04-15_09h26.25.855,avatar_quest_3AFC_legacy,2022.1.3,Win32,29.94011976,67f8d8e6750ee10869241ef1,67fe6e666cecbc9329ddf6d6,67fe861a28fcabaf5d186722,,,,,,,,,,,,,,,,,,,,,,No Brainslug No Barriers With Money,0,images/assets/snowy_money.jpg,learning,10,images/assets/success_money.jpg,images/assets/gameover.jpg,,,,,,,,,,,,,0,6,6,9,1,,,,,,,,,,,,,,,,,,,,,,,,,,,,,,,,
,,,,,,,,,,,,67f8d8e6750ee10869241ef1,001,3,2025-04-15_09h26.25.855,avatar_quest_3AFC_legacy,2022.1.3,Win32,29.94011976,67f8d8e6750ee10869241ef1,67fe6e666cecbc9329ddf6d6,67fe861a28fcabaf5d186722,,,,,,,,,,,,,,,,,,,,,,No Brainslug No Barriers No Money,0,images/assets/snowy_original.jpg,learning,10,images/assets/success.jpg,images/assets/gameover.jpg,,,,,,,,,,,,,0,7,7,10,1,,,,,,,,,,,,,,,,,,,,,,,,,,,,,,,,
,,,,,,,,,,,,67f8d8e6750ee10869241ef1,001,3,2025-04-15_09h26.25.855,avatar_quest_3AFC_legacy,2022.1.3,Win32,29.94011976,67f8d8e6750ee10869241ef1,67fe6e666cecbc9329ddf6d6,67fe861a28fcabaf5d186722,"[""left"",""left"",""left"",""left"",""left"",""left"",""left"",""left""]","[0.6972999999969716,2.617099999994025,2.963200000002985,3.3497999999970034,4.627299999997035,5.088400000006004,6.183700000003,7.260099999994054]",,calibration,With Brainslug Difficult 1 No Money,7,8.14555,8.1664,4,3,0,FALSE,na,na,na,na,,,,,,,,,,,,,,,,,,,,,,,,,,,,,,,,,,0,0,0,0,1,,,,,,,,,,,,,,,,,,,,,,,
,,,,,,,,,,,,67f8d8e6750ee10869241ef1,001,3,2025-04-15_09h26.25.855,avatar_quest_3AFC_legacy,2022.1.3,Win32,29.94011976,67f8d8e6750ee10869241ef1,67fe6e666cecbc9329ddf6d6,67fe861a28fcabaf5d186722,,,,,,,,,,,,,,,,,,,,,,With Brainslug Difficult 1 No Money,6,images/assets/snowy_original.jpg,learning,20,images/assets/success.jpg,images/assets/gameover.jpg,,,,,,,,,,,,,0,8,8,1,1,,,,,,,,,,,,,,,,,,,,,,,,,,,,,,,,
,,,,,,,,,,,,67f8d8e6750ee10869241ef1,001,3,2025-04-15_09h26.25.855,avatar_quest_3AFC_legacy,2022.1.3,Win32,29.94011976,67f8d8e6750ee10869241ef1,67fe6e666cecbc9329ddf6d6,67fe861a28fcabaf5d186722,,,,,,,,,,,,,,,,,,,,,,With Brainslug Difficult 2 With Money,12,images/assets/snowy_money.jpg,learning,20,images/assets/success_money.jpg,images/assets/gameover.jpg,,,,,,,,,,,,,0,9,9,2,1,,,,,,,,,,,,,,,,,,,,,,,,,,,,,,,,
,,,,,,,,,,,,67f8d8e6750ee10869241ef1,001,3,2025-04-15_09h26.25.855,avatar_quest_3AFC_legacy,2022.1.3,Win32,29.94011976,67f8d8e6750ee10869241ef1,67fe6e666cecbc9329ddf6d6,67fe861a28fcabaf5d186722,,,,,,,,,,,,,,,,,,,,,,With Brainslug Difficult 2 No Money,12,images/assets/snowy_original.jpg,learning,20,images/assets/success.jpg,images/assets/gameover.jpg,,,,,,,,,,,,,0,10,10,3,1,,,,,,,,,,,,,,,,,,,,,,,,,,,,,,,,
,,,,,,,,,,,,67f8d8e6750ee10869241ef1,001,3,2025-04-15_09h26.25.855,avatar_quest_3AFC_legacy,2022.1.3,Win32,29.94011976,67f8d8e6750ee10869241ef1,67fe6e666cecbc9329ddf6d6,67fe861a28fcabaf5d186722,,,,,,,,,,,,,,,,,,,,,,,,,,,,,,,,,,,,,,,,,,,,,,,,,,,,,,,3,0,3,0,1,,,,,,,,,,,,,,,,,,
,,,,,,,,,,,,67f8d8e6750ee10869241ef1,001,3,2025-04-15_09h26.25.855,avatar_quest_3AFC_legacy,2022.1.3,Win32,29.94011976,67f8d8e6750ee10869241ef1,67fe6e666cecbc9329ddf6d6,67fe861a28fcabaf5d186722,,,,,,,,,,,,,,,,,,,,,,No Brainslug No Barriers No Money,0,images/assets/snowy_original.jpg,learning,10,images/assets/success.jpg,images/assets/gameover.jpg,,,,,,,,With Brainslug Difficult 2 With Money,With Brainslug Difficult 1 No Money,right,3.4186,"[""With Brainslug Difficult 1 No Money"",""With Brainslug Difficult 2 No Money""]",0,0,0,10,1,,,,,,,,,,,,,,,,,,,,,,,,,,,,,,,,
,,,,,,,,,,,,67f8d8e6750ee10869241ef1,001,3,2025-04-15_09h26.25.855,avatar_quest_3AFC_legacy,2022.1.3,Win32,29.94011976,67f8d8e6750ee10869241ef1,67fe6e666cecbc9329ddf6d6,67fe861a28fcabaf5d186722,,,,,,,,,,,,,,,,,,,,,,No Brainslug Difficult 2 No Money,12,images/assets/snowy_original.jpg,learning,20,images/assets/success.jpg,images/assets/gameover.jpg,,,,,,,,,,,,,0,1,1,8,1,,,,,,,,,,,,,,,,,,,,,,,,,,,,,,,,
,,,,,,,,,,,,67f8d8e6750ee10869241ef1,001,3,2025-04-15_09h26.25.855,avatar_quest_3AFC_legacy,2022.1.3,Win32,29.94011976,67f8d8e6750ee10869241ef1,67fe6e666cecbc9329ddf6d6,67fe861a28fcabaf5d186722,,,,,,,,,,,,,,,,,,,,,,With Brainslug No Barriers With Money,0,images/assets/snowy_money.jpg,learning,10,images/assets/success_money.jpg,images/assets/gameover.jpg,,,,,,,,,,,,,0,2,2,4,1,,,,,,,,,,,,,,,,,,,,,,,,,,,,,,,,
,,,,,,,,,,,,67f8d8e6750ee10869241ef1,001,3,2025-04-15_09h26.25.855,avatar_quest_3AFC_legacy,2022.1.3,Win32,29.94011976,67f8d8e6750ee10869241ef1,67fe6e666cecbc9329ddf6d6,67fe861a28fcabaf5d186722,,,,,,,,,,,,,,,,,,,,,,With Brainslug No Barriers No Money,0,images/assets/snowy_original.jpg,learning,10,images/assets/success.jpg,images/assets/gameover.jpg,,,,,,,,,,,,,0,3,3,5,1,,,,,,,,,,,,,,,,,,,,,,,,,,,,,,,,
,,,,,,,,,,,,67f8d8e6750ee10869241ef1,001,3,2025-04-15_09h26.25.855,avatar_quest_3AFC_legacy,2022.1.3,Win32,29.94011976,67f8d8e6750ee10869241ef1,67fe6e666cecbc9329ddf6d6,67fe861a28fcabaf5d186722,,,,,,,,,,,,,,,,,,,,,,With Brainslug Difficult 1 No Money,6,images/assets/snowy_original.jpg,learning,20,images/assets/success.jpg,images/assets/gameover.jpg,,,,,,,,,,,,,0,4,4,1,1,,,,,,,,,,,,,,,,,,,,,,,,,,,,,,,,
,,,,,,,,,,,,67f8d8e6750ee10869241ef1,001,3,2025-04-15_09h26.25.855,avatar_quest_3AFC_legacy,2022.1.3,Win32,29.94011976,67f8d8e6750ee10869241ef1,67fe6e666cecbc9329ddf6d6,67fe861a28fcabaf5d186722,,,,,,,,,,,,,,,,,,,,,,No Brainslug No Barriers With Money,0,images/assets/snowy_money.jpg,learning,10,images/assets/success_money.jpg,images/assets/gameover.jpg,,,,,,,,,,,,,0,5,5,9,1,,,,,,,,,,,,,,,,,,,,,,,,,,,,,,,,
,,,,,,,,,,,,67f8d8e6750ee10869241ef1,001,3,2025-04-15_09h26.25.855,avatar_quest_3AFC_legacy,2022.1.3,Win32,29.94011976,67f8d8e6750ee10869241ef1,67fe6e666cecbc9329ddf6d6,67fe861a28fcabaf5d186722,,,,,,,,,,,,,,,,,,,,,,No Brainslug Difficult 2 With Money,12,images/assets/snowy_money.jpg,learning,20,images/assets/success_money.jpg,images/assets/gameover.jpg,,,,,,,,,,,,,0,6,6,7,1,,,,,,,,,,,,,,,,,,,,,,,,,,,,,,,,
,,,,,,,,,,,,67f8d8e6750ee10869241ef1,001,3,2025-04-15_09h26.25.855,avatar_quest_3AFC_legacy,2022.1.3,Win32,29.94011976,67f8d8e6750ee10869241ef1,67fe6e666cecbc9329ddf6d6,67fe861a28fcabaf5d186722,,,,,,,,,,,,,,,,,,,,,,No Brainslug Difficult 1 No Money,6,images/assets/snowy_original.jpg,learning,20,images/assets/success.jpg,images/assets/gameover.jpg,,,,,,,,,,,,,0,7,7,6,1,,,,,,,,,,,,,,,,,,,,,,,,,,,,,,,,
,,,,,,,,,,,,67f8d8e6750ee10869241ef1,001,3,2025-04-15_09h26.25.855,avatar_quest_3AFC_legacy,2022.1.3,Win32,29.94011976,67f8d8e6750ee10869241ef1,67fe6e666cecbc9329ddf6d6,67fe861a28fcabaf5d186722,"[""left"",""left"",""right"",""right"",""right"",""right"",""right"",""left"",""left"",""left"",""right"",""right"",""right"",""right"",""right"",""right""]","[1.595599999993965,2.2567000000029793,2.7370999999940295,3.062000000000012,3.32650000000001,3.730200000002924,4.289200000003007,4.8944000000059305,5.665400000005889,6.1889999999999645,6.405900000005886,6.766999999999939,7.0272999999970125,7.5094000000059395,7.773700000002918,7.998099999993997]",,calibration,With Brainslug Difficult 2 With Money,8,8.14555,8.1665,5,2,0,FALSE,na,na,na,na,,,,,,,,,,,,,,,,,,,,,,,,,,,,,,,,,,0,0,0,0,1,,,,,,,,,,,,,,,,,,,,,,,
,,,,,,,,,,,,67f8d8e6750ee10869241ef1,001,3,2025-04-15_09h26.25.855,avatar_quest_3AFC_legacy,2022.1.3,Win32,29.94011976,67f8d8e6750ee10869241ef1,67fe6e666cecbc9329ddf6d6,67fe861a28fcabaf5d186722,,,,,,,,,,,,,,,,,,,,,,With Brainslug Difficult 2 With Money,12,images/assets/snowy_money.jpg,learning,20,images/assets/success_money.jpg,images/assets/gameover.jpg,,,,,,,,,,,,,0,8,8,2,1,,,,,,,,,,,,,,,,,,,,,,,,,,,,,,,,
,,,,,,,,,,,,67f8d8e6750ee10869241ef1,001,3,2025-04-15_09h26.25.855,avatar_quest_3AFC_legacy,2022.1.3,Win32,29.94011976,67f8d8e6750ee10869241ef1,67fe6e666cecbc9329ddf6d6,67fe861a28fcabaf5d186722,,,,,,,,,,,,,,,,,,,,,,With Brainslug Difficult 1 With Money,6,images/assets/snowy_money.jpg,learning,20,images/assets/success_money.jpg,images/assets/gameover.jpg,,,,,,,,,,,,,0,9,9,0,1,,,,,,,,,,,,,,,,,,,,,,,,,,,,,,,,
,,,,,,,,,,,,67f8d8e6750ee10869241ef1,001,3,2025-04-15_09h26.25.855,avatar_quest_3AFC_legacy,2022.1.3,Win32,29.94011976,67f8d8e6750ee10869241ef1,67fe6e666cecbc9329ddf6d6,67fe861a28fcabaf5d186722,,,,,,,,,,,,,,,,,,,,,,With Brainslug Difficult 2 No Money,12,images/assets/snowy_original.jpg,learning,20,images/assets/success.jpg,images/assets/gameover.jpg,,,,,,,,,,,,,0,10,10,3,1,,,,,,,,,,,,,,,,,,,,,,,,,,,,,,,,
,,,,,,,,,,,,67f8d8e6750ee10869241ef1,001,3,2025-04-15_09h26.25.855,avatar_quest_3AFC_legacy,2022.1.3,Win32,29.94011976,67f8d8e6750ee10869241ef1,67fe6e666cecbc9329ddf6d6,67fe861a28fcabaf5d186722,,,,,,,,,,,,,,,,,,,,,,,,,,,,,,,,,,,,,,,,,,,,,,,,,,,,,,,4,0,4,0,1,,,,,,,,,,,,,,,,,,
,,,,,,,,,,,,67f8d8e6750ee10869241ef1,001,3,2025-04-15_09h26.25.855,avatar_quest_3AFC_legacy,2022.1.3,Win32,29.94011976,67f8d8e6750ee10869241ef1,67fe6e666cecbc9329ddf6d6,67fe861a28fcabaf5d186722,,,,,,,,,,,,,,,,,,,,,,No Brainslug No Barriers With Money,0,images/assets/snowy_money.jpg,learning,10,images/assets/success_money.jpg,images/assets/gameover.jpg,,,,,,,,With Brainslug Difficult 2 With Money,With Brainslug Difficult 1 No Money,right,1.8111,"[""With Brainslug Difficult 1 No Money"",""With Brainslug Difficult 2 No Money""]",0,0,0,9,1,,,,,,,,,,,,,,,,,,,,,,,,,,,,,,,,
,,,,,,,,,,,,67f8d8e6750ee10869241ef1,001,3,2025-04-15_09h26.25.855,avatar_quest_3AFC_legacy,2022.1.3,Win32,29.94011976,67f8d8e6750ee10869241ef1,67fe6e666cecbc9329ddf6d6,67fe861a28fcabaf5d186722,,,,,,,,,,,,,,,,,,,,,,With Brainslug Difficult 2 No Money,12,images/assets/snowy_original.jpg,learning,20,images/assets/success.jpg,images/assets/gameover.jpg,,,,,,,,,,,,,0,1,1,3,1,,,,,,,,,,,,,,,,,,,,,,,,,,,,,,,,
,,,,,,,,,,,,67f8d8e6750ee10869241ef1,001,3,2025-04-15_09h26.25.855,avatar_quest_3AFC_legacy,2022.1.3,Win32,29.94011976,67f8d8e6750ee10869241ef1,67fe6e666cecbc9329ddf6d6,67fe861a28fcabaf5d186722,,,,,,,,,,,,,,,,,,,,,,With Brainslug Difficult 1 No Money,6,images/assets/snowy_original.jpg,learning,20,images/assets/success.jpg,images/assets/gameover.jpg,,,,,,,,,,,,,0,2,2,1,1,,,,,,,,,,,,,,,,,,,,,,,,,,,,,,,,
,,,,,,,,,,,,67f8d8e6750ee10869241ef1,001,3,2025-04-15_09h26.25.855,avatar_quest_3AFC_legacy,2022.1.3,Win32,29.94011976,67f8d8e6750ee10869241ef1,67fe6e666cecbc9329ddf6d6,67fe861a28fcabaf5d186722,"[""left"",""right"",""left"",""right"",""left"",""left"",""left"",""left""]","[1.5185999999939668,2.4630999999940286,3.384999999999991,4.127200000002972,4.860500000000002,5.9655999999939695,6.885099999994054,7.85349999999994]",,calibration,With Brainslug Difficult 2 With Money,9,8.14555,8.1661,4,5,0,FALSE,na,na,na,na,,,,,,,,,,,,,,,,,,,,,,,,,,,,,,,,,,0,0,0,0,1,,,,,,,,,,,,,,,,,,,,,,,
,,,,,,,,,,,,67f8d8e6750ee10869241ef1,001,3,2025-04-15_09h26.25.855,avatar_quest_3AFC_legacy,2022.1.3,Win32,29.94011976,67f8d8e6750ee10869241ef1,67fe6e666cecbc9329ddf6d6,67fe861a28fcabaf5d186722,,,,,,,,,,,,,,,,,,,,,,With Brainslug Difficult 2 With Money,12,images/assets/snowy_money.jpg,learning,20,images/assets/success_money.jpg,images/assets/gameover.jpg,,,,,,,,,,,,,0,3,3,2,1,,,,,,,,,,,,,,,,,,,,,,,,,,,,,,,,
,,,,,,,,,,,,67f8d8e6750ee10869241ef1,001,3,2025-04-15_09h26.25.855,avatar_quest_3AFC_legacy,2022.1.3,Win32,29.94011976,67f8d8e6750ee10869241ef1,67fe6e666cecbc9329ddf6d6,67fe861a28fcabaf5d186722,,,,,,,,,,,,,,,,,,,,,,No Brainslug Difficult 1 No Money,6,images/assets/snowy_original.jpg,learning,20,images/assets/success.jpg,images/assets/gameover.jpg,,,,,,,,,,,,,0,4,4,6,1,,,,,,,,,,,,,,,,,,,,,,,,,,,,,,,,
,,,,,,,,,,,,67f8d8e6750ee10869241ef1,001,3,2025-04-15_09h26.25.855,avatar_quest_3AFC_legacy,2022.1.3,Win32,29.94011976,67f8d8e6750ee10869241ef1,67fe6e666cecbc9329ddf6d6,67fe861a28fcabaf5d186722,,,,,,,,,,,,,,,,,,,,,,With Brainslug No Barriers No Money,0,images/assets/snowy_original.jpg,learning,10,images/assets/success.jpg,images/assets/gameover.jpg,,,,,,,,,,,,,0,5,5,5,1,,,,,,,,,,,,,,,,,,,,,,,,,,,,,,,,
,,,,,,,,,,,,67f8d8e6750ee10869241ef1,001,3,2025-04-15_09h26.25.855,avatar_quest_3AFC_legacy,2022.1.3,Win32,29.94011976,67f8d8e6750ee10869241ef1,67fe6e666cecbc9329ddf6d6,67fe861a28fcabaf5d186722,,,,,,,,,,,,,,,,,,,,,,No Brainslug No Barriers No Money,0,images/assets/snowy_original.jpg,learning,10,images/assets/success.jpg,images/assets/gameover.jpg,,,,,,,,,,,,,0,6,6,10,1,,,,,,,,,,,,,,,,,,,,,,,,,,,,,,,,
,,,,,,,,,,,,67f8d8e6750ee10869241ef1,001,3,2025-04-15_09h26.25.855,avatar_quest_3AFC_legacy,2022.1.3,Win32,29.94011976,67f8d8e6750ee10869241ef1,67fe6e666cecbc9329ddf6d6,67fe861a28fcabaf5d186722,,,,,,,,,,,,,,,,,,,,,,No Brainslug Difficult 2 No Money,12,images/assets/snowy_original.jpg,learning,20,images/assets/success.jpg,images/assets/gameover.jpg,,,,,,,,,,,,,0,7,7,8,1,,,,,,,,,,,,,,,,,,,,,,,,,,,,,,,,
,,,,,,,,,,,,67f8d8e6750ee10869241ef1,001,3,2025-04-15_09h26.25.855,avatar_quest_3AFC_legacy,2022.1.3,Win32,29.94011976,67f8d8e6750ee10869241ef1,67fe6e666cecbc9329ddf6d6,67fe861a28fcabaf5d186722,,,,,,,,,,,,,,,,,,,,,,With Brainslug No Barriers With Money,0,images/assets/snowy_money.jpg,learning,10,images/assets/success_money.jpg,images/assets/gameover.jpg,,,,,,,,,,,,,0,8,8,4,1,,,,,,,,,,,,,,,,,,,,,,,,,,,,,,,,
,,,,,,,,,,,,67f8d8e6750ee10869241ef1,001,3,2025-04-15_09h26.25.855,avatar_quest_3AFC_legacy,2022.1.3,Win32,29.94011976,67f8d8e6750ee10869241ef1,67fe6e666cecbc9329ddf6d6,67fe861a28fcabaf5d186722,,,,,,,,,,,,,,,,,,,,,,With Brainslug Difficult 1 With Money,6,images/assets/snowy_money.jpg,learning,20,images/assets/success_money.jpg,images/assets/gameover.jpg,,,,,,,,,,,,,0,9,9,0,1,,,,,,,,,,,,,,,,,,,,,,,,,,,,,,,,
,,,,,,,,,,,,67f8d8e6750ee10869241ef1,001,3,2025-04-15_09h26.25.855,avatar_quest_3AFC_legacy,2022.1.3,Win32,29.94011976,67f8d8e6750ee10869241ef1,67fe6e666cecbc9329ddf6d6,67fe861a28fcabaf5d186722,,,,,,,,,,,,,,,,,,,,,,No Brainslug Difficult 2 With Money,12,images/assets/snowy_money.jpg,learning,20,images/assets/success_money.jpg,images/assets/gameover.jpg,,,,,,,,,,,,,0,10,10,7,1,,,,,,,,,,,,,,,,,,,,,,,,,,,,,,,,
,,,,,,,,,,,,67f8d8e6750ee10869241ef1,001,3,2025-04-15_09h26.25.855,avatar_quest_3AFC_legacy,2022.1.3,Win32,29.94011976,67f8d8e6750ee10869241ef1,67fe6e666cecbc9329ddf6d6,67fe861a28fcabaf5d186722,,,,,,,,,,,,,,,,,,,,,,,,,,,,,,,,,,,,,,,,,,,,,,,,,,,,,,,5,0,5,0,1,,,,,,,,,,,,,,,,,,
,,,,,,,,,,,,67f8d8e6750ee10869241ef1,001,3,2025-04-15_09h26.25.855,avatar_quest_3AFC_legacy,2022.1.3,Win32,29.94011976,67f8d8e6750ee10869241ef1,67fe6e666cecbc9329ddf6d6,67fe861a28fcabaf5d186722,,,,,,,,,,,,,,,,,,,,,,With Brainslug Difficult 1 With Money,6,images/assets/snowy_money.jpg,learning,20,images/assets/success_money.jpg,images/assets/gameover.jpg,,,,,,,,With Brainslug Difficult 2 With Money,With Brainslug Difficult 1 No Money,right,1.557,"[""With Brainslug Difficult 1 No Money"",""With Brainslug Difficult 2 No Money""]",0,0,0,0,1,,,,,,,,,,,,,,,,,,,,,,,,,,,,,,,,
,,,,,,,,,,,,67f8d8e6750ee10869241ef1,001,3,2025-04-15_09h26.25.855,avatar_quest_3AFC_legacy,2022.1.3,Win32,29.94011976,67f8d8e6750ee10869241ef1,67fe6e666cecbc9329ddf6d6,67fe861a28fcabaf5d186722,,,,,,,,,,,,,,,,,,,,,,No Brainslug No Barriers With Money,0,images/assets/snowy_money.jpg,learning,10,images/assets/success_money.jpg,images/assets/gameover.jpg,,,,,,,,,,,,,0,1,1,9,1,,,,,,,,,,,,,,,,,,,,,,,,,,,,,,,,
,,,,,,,,,,,,67f8d8e6750ee10869241ef1,001,3,2025-04-15_09h26.25.855,avatar_quest_3AFC_legacy,2022.1.3,Win32,29.94011976,67f8d8e6750ee10869241ef1,67fe6e666cecbc9329ddf6d6,67fe861a28fcabaf5d186722,,,,,,,,,,,,,,,,,,,,,,With Brainslug No Barriers With Money,0,images/assets/snowy_money.jpg,learning,10,images/assets/success_money.jpg,images/assets/gameover.jpg,,,,,,,,,,,,,0,2,2,4,1,,,,,,,,,,,,,,,,,,,,,,,,,,,,,,,,
,,,,,,,,,,,,67f8d8e6750ee10869241ef1,001,3,2025-04-15_09h26.25.855,avatar_quest_3AFC_legacy,2022.1.3,Win32,29.94011976,67f8d8e6750ee10869241ef1,67fe6e666cecbc9329ddf6d6,67fe861a28fcabaf5d186722,,,,,,,,,,,,,,,,,,,,,,No Brainslug Difficult 2 With Money,12,images/assets/snowy_money.jpg,learning,20,images/assets/success_money.jpg,images/assets/gameover.jpg,,,,,,,,,,,,,0,3,3,7,1,,,,,,,,,,,,,,,,,,,,,,,,,,,,,,,,
,,,,,,,,,,,,67f8d8e6750ee10869241ef1,001,3,2025-04-15_09h26.25.855,avatar_quest_3AFC_legacy,2022.1.3,Win32,29.94011976,67f8d8e6750ee10869241ef1,67fe6e666cecbc9329ddf6d6,67fe861a28fcabaf5d186722,"[""left"",""right"",""left"",""right"",""right"",""right"",""right"",""right"",""right""]","[1.5839000000059968,2.481700000003002,3.9811000000089507,4.795200000002978,5.814700000002972,6.179700000002981,6.5462000000030685,6.8530000000000655,7.14650000000006]",,calibration,With Brainslug Difficult 2 With Money,10,8.14555,8.1646,3,3,0,FALSE,na,na,na,na,,,,,,,,,,,,,,,,,,,,,,,,,,,,,,,,,,0,0,0,0,1,,,,,,,,,,,,,,,,,,,,,,,
,,,,,,,,,,,,67f8d8e6750ee10869241ef1,001,3,2025-04-15_09h26.25.855,avatar_quest_3AFC_legacy,2022.1.3,Win32,29.94011976,67f8d8e6750ee10869241ef1,67fe6e666cecbc9329ddf6d6,67fe861a28fcabaf5d186722,,,,,,,,,,,,,,,,,,,,,,With Brainslug Difficult 2 With Money,12,images/assets/snowy_money.jpg,learning,20,images/assets/success_money.jpg,images/assets/gameover.jpg,,,,,,,,,,,,,0,4,4,2,1,,,,,,,,,,,,,,,,,,,,,,,,,,,,,,,,
,,,,,,,,,,,,67f8d8e6750ee10869241ef1,001,3,2025-04-15_09h26.25.855,avatar_quest_3AFC_legacy,2022.1.3,Win32,29.94011976,67f8d8e6750ee10869241ef1,67fe6e666cecbc9329ddf6d6,67fe861a28fcabaf5d186722,,,,,,,,,,,,,,,,,,,,,,With Brainslug No Barriers No Money,0,images/assets/snowy_original.jpg,learning,10,images/assets/success.jpg,images/assets/gameover.jpg,,,,,,,,,,,,,0,5,5,5,1,,,,,,,,,,,,,,,,,,,,,,,,,,,,,,,,
,,,,,,,,,,,,67f8d8e6750ee10869241ef1,001,3,2025-04-15_09h26.25.855,avatar_quest_3AFC_legacy,2022.1.3,Win32,29.94011976,67f8d8e6750ee10869241ef1,67fe6e666cecbc9329ddf6d6,67fe861a28fcabaf5d186722,,,,,,,,,,,,,,,,,,,,,,No Brainslug No Barriers No Money,0,images/assets/snowy_original.jpg,learning,10,images/assets/success.jpg,images/assets/gameover.jpg,,,,,,,,,,,,,0,6,6,10,1,,,,,,,,,,,,,,,,,,,,,,,,,,,,,,,,
,,,,,,,,,,,,67f8d8e6750ee10869241ef1,001,3,2025-04-15_09h26.25.855,avatar_quest_3AFC_legacy,2022.1.3,Win32,29.94011976,67f8d8e6750ee10869241ef1,67fe6e666cecbc9329ddf6d6,67fe861a28fcabaf5d186722,,,,,,,,,,,,,,,,,,,,,,No Brainslug Difficult 2 No Money,12,images/assets/snowy_original.jpg,learning,20,images/assets/success.jpg,images/assets/gameover.jpg,,,,,,,,,,,,,0,7,7,8,1,,,,,,,,,,,,,,,,,,,,,,,,,,,,,,,,
,,,,,,,,,,,,67f8d8e6750ee10869241ef1,001,3,2025-04-15_09h26.25.855,avatar_quest_3AFC_legacy,2022.1.3,Win32,29.94011976,67f8d8e6750ee10869241ef1,67fe6e666cecbc9329ddf6d6,67fe861a28fcabaf5d186722,,,,,,,,,,,,,,,,,,,,,,With Brainslug Difficult 1 No Money,6,images/assets/snowy_original.jpg,learning,20,images/assets/success.jpg,images/assets/gameover.jpg,,,,,,,,,,,,,0,8,8,1,1,,,,,,,,,,,,,,,,,,,,,,,,,,,,,,,,
,,,,,,,,,,,,67f8d8e6750ee10869241ef1,001,3,2025-04-15_09h26.25.855,avatar_quest_3AFC_legacy,2022.1.3,Win32,29.94011976,67f8d8e6750ee10869241ef1,67fe6e666cecbc9329ddf6d6,67fe861a28fcabaf5d186722,,,,,,,,,,,,,,,,,,,,,,No Brainslug Difficult 1 No Money,6,images/assets/snowy_original.jpg,learning,20,images/assets/success.jpg,images/assets/gameover.jpg,,,,,,,,,,,,,0,9,9,6,1,,,,,,,,,,,,,,,,,,,,,,,,,,,,,,,,
,,,,,,,,,,,,67f8d8e6750ee10869241ef1,001,3,2025-04-15_09h26.25.855,avatar_quest_3AFC_legacy,2022.1.3,Win32,29.94011976,67f8d8e6750ee10869241ef1,67fe6e666cecbc9329ddf6d6,67fe861a28fcabaf5d186722,,,,,,,,,,,,,,,,,,,,,,With Brainslug Difficult 2 No Money,12,images/assets/snowy_original.jpg,learning,20,images/assets/success.jpg,images/assets/gameover.jpg,,,,,,,,,,,,,0,10,10,3,1,,,,,,,,,,,,,,,,,,,,,,,,,,,,,,,,
,,,,,,,,,,,,67f8d8e6750ee10869241ef1,001,3,2025-04-15_09h26.25.855,avatar_quest_3AFC_legacy,2022.1.3,Win32,29.94011976,67f8d8e6750ee10869241ef1,67fe6e666cecbc9329ddf6d6,67fe861a28fcabaf5d186722,,,,,,,,,,,,,,,,,,,,,,,,,,,,,,,,,,,,,,,,,,,,,,,,,,,,,,,6,0,6,0,1,,,,,,,,,,,,,,,,,,
,,,,,,,,,,,,67f8d8e6750ee10869241ef1,001,3,2025-04-15_09h26.25.855,avatar_quest_3AFC_legacy,2022.1.3,Win32,29.94011976,67f8d8e6750ee10869241ef1,67fe6e666cecbc9329ddf6d6,67fe861a28fcabaf5d186722,,,,,,,,,,,,,,,,,,,,,,With Brainslug No Barriers No Money,0,images/assets/snowy_original.jpg,learning,10,images/assets/success.jpg,images/assets/gameover.jpg,,,,,,,,With Brainslug Difficult 2 No Money,With Brainslug Difficult 1 No Money,down,6.9893,"[""With Brainslug Difficult 1 No Money"",""With Brainslug Difficult 2 With Money""]",0,0,0,5,1,,,,,,,,,,,,,,,,,,,,,,,,,,,,,,,,
,,,,,,,,,,,,67f8d8e6750ee10869241ef1,001,3,2025-04-15_09h26.25.855,avatar_quest_3AFC_legacy,2022.1.3,Win32,29.94011976,67f8d8e6750ee10869241ef1,67fe6e666cecbc9329ddf6d6,67fe861a28fcabaf5d186722,"[""left"",""down"",""down"",""down"",""right"",""left"",""right"",""right"",""right"",""right"",""left"",""left""]","[0.7594000000059395,1.2136000000089098,1.5799000000059777,2.0130000000000337,2.4649000000059686,3.5977999999970507,4.656200000002968,5.12020000000291,6.221200000002909,6.685499999999934,6.8132000000030075,7.694600000008904]",,calibration,With Brainslug Difficult 2 No Money,11,8.14555,8.1654,5,5,0,FALSE,na,na,na,na,,,,,,,,,,,,,,,,,,,,,,,,,,,,,,,,,,0,0,0,0,1,,,,,,,,,,,,,,,,,,,,,,,
,,,,,,,,,,,,67f8d8e6750ee10869241ef1,001,3,2025-04-15_09h26.25.855,avatar_quest_3AFC_legacy,2022.1.3,Win32,29.94011976,67f8d8e6750ee10869241ef1,67fe6e666cecbc9329ddf6d6,67fe861a28fcabaf5d186722,,,,,,,,,,,,,,,,,,,,,,With Brainslug Difficult 2 No Money,12,images/assets/snowy_original.jpg,learning,20,images/assets/success.jpg,images/assets/gameover.jpg,,,,,,,,,,,,,0,1,1,3,1,,,,,,,,,,,,,,,,,,,,,,,,,,,,,,,,
,,,,,,,,,,,,67f8d8e6750ee10869241ef1,001,3,2025-04-15_09h26.25.855,avatar_quest_3AFC_legacy,2022.1.3,Win32,29.94011976,67f8d8e6750ee10869241ef1,67fe6e666cecbc9329ddf6d6,67fe861a28fcabaf5d186722,,,,,,,,,,,,,,,,,,,,,,No Brainslug Difficult 2 No Money,12,images/assets/snowy_original.jpg,learning,20,images/assets/success.jpg,images/assets/gameover.jpg,,,,,,,,,,,,,0,2,2,8,1,,,,,,,,,,,,,,,,,,,,,,,,,,,,,,,,
,,,,,,,,,,,,67f8d8e6750ee10869241ef1,001,3,2025-04-15_09h26.25.855,avatar_quest_3AFC_legacy,2022.1.3,Win32,29.94011976,67f8d8e6750ee10869241ef1,67fe6e666cecbc9329ddf6d6,67fe861a28fcabaf5d186722,,,,,,,,,,,,,,,,,,,,,,With Brainslug Difficult 1 With Money,6,images/assets/snowy_money.jpg,learning,20,images/assets/success_money.jpg,images/assets/gameover.jpg,,,,,,,,,,,,,0,3,3,0,1,,,,,,,,,,,,,,,,,,,,,,,,,,,,,,,,
,,,,,,,,,,,,67f8d8e6750ee10869241ef1,001,3,2025-04-15_09h26.25.855,avatar_quest_3AFC_legacy,2022.1.3,Win32,29.94011976,67f8d8e6750ee10869241ef1,67fe6e666cecbc9329ddf6d6,67fe861a28fcabaf5d186722,,,,,,,,,,,,,,,,,,,,,,With Brainslug Difficult 2 With Money,12,images/assets/snowy_money.jpg,learning,20,images/assets/success_money.jpg,images/assets/gameover.jpg,,,,,,,,,,,,,0,4,4,2,1,,,,,,,,,,,,,,,,,,,,,,,,,,,,,,,,
,,,,,,,,,,,,67f8d8e6750ee10869241ef1,001,3,2025-04-15_09h26.25.855,avatar_quest_3AFC_legacy,2022.1.3,Win32,29.94011976,67f8d8e6750ee10869241ef1,67fe6e666cecbc9329ddf6d6,67fe861a28fcabaf5d186722,,,,,,,,,,,,,,,,,,,,,,With Brainslug No Barriers With Money,0,images/assets/snowy_money.jpg,learning,10,images/assets/success_money.jpg,images/assets/gameover.jpg,,,,,,,,,,,,,0,5,5,4,1,,,,,,,,,,,,,,,,,,,,,,,,,,,,,,,,
,,,,,,,,,,,,67f8d8e6750ee10869241ef1,001,3,2025-04-15_09h26.25.855,avatar_quest_3AFC_legacy,2022.1.3,Win32,29.94011976,67f8d8e6750ee10869241ef1,67fe6e666cecbc9329ddf6d6,67fe861a28fcabaf5d186722,,,,,,,,,,,,,,,,,,,,,,With Brainslug Difficult 1 No Money,6,images/assets/snowy_original.jpg,learning,20,images/assets/success.jpg,images/assets/gameover.jpg,,,,,,,,,,,,,0,6,6,1,1,,,,,,,,,,,,,,,,,,,,,,,,,,,,,,,,
,,,,,,,,,,,,67f8d8e6750ee10869241ef1,001,3,2025-04-15_09h26.25.855,avatar_quest_3AFC_legacy,2022.1.3,Win32,29.94011976,67f8d8e6750ee10869241ef1,67fe6e666cecbc9329ddf6d6,67fe861a28fcabaf5d186722,,,,,,,,,,,,,,,,,,,,,,No Brainslug No Barriers No Money,0,images/assets/snowy_original.jpg,learning,10,images/assets/success.jpg,images/assets/gameover.jpg,,,,,,,,,,,,,0,7,7,10,1,,,,,,,,,,,,,,,,,,,,,,,,,,,,,,,,
,,,,,,,,,,,,67f8d8e6750ee10869241ef1,001,3,2025-04-15_09h26.25.855,avatar_quest_3AFC_legacy,2022.1.3,Win32,29.94011976,67f8d8e6750ee10869241ef1,67fe6e666cecbc9329ddf6d6,67fe861a28fcabaf5d186722,,,,,,,,,,,,,,,,,,,,,,No Brainslug No Barriers With Money,0,images/assets/snowy_money.jpg,learning,10,images/assets/success_money.jpg,images/assets/gameover.jpg,,,,,,,,,,,,,0,8,8,9,1,,,,,,,,,,,,,,,,,,,,,,,,,,,,,,,,
,,,,,,,,,,,,67f8d8e6750ee10869241ef1,001,3,2025-04-15_09h26.25.855,avatar_quest_3AFC_legacy,2022.1.3,Win32,29.94011976,67f8d8e6750ee10869241ef1,67fe6e666cecbc9329ddf6d6,67fe861a28fcabaf5d186722,,,,,,,,,,,,,,,,,,,,,,No Brainslug Difficult 1 No Money,6,images/assets/snowy_original.jpg,learning,20,images/assets/success.jpg,images/assets/gameover.jpg,,,,,,,,,,,,,0,9,9,6,1,,,,,,,,,,,,,,,,,,,,,,,,,,,,,,,,
,,,,,,,,,,,,67f8d8e6750ee10869241ef1,001,3,2025-04-15_09h26.25.855,avatar_quest_3AFC_legacy,2022.1.3,Win32,29.94011976,67f8d8e6750ee10869241ef1,67fe6e666cecbc9329ddf6d6,67fe861a28fcabaf5d186722,,,,,,,,,,,,,,,,,,,,,,No Brainslug Difficult 2 With Money,12,images/assets/snowy_money.jpg,learning,20,images/assets/success_money.jpg,images/assets/gameover.jpg,,,,,,,,,,,,,0,10,10,7,1,,,,,,,,,,,,,,,,,,,,,,,,,,,,,,,,
,,,,,,,,,,,,67f8d8e6750ee10869241ef1,001,3,2025-04-15_09h26.25.855,avatar_quest_3AFC_legacy,2022.1.3,Win32,29.94011976,67f8d8e6750ee10869241ef1,67fe6e666cecbc9329ddf6d6,67fe861a28fcabaf5d186722,,,,,,,,,,,,,,,,,,,,,,,,,,,,,,,,,,,,,,,,,,,,,,,,,,,,,,,7,0,7,0,1,,,,,,,,,,,,,,,,,,
,,,,,,,,,,,,67f8d8e6750ee10869241ef1,001,3,2025-04-15_09h26.25.855,avatar_quest_3AFC_legacy,2022.1.3,Win32,29.94011976,67f8d8e6750ee10869241ef1,67fe6e666cecbc9329ddf6d6,67fe861a28fcabaf5d186722,"[""left"",""right"",""right"",""right"",""right"",""left"",""right"",""left"",""right"",""right""]","[0.721600000008948,1.658100000008858,2.017100000008895,3.5842000000029657,4.637200000002963,5.421299999997018,6.15090000000589,6.776200000002973,7.413000000000011,7.884500000000003]",,calibration,With Brainslug Difficult 2 With Money,12,8.14555,8.1664,4,3,0,FALSE,na,na,na,na,,,,,,,,,,,,,,,,,,,,With Brainslug Difficult 2 With Money,With Brainslug Difficult 1 No Money,right,0.9748,"[""With Brainslug Difficult 1 No Money"",""With Brainslug Difficult 2 No Money""]",,,,,,,,,,0,0,0,0,1,,,,,,,,,,,,,,,,,,,,,,,
,,,,,,,,,,,,67f8d8e6750ee10869241ef1,001,3,2025-04-15_09h26.25.855,avatar_quest_3AFC_legacy,2022.1.3,Win32,29.94011976,67f8d8e6750ee10869241ef1,67fe6e666cecbc9329ddf6d6,67fe861a28fcabaf5d186722,,,,,,,,,,,,,,,,,,,,,,With Brainslug Difficult 2 With Money,12,images/assets/snowy_money.jpg,learning,20,images/assets/success_money.jpg,images/assets/gameover.jpg,,,,,,,,,,,,,0,0,0,2,1,,,,,,,,,,,,,,,,,,,,,,,,,,,,,,,,
,,,,,,,,,,,,67f8d8e6750ee10869241ef1,001,3,2025-04-15_09h26.25.855,avatar_quest_3AFC_legacy,2022.1.3,Win32,29.94011976,67f8d8e6750ee10869241ef1,67fe6e666cecbc9329ddf6d6,67fe861a28fcabaf5d186722,,,,,,,,,,,,,,,,,,,,,,With Brainslug No Barriers With Money,0,images/assets/snowy_money.jpg,learning,10,images/assets/success_money.jpg,images/assets/gameover.jpg,,,,,,,,,,,,,0,1,1,4,1,,,,,,,,,,,,,,,,,,,,,,,,,,,,,,,,
,,,,,,,,,,,,67f8d8e6750ee10869241ef1,001,3,2025-04-15_09h26.25.855,avatar_quest_3AFC_legacy,2022.1.3,Win32,29.94011976,67f8d8e6750ee10869241ef1,67fe6e666cecbc9329ddf6d6,67fe861a28fcabaf5d186722,,,,,,,,,,,,,,,,,,,,,,With Brainslug Difficult 1 No Money,6,images/assets/snowy_original.jpg,learning,20,images/assets/success.jpg,images/assets/gameover.jpg,,,,,,,,,,,,,0,2,2,1,1,,,,,,,,,,,,,,,,,,,,,,,,,,,,,,,,
,,,,,,,,,,,,67f8d8e6750ee10869241ef1,001,3,2025-04-15_09h26.25.855,avatar_quest_3AFC_legacy,2022.1.3,Win32,29.94011976,67f8d8e6750ee10869241ef1,67fe6e666cecbc9329ddf6d6,67fe861a28fcabaf5d186722,,,,,,,,,,,,,,,,,,,,,,No Brainslug Difficult 1 No Money,6,images/assets/snowy_original.jpg,learning,20,images/assets/success.jpg,images/assets/gameover.jpg,,,,,,,,,,,,,0,3,3,6,1,,,,,,,,,,,,,,,,,,,,,,,,,,,,,,,,
,,,,,,,,,,,,67f8d8e6750ee10869241ef1,001,3,2025-04-15_09h26.25.855,avatar_quest_3AFC_legacy,2022.1.3,Win32,29.94011976,67f8d8e6750ee10869241ef1,67fe6e666cecbc9329ddf6d6,67fe861a28fcabaf5d186722,,,,,,,,,,,,,,,,,,,,,,With Brainslug Difficult 1 With Money,6,images/assets/snowy_money.jpg,learning,20,images/assets/success_money.jpg,images/assets/gameover.jpg,,,,,,,,,,,,,0,4,4,0,1,,,,,,,,,,,,,,,,,,,,,,,,,,,,,,,,
,,,,,,,,,,,,67f8d8e6750ee10869241ef1,001,3,2025-04-15_09h26.25.855,avatar_quest_3AFC_legacy,2022.1.3,Win32,29.94011976,67f8d8e6750ee10869241ef1,67fe6e666cecbc9329ddf6d6,67fe861a28fcabaf5d186722,,,,,,,,,,,,,,,,,,,,,,With Brainslug No Barriers No Money,0,images/assets/snowy_original.jpg,learning,10,images/assets/success.jpg,images/assets/gameover.jpg,,,,,,,,,,,,,0,5,5,5,1,,,,,,,,,,,,,,,,,,,,,,,,,,,,,,,,
,,,,,,,,,,,,67f8d8e6750ee10869241ef1,001,3,2025-04-15_09h26.25.855,avatar_quest_3AFC_legacy,2022.1.3,Win32,29.94011976,67f8d8e6750ee10869241ef1,67fe6e666cecbc9329ddf6d6,67fe861a28fcabaf5d186722,,,,,,,,,,,,,,,,,,,,,,No Brainslug No Barriers With Money,0,images/assets/snowy_money.jpg,learning,10,images/assets/success_money.jpg,images/assets/gameover.jpg,,,,,,,,,,,,,0,6,6,9,1,,,,,,,,,,,,,,,,,,,,,,,,,,,,,,,,
,,,,,,,,,,,,67f8d8e6750ee10869241ef1,001,3,2025-04-15_09h26.25.855,avatar_quest_3AFC_legacy,2022.1.3,Win32,29.94011976,67f8d8e6750ee10869241ef1,67fe6e666cecbc9329ddf6d6,67fe861a28fcabaf5d186722,,,,,,,,,,,,,,,,,,,,,,With Brainslug Difficult 2 No Money,12,images/assets/snowy_original.jpg,learning,20,images/assets/success.jpg,images/assets/gameover.jpg,,,,,,,,,,,,,0,7,7,3,1,,,,,,,,,,,,,,,,,,,,,,,,,,,,,,,,
,,,,,,,,,,,,67f8d8e6750ee10869241ef1,001,3,2025-04-15_09h26.25.855,avatar_quest_3AFC_legacy,2022.1.3,Win32,29.94011976,67f8d8e6750ee10869241ef1,67fe6e666cecbc9329ddf6d6,67fe861a28fcabaf5d186722,,,,,,,,,,,,,,,,,,,,,,No Brainslug No Barriers No Money,0,images/assets/snowy_original.jpg,learning,10,images/assets/success.jpg,images/assets/gameover.jpg,,,,,,,,,,,,,0,8,8,10,1,,,,,,,,,,,,,,,,,,,,,,,,,,,,,,,,
,,,,,,,,,,,,67f8d8e6750ee10869241ef1,001,3,2025-04-15_09h26.25.855,avatar_quest_3AFC_legacy,2022.1.3,Win32,29.94011976,67f8d8e6750ee10869241ef1,67fe6e666cecbc9329ddf6d6,67fe861a28fcabaf5d186722,,,,,,,,,,,,,,,,,,,,,,No Brainslug Difficult 2 No Money,12,images/assets/snowy_original.jpg,learning,20,images/assets/success.jpg,images/assets/gameover.jpg,,,,,,,,,,,,,0,9,9,8,1,,,,,,,,,,,,,,,,,,,,,,,,,,,,,,,,
,,,,,,,,,,,,67f8d8e6750ee10869241ef1,001,3,2025-04-15_09h26.25.855,avatar_quest_3AFC_legacy,2022.1.3,Win32,29.94011976,67f8d8e6750ee10869241ef1,67fe6e666cecbc9329ddf6d6,67fe861a28fcabaf5d186722,,,,,,,,,,,,,,,,,,,,,,No Brainslug Difficult 2 With Money,12,images/assets/snowy_money.jpg,learning,20,images/assets/success_money.jpg,images/assets/gameover.jpg,,,,,,,,,,,,,0,10,10,7,1,,,,,,,,,,,,,,,,,,,,,,,,,,,,,,,,
,,,,,,,,,,,,67f8d8e6750ee10869241ef1,001,3,2025-04-15_09h26.25.855,avatar_quest_3AFC_legacy,2022.1.3,Win32,29.94011976,67f8d8e6750ee10869241ef1,67fe6e666cecbc9329ddf6d6,67fe861a28fcabaf5d186722,,,,,,,,,,,,,,,,,,,,,,,,,,,,,,,,,,,,,,,,,,,,,,,,,,,,,,,8,0,8,0,1,,,,,,,,,,,,,,,,,,
,,,,,,,,,,,,67f8d8e6750ee10869241ef1,001,3,2025-04-15_09h26.25.855,avatar_quest_3AFC_legacy,2022.1.3,Win32,29.94011976,67f8d8e6750ee10869241ef1,67fe6e666cecbc9329ddf6d6,67fe861a28fcabaf5d186722,,,,,,,,,,,,,,,,,,,,,,With Brainslug Difficult 2 No Money,12,images/assets/snowy_original.jpg,learning,20,images/assets/success.jpg,images/assets/gameover.jpg,,,,,,,,With Brainslug Difficult 2 With Money,With Brainslug Difficult 1 No Money,right,0.6641,"[""With Brainslug Difficult 1 No Money"",""With Brainslug Difficult 2 No Money""]",0,0,0,3,1,,,,,,,,,,,,,,,,,,,,,,,,,,,,,,,,
,,,,,,,,,,,,67f8d8e6750ee10869241ef1,001,3,2025-04-15_09h26.25.855,avatar_quest_3AFC_legacy,2022.1.3,Win32,29.94011976,67f8d8e6750ee10869241ef1,67fe6e666cecbc9329ddf6d6,67fe861a28fcabaf5d186722,,,,,,,,,,,,,,,,,,,,,,With Brainslug No Barriers With Money,0,images/assets/snowy_money.jpg,learning,10,images/assets/success_money.jpg,images/assets/gameover.jpg,,,,,,,,,,,,,0,1,1,4,1,,,,,,,,,,,,,,,,,,,,,,,,,,,,,,,,
,,,,,,,,,,,,67f8d8e6750ee10869241ef1,001,3,2025-04-15_09h26.25.855,avatar_quest_3AFC_legacy,2022.1.3,Win32,29.94011976,67f8d8e6750ee10869241ef1,67fe6e666cecbc9329ddf6d6,67fe861a28fcabaf5d186722,,,,,,,,,,,,,,,,,,,,,,No Brainslug Difficult 1 No Money,6,images/assets/snowy_original.jpg,learning,20,images/assets/success.jpg,images/assets/gameover.jpg,,,,,,,,,,,,,0,2,2,6,1,,,,,,,,,,,,,,,,,,,,,,,,,,,,,,,,
,,,,,,,,,,,,67f8d8e6750ee10869241ef1,001,3,2025-04-15_09h26.25.855,avatar_quest_3AFC_legacy,2022.1.3,Win32,29.94011976,67f8d8e6750ee10869241ef1,67fe6e666cecbc9329ddf6d6,67fe861a28fcabaf5d186722,"[""left"",""left"",""left"",""right"",""up"",""up"",""up"",""up"",""left"",""up"",""left"",""left"",""left"",""left"",""left"",""left"",""left""]","[0.7690000000000055,1.20150000000001,2.8546999999880427,3.6348999999910347,4.622500000000059,4.842999999999961,4.989399999991065,5.1636999999881255,5.301899999991065,5.454699999988065,5.721299999997086,6.155399999991118,6.554799999997044,6.888000000000034,7.307199999988143,7.754299999996988,7.954799999997022]",,calibration,With Brainslug Difficult 2 With Money,13,8.14555,8.1654,6,5,0,FALSE,na,na,na,na,,,,,,,,,,,,,,,,,,,,,,,,,,,,,,,,,,0,0,0,0,1,,,,,,,,,,,,,,,,,,,,,,,
,,,,,,,,,,,,67f8d8e6750ee10869241ef1,001,3,2025-04-15_09h26.25.855,avatar_quest_3AFC_legacy,2022.1.3,Win32,29.94011976,67f8d8e6750ee10869241ef1,67fe6e666cecbc9329ddf6d6,67fe861a28fcabaf5d186722,,,,,,,,,,,,,,,,,,,,,,With Brainslug Difficult 2 With Money,12,images/assets/snowy_money.jpg,learning,20,images/assets/success_money.jpg,images/assets/gameover.jpg,,,,,,,,,,,,,0,3,3,2,1,,,,,,,,,,,,,,,,,,,,,,,,,,,,,,,,
,,,,,,,,,,,,67f8d8e6750ee10869241ef1,001,3,2025-04-15_09h26.25.855,avatar_quest_3AFC_legacy,2022.1.3,Win32,29.94011976,67f8d8e6750ee10869241ef1,67fe6e666cecbc9329ddf6d6,67fe861a28fcabaf5d186722,,,,,,,,,,,,,,,,,,,,,,With Brainslug Difficult 1 No Money,6,images/assets/snowy_original.jpg,learning,20,images/assets/success.jpg,images/assets/gameover.jpg,,,,,,,,,,,,,0,4,4,1,1,,,,,,,,,,,,,,,,,,,,,,,,,,,,,,,,
,,,,,,,,,,,,67f8d8e6750ee10869241ef1,001,3,2025-04-15_09h26.25.855,avatar_quest_3AFC_legacy,2022.1.3,Win32,29.94011976,67f8d8e6750ee10869241ef1,67fe6e666cecbc9329ddf6d6,67fe861a28fcabaf5d186722,,,,,,,,,,,,,,,,,,,,,,No Brainslug Difficult 2 With Money,12,images/assets/snowy_money.jpg,learning,20,images/assets/success_money.jpg,images/assets/gameover.jpg,,,,,,,,,,,,,0,5,5,7,1,,,,,,,,,,,,,,,,,,,,,,,,,,,,,,,,
,,,,,,,,,,,,67f8d8e6750ee10869241ef1,001,3,2025-04-15_09h26.25.855,avatar_quest_3AFC_legacy,2022.1.3,Win32,29.94011976,67f8d8e6750ee10869241ef1,67fe6e666cecbc9329ddf6d6,67fe861a28fcabaf5d186722,,,,,,,,,,,,,,,,,,,,,,No Brainslug No Barriers With Money,0,images/assets/snowy_money.jpg,learning,10,images/assets/success_money.jpg,images/assets/gameover.jpg,,,,,,,,,,,,,0,6,6,9,1,,,,,,,,,,,,,,,,,,,,,,,,,,,,,,,,
,,,,,,,,,,,,67f8d8e6750ee10869241ef1,001,3,2025-04-15_09h26.25.855,avatar_quest_3AFC_legacy,2022.1.3,Win32,29.94011976,67f8d8e6750ee10869241ef1,67fe6e666cecbc9329ddf6d6,67fe861a28fcabaf5d186722,,,,,,,,,,,,,,,,,,,,,,No Brainslug Difficult 2 No Money,12,images/assets/snowy_original.jpg,learning,20,images/assets/success.jpg,images/assets/gameover.jpg,,,,,,,,,,,,,0,7,7,8,1,,,,,,,,,,,,,,,,,,,,,,,,,,,,,,,,
,,,,,,,,,,,,67f8d8e6750ee10869241ef1,001,3,2025-04-15_09h26.25.855,avatar_quest_3AFC_legacy,2022.1.3,Win32,29.94011976,67f8d8e6750ee10869241ef1,67fe6e666cecbc9329ddf6d6,67fe861a28fcabaf5d186722,,,,,,,,,,,,,,,,,,,,,,No Brainslug No Barriers No Money,0,images/assets/snowy_original.jpg,learning,10,images/assets/success.jpg,images/assets/gameover.jpg,,,,,,,,,,,,,0,8,8,10,1,,,,,,,,,,,,,,,,,,,,,,,,,,,,,,,,
,,,,,,,,,,,,67f8d8e6750ee10869241ef1,001,3,2025-04-15_09h26.25.855,avatar_quest_3AFC_legacy,2022.1.3,Win32,29.94011976,67f8d8e6750ee10869241ef1,67fe6e666cecbc9329ddf6d6,67fe861a28fcabaf5d186722,,,,,,,,,,,,,,,,,,,,,,With Brainslug No Barriers No Money,0,images/assets/snowy_original.jpg,learning,10,images/assets/success.jpg,images/assets/gameover.jpg,,,,,,,,,,,,,0,9,9,5,1,,,,,,,,,,,,,,,,,,,,,,,,,,,,,,,,
,,,,,,,,,,,,67f8d8e6750ee10869241ef1,001,3,2025-04-15_09h26.25.855,avatar_quest_3AFC_legacy,2022.1.3,Win32,29.94011976,67f8d8e6750ee10869241ef1,67fe6e666cecbc9329ddf6d6,67fe861a28fcabaf5d186722,,,,,,,,,,,,,,,,,,,,,,With Brainslug Difficult 1 With Money,6,images/assets/snowy_money.jpg,learning,20,images/assets/success_money.jpg,images/assets/gameover.jpg,,,,,,,,,,,,,0,10,10,0,1,,,,,,,,,,,,,,,,,,,,,,,,,,,,,,,,
,,,,,,,,,,,,67f8d8e6750ee10869241ef1,001,3,2025-04-15_09h26.25.855,avatar_quest_3AFC_legacy,2022.1.3,Win32,29.94011976,67f8d8e6750ee10869241ef1,67fe6e666cecbc9329ddf6d6,67fe861a28fcabaf5d186722,,,,,,,,,,,,,,,,,,,,,,,,,,,,,,,,,,,,,,,,,,,,,,,,,,,,,,,9,0,9,0,1,,,,,,,,,,,,,,,,,,
,,,,,,,,,,,,67f8d8e6750ee10869241ef1,001,3,2025-04-15_09h26.25.855,avatar_quest_3AFC_legacy,2022.1.3,Win32,29.94011976,67f8d8e6750ee10869241ef1,67fe6e666cecbc9329ddf6d6,67fe861a28fcabaf5d186722,,,,,,,,,,,,,,,,,,,,,,No Brainslug No Barriers No Money,0,images/assets/snowy_original.jpg,learning,10,images/assets/success.jpg,images/assets/gameover.jpg,,,,,,,,With Brainslug Difficult 1 No Money,With Brainslug Difficult 1 No Money,left,6.8294,"[""With Brainslug Difficult 2 No Money"",""With Brainslug Difficult 2 With Money""]",0,0,0,10,1,,,,,,,,,,,,,,,,,,,,,,,,,,,,,,,,
,,,,,,,,,,,,67f8d8e6750ee10869241ef1,001,3,2025-04-15_09h26.25.855,avatar_quest_3AFC_legacy,2022.1.3,Win32,29.94011976,67f8d8e6750ee10869241ef1,67fe6e666cecbc9329ddf6d6,67fe861a28fcabaf5d186722,,,,,,,,,,,,,,,,,,,,,,No Brainslug Difficult 2 With Money,12,images/assets/snowy_money.jpg,learning,20,images/assets/success_money.jpg,images/assets/gameover.jpg,,,,,,,,,,,,,0,1,1,7,1,,,,,,,,,,,,,,,,,,,,,,,,,,,,,,,,
,,,,,,,,,,,,67f8d8e6750ee10869241ef1,001,3,2025-04-15_09h26.25.855,avatar_quest_3AFC_legacy,2022.1.3,Win32,29.94011976,67f8d8e6750ee10869241ef1,67fe6e666cecbc9329ddf6d6,67fe861a28fcabaf5d186722,,,,,,,,,,,,,,,,,,,,,,With Brainslug Difficult 2 With Money,12,images/assets/snowy_money.jpg,learning,20,images/assets/success_money.jpg,images/assets/gameover.jpg,,,,,,,,,,,,,0,2,2,2,1,,,,,,,,,,,,,,,,,,,,,,,,,,,,,,,,
,,,,,,,,,,,,67f8d8e6750ee10869241ef1,001,3,2025-04-15_09h26.25.855,avatar_quest_3AFC_legacy,2022.1.3,Win32,29.94011976,67f8d8e6750ee10869241ef1,67fe6e666cecbc9329ddf6d6,67fe861a28fcabaf5d186722,,,,,,,,,,,,,,,,,,,,,,With Brainslug Difficult 2 No Money,12,images/assets/snowy_original.jpg,learning,20,images/assets/success.jpg,images/assets/gameover.jpg,,,,,,,,,,,,,0,3,3,3,1,,,,,,,,,,,,,,,,,,,,,,,,,,,,,,,,
,,,,,,,,,,,,67f8d8e6750ee10869241ef1,001,3,2025-04-15_09h26.25.855,avatar_quest_3AFC_legacy,2022.1.3,Win32,29.94011976,67f8d8e6750ee10869241ef1,67fe6e666cecbc9329ddf6d6,67fe861a28fcabaf5d186722,,,,,,,,,,,,,,,,,,,,,,No Brainslug Difficult 1 No Money,6,images/assets/snowy_original.jpg,learning,20,images/assets/success.jpg,images/assets/gameover.jpg,,,,,,,,,,,,,0,4,4,6,1,,,,,,,,,,,,,,,,,,,,,,,,,,,,,,,,
,,,,,,,,,,,,67f8d8e6750ee10869241ef1,001,3,2025-04-15_09h26.25.855,avatar_quest_3AFC_legacy,2022.1.3,Win32,29.94011976,67f8d8e6750ee10869241ef1,67fe6e666cecbc9329ddf6d6,67fe861a28fcabaf5d186722,"[""left"",""left"",""right"",""right"",""right"",""left"",""left"",""left"",""right"",""right"",""right"",""right"",""left"",""left"",""right"",""right"",""right"",""left"",""right""]","[0.6093999999910693,0.8693999999910602,1.1684999999999945,1.5061999999880982,1.702699999987999,1.7732999999969934,2.170399999990991,2.5033999999910748,2.519099999993955,3.035299999996937,3.304099999994037,3.755999999999972,4.185899999991079,4.703599999994026,5.139199999988023,5.602899999990996,5.955599999993979,6.864500000000021,7.954799999997022]",,calibration,With Brainslug Difficult 1 No Money,14,8.14555,8.149,10,3,0,FALSE,na,na,na,na,,,,,,,,,,,,,,,,,,,,,,,,,,,,,,,,,,0,0,0,0,1,,,,,,,,,,,,,,,,,,,,,,,
,,,,,,,,,,,,67f8d8e6750ee10869241ef1,001,3,2025-04-15_09h26.25.855,avatar_quest_3AFC_legacy,2022.1.3,Win32,29.94011976,67f8d8e6750ee10869241ef1,67fe6e666cecbc9329ddf6d6,67fe861a28fcabaf5d186722,,,,,,,,,,,,,,,,,,,,,,With Brainslug Difficult 1 No Money,6,images/assets/snowy_original.jpg,learning,20,images/assets/success.jpg,images/assets/gameover.jpg,,,,,,,,,,,,,0,5,5,1,1,,,,,,,,,,,,,,,,,,,,,,,,,,,,,,,,
,,,,,,,,,,,,67f8d8e6750ee10869241ef1,001,3,2025-04-15_09h26.25.855,avatar_quest_3AFC_legacy,2022.1.3,Win32,29.94011976,67f8d8e6750ee10869241ef1,67fe6e666cecbc9329ddf6d6,67fe861a28fcabaf5d186722,,,,,,,,,,,,,,,,,,,,,,With Brainslug No Barriers With Money,0,images/assets/snowy_money.jpg,learning,10,images/assets/success_money.jpg,images/assets/gameover.jpg,,,,,,,,,,,,,0,6,6,4,1,,,,,,,,,,,,,,,,,,,,,,,,,,,,,,,,
,,,,,,,,,,,,67f8d8e6750ee10869241ef1,001,3,2025-04-15_09h26.25.855,avatar_quest_3AFC_legacy,2022.1.3,Win32,29.94011976,67f8d8e6750ee10869241ef1,67fe6e666cecbc9329ddf6d6,67fe861a28fcabaf5d186722,,,,,,,,,,,,,,,,,,,,,,With Brainslug Difficult 1 With Money,6,images/assets/snowy_money.jpg,learning,20,images/assets/success_money.jpg,images/assets/gameover.jpg,,,,,,,,,,,,,0,7,7,0,1,,,,,,,,,,,,,,,,,,,,,,,,,,,,,,,,
,,,,,,,,,,,,67f8d8e6750ee10869241ef1,001,3,2025-04-15_09h26.25.855,avatar_quest_3AFC_legacy,2022.1.3,Win32,29.94011976,67f8d8e6750ee10869241ef1,67fe6e666cecbc9329ddf6d6,67fe861a28fcabaf5d186722,,,,,,,,,,,,,,,,,,,,,,With Brainslug No Barriers No Money,0,images/assets/snowy_original.jpg,learning,10,images/assets/success.jpg,images/assets/gameover.jpg,,,,,,,,,,,,,0,8,8,5,1,,,,,,,,,,,,,,,,,,,,,,,,,,,,,,,,
,,,,,,,,,,,,67f8d8e6750ee10869241ef1,001,3,2025-04-15_09h26.25.855,avatar_quest_3AFC_legacy,2022.1.3,Win32,29.94011976,67f8d8e6750ee10869241ef1,67fe6e666cecbc9329ddf6d6,67fe861a28fcabaf5d186722,,,,,,,,,,,,,,,,,,,,,,No Brainslug No Barriers With Money,0,images/assets/snowy_money.jpg,learning,10,images/assets/success_money.jpg,images/assets/gameover.jpg,,,,,,,,,,,,,0,9,9,9,1,,,,,,,,,,,,,,,,,,,,,,,,,,,,,,,,
,,,,,,,,,,,,67f8d8e6750ee10869241ef1,001,3,2025-04-15_09h26.25.855,avatar_quest_3AFC_legacy,2022.1.3,Win32,29.94011976,67f8d8e6750ee10869241ef1,67fe6e666cecbc9329ddf6d6,67fe861a28fcabaf5d186722,,,,,,,,,,,,,,,,,,,,,,No Brainslug Difficult 2 No Money,12,images/assets/snowy_original.jpg,learning,20,images/assets/success.jpg,images/assets/gameover.jpg,,,,,,,,,,,,,0,10,10,8,1,,,,,,,,,,,,,,,,,,,,,,,,,,,,,,,,
,,,,,,,,,,,,67f8d8e6750ee10869241ef1,001,3,2025-04-15_09h26.25.855,avatar_quest_3AFC_legacy,2022.1.3,Win32,29.94011976,67f8d8e6750ee10869241ef1,67fe6e666cecbc9329ddf6d6,67fe861a28fcabaf5d186722,,,,,,,,,,,,,,,,,,,,,,,,,,,,,,,,,,,,,,,,,,,,,,,,,,,,,,,10,0,10,0,1,,,,,,,,,,,,,,,,,,
,,,,,,,,,,,,67f8d8e6750ee10869241ef1,001,3,2025-04-15_09h26.25.855,avatar_quest_3AFC_legacy,2022.1.3,Win32,29.94011976,67f8d8e6750ee10869241ef1,67fe6e666cecbc9329ddf6d6,67fe861a28fcabaf5d186722,,,,,,,,,,,,,,,,,,,,,,No Brainslug No Barriers With Money,0,images/assets/snowy_money.jpg,learning,10,images/assets/success_money.jpg,images/assets/gameover.jpg,,,,,,,,With Brainslug Difficult 2 With Money,With Brainslug Difficult 1 No Money,right,0.1776,"[""With Brainslug Difficult 1 No Money"",""With Brainslug Difficult 2 No Money""]",0,0,0,9,1,,,,,,,,,,,,,,,,,,,,,,,,,,,,,,,,
,,,,,,,,,,,,67f8d8e6750ee10869241ef1,001,3,2025-04-15_09h26.25.855,avatar_quest_3AFC_legacy,2022.1.3,Win32,29.94011976,67f8d8e6750ee10869241ef1,67fe6e666cecbc9329ddf6d6,67fe861a28fcabaf5d186722,,,,,,,,,,,,,,,,,,,,,,No Brainslug Difficult 1 No Money,6,images/assets/snowy_original.jpg,learning,20,images/assets/success.jpg,images/assets/gameover.jpg,,,,,,,,,,,,,0,1,1,6,1,,,,,,,,,,,,,,,,,,,,,,,,,,,,,,,,
,,,,,,,,,,,,67f8d8e6750ee10869241ef1,001,3,2025-04-15_09h26.25.855,avatar_quest_3AFC_legacy,2022.1.3,Win32,29.94011976,67f8d8e6750ee10869241ef1,67fe6e666cecbc9329ddf6d6,67fe861a28fcabaf5d186722,,,,,,,,,,,,,,,,,,,,,,With Brainslug Difficult 1 With Money,6,images/assets/snowy_money.jpg,learning,20,images/assets/success_money.jpg,images/assets/gameover.jpg,,,,,,,,,,,,,0,2,2,0,1,,,,,,,,,,,,,,,,,,,,,,,,,,,,,,,,
,,,,,,,,,,,,67f8d8e6750ee10869241ef1,001,3,2025-04-15_09h26.25.855,avatar_quest_3AFC_legacy,2022.1.3,Win32,29.94011976,67f8d8e6750ee10869241ef1,67fe6e666cecbc9329ddf6d6,67fe861a28fcabaf5d186722,"[""right"",""left"",""right"",""right"",""right"",""left"",""left"",""right"",""right"",""left"",""left"",""right"",""left""]","[0.06329999999695701,0.7929999999998927,1.7760999999940168,2.2104000000058477,2.5944000000058622,3.3787999999969998,4.527400000005855,4.993099999994001,5.742700000002969,6.509299999996983,6.893299999996998,7.562299999996981,8.02590000000589]",,calibration,With Brainslug Difficult 2 With Money,15,8.14555,8.1495,9,5,0,FALSE,na,na,na,na,,,,,,,,,,,,,,,,,,,,,,,,,,,,,,,,,,0,0,0,0,1,,,,,,,,,,,,,,,,,,,,,,,
,,,,,,,,,,,,67f8d8e6750ee10869241ef1,001,3,2025-04-15_09h26.25.855,avatar_quest_3AFC_legacy,2022.1.3,Win32,29.94011976,67f8d8e6750ee10869241ef1,67fe6e666cecbc9329ddf6d6,67fe861a28fcabaf5d186722,,,,,,,,,,,,,,,,,,,,,,With Brainslug Difficult 2 With Money,12,images/assets/snowy_money.jpg,learning,20,images/assets/success_money.jpg,images/assets/gameover.jpg,,,,,,,,,,,,,0,3,3,2,1,,,,,,,,,,,,,,,,,,,,,,,,,,,,,,,,
,,,,,,,,,,,,67f8d8e6750ee10869241ef1,001,3,2025-04-15_09h26.25.855,avatar_quest_3AFC_legacy,2022.1.3,Win32,29.94011976,67f8d8e6750ee10869241ef1,67fe6e666cecbc9329ddf6d6,67fe861a28fcabaf5d186722,,,,,,,,,,,,,,,,,,,,,,No Brainslug Difficult 2 With Money,12,images/assets/snowy_money.jpg,learning,20,images/assets/success_money.jpg,images/assets/gameover.jpg,,,,,,,,,,,,,0,4,4,7,1,,,,,,,,,,,,,,,,,,,,,,,,,,,,,,,,
,,,,,,,,,,,,67f8d8e6750ee10869241ef1,001,3,2025-04-15_09h26.25.855,avatar_quest_3AFC_legacy,2022.1.3,Win32,29.94011976,67f8d8e6750ee10869241ef1,67fe6e666cecbc9329ddf6d6,67fe861a28fcabaf5d186722,,,,,,,,,,,,,,,,,,,,,,With Brainslug No Barriers No Money,0,images/assets/snowy_original.jpg,learning,10,images/assets/success.jpg,images/assets/gameover.jpg,,,,,,,,,,,,,0,5,5,5,1,,,,,,,,,,,,,,,,,,,,,,,,,,,,,,,,
,,,,,,,,,,,,67f8d8e6750ee10869241ef1,001,3,2025-04-15_09h26.25.855,avatar_quest_3AFC_legacy,2022.1.3,Win32,29.94011976,67f8d8e6750ee10869241ef1,67fe6e666cecbc9329ddf6d6,67fe861a28fcabaf5d186722,,,,,,,,,,,,,,,,,,,,,,With Brainslug No Barriers With Money,0,images/assets/snowy_money.jpg,learning,10,images/assets/success_money.jpg,images/assets/gameover.jpg,,,,,,,,,,,,,0,6,6,4,1,,,,,,,,,,,,,,,,,,,,,,,,,,,,,,,,
,,,,,,,,,,,,67f8d8e6750ee10869241ef1,001,3,2025-04-15_09h26.25.855,avatar_quest_3AFC_legacy,2022.1.3,Win32,29.94011976,67f8d8e6750ee10869241ef1,67fe6e666cecbc9329ddf6d6,67fe861a28fcabaf5d186722,,,,,,,,,,,,,,,,,,,,,,With Brainslug Difficult 1 No Money,6,images/assets/snowy_original.jpg,learning,20,images/assets/success.jpg,images/assets/gameover.jpg,,,,,,,,,,,,,0,7,7,1,1,,,,,,,,,,,,,,,,,,,,,,,,,,,,,,,,
,,,,,,,,,,,,67f8d8e6750ee10869241ef1,001,3,2025-04-15_09h26.25.855,avatar_quest_3AFC_legacy,2022.1.3,Win32,29.94011976,67f8d8e6750ee10869241ef1,67fe6e666cecbc9329ddf6d6,67fe861a28fcabaf5d186722,,,,,,,,,,,,,,,,,,,,,,No Brainslug Difficult 2 No Money,12,images/assets/snowy_original.jpg,learning,20,images/assets/success.jpg,images/assets/gameover.jpg,,,,,,,,,,,,,0,8,8,8,1,,,,,,,,,,,,,,,,,,,,,,,,,,,,,,,,
,,,,,,,,,,,,67f8d8e6750ee10869241ef1,001,3,2025-04-15_09h26.25.855,avatar_quest_3AFC_legacy,2022.1.3,Win32,29.94011976,67f8d8e6750ee10869241ef1,67fe6e666cecbc9329ddf6d6,67fe861a28fcabaf5d186722,,,,,,,,,,,,,,,,,,,,,,No Brainslug No Barriers No Money,0,images/assets/snowy_original.jpg,learning,10,images/assets/success.jpg,images/assets/gameover.jpg,,,,,,,,,,,,,0,9,9,10,1,,,,,,,,,,,,,,,,,,,,,,,,,,,,,,,,
,,,,,,,,,,,,67f8d8e6750ee10869241ef1,001,3,2025-04-15_09h26.25.855,avatar_quest_3AFC_legacy,2022.1.3,Win32,29.94011976,67f8d8e6750ee10869241ef1,67fe6e666cecbc9329ddf6d6,67fe861a28fcabaf5d186722,,,,,,,,,,,,,,,,,,,,,,With Brainslug Difficult 2 No Money,12,images/assets/snowy_original.jpg,learning,20,images/assets/success.jpg,images/assets/gameover.jpg,,,,,,,,,,,,,0,10,10,3,1,,,,,,,,,,,,,,,,,,,,,,,,,,,,,,,,
,,,,,,,,,,,,67f8d8e6750ee10869241ef1,001,3,2025-04-15_09h26.25.855,avatar_quest_3AFC_legacy,2022.1.3,Win32,29.94011976,67f8d8e6750ee10869241ef1,67fe6e666cecbc9329ddf6d6,67fe861a28fcabaf5d186722,,,,,,,,,,,,,,,,,,,,,,,,,,,,,,,,,,,,,,,,,,,,,,,,,,,,,,,11,0,11,0,1,,,,,,,,,,,,,,,,,,
,,,,,,,,,,,,67f8d8e6750ee10869241ef1,001,3,2025-04-15_09h26.25.855,avatar_quest_3AFC_legacy,2022.1.3,Win32,29.94011976,67f8d8e6750ee10869241ef1,67fe6e666cecbc9329ddf6d6,67fe861a28fcabaf5d186722,,,,,,,,,,,,,,,,,,,,,,,,,,,,,,,,,,,,,,,,,,,,,,,,,,,,,,,,,,,,0,0,0,0,1,1,With Brainslug Difficult 1 No Money,images/assets/With Brainslug Difficult 1 No Money.png,With Brainslug Difficult 2 No Money,images/assets/With Brainslug Difficult 2 No Money.png,With Brainslug Difficult 2 With Money,images/assets/With Brainslug Difficult 2 With Money.png,Achievement vs. money,,,,,
,,,,,,,,,,,,67f8d8e6750ee10869241ef1,001,3,2025-04-15_09h26.25.855,avatar_quest_3AFC_legacy,2022.1.3,Win32,29.94011976,67f8d8e6750ee10869241ef1,67fe6e666cecbc9329ddf6d6,67fe861a28fcabaf5d186722,"[""left"",""left"",""right"",""left"",""right"",""right"",""right"",""left"",""left""]","[0.5748999999909756,1.2654999999999745,1.7977999999969825,2.2995999999940295,2.765299999996955,3.741599999994037,4.217299999996953,4.756299999996941,6.145299999996951]",,calibration,No Brainslug No Barriers With Money,16,6.51644,6.5331,9,0,72,FALSE,na,na,na,na,,,,,,,,,,,,,,,,,,,,No Brainslug No Barriers With Money,No Brainslug No Barriers No Money,right,0.6449,"[""No Brainslug No Barriers No Money"",""No Brainslug Difficult 1 No Money""]",,,,,,,,,,0,0,0,0,1,,,,,,,,,,,,,,,,,,,,,,,
,,,,,,,,,,,,67f8d8e6750ee10869241ef1,001,3,2025-04-15_09h26.25.855,avatar_quest_3AFC_legacy,2022.1.3,Win32,29.94011976,67f8d8e6750ee10869241ef1,67fe6e666cecbc9329ddf6d6,67fe861a28fcabaf5d186722,,,,,,,,,,,,,,,,,,,,,,No Brainslug No Barriers With Money,0,images/assets/snowy_money.jpg,learning,10,images/assets/success_money.jpg,images/assets/gameover.jpg,,,,,,,,,,,,,0,0,0,9,1,,,,,,,,,,,,,,,,,,,,,,,,,,,,,,,,
,,,,,,,,,,,,67f8d8e6750ee10869241ef1,001,3,2025-04-15_09h26.25.855,avatar_quest_3AFC_legacy,2022.1.3,Win32,29.94011976,67f8d8e6750ee10869241ef1,67fe6e666cecbc9329ddf6d6,67fe861a28fcabaf5d186722,,,,,,,,,,,,,,,,,,,,,,No Brainslug No Barriers No Money,0,images/assets/snowy_original.jpg,learning,10,images/assets/success.jpg,images/assets/gameover.jpg,,,,,,,,,,,,,0,1,1,10,1,,,,,,,,,,,,,,,,,,,,,,,,,,,,,,,,
,,,,,,,,,,,,67f8d8e6750ee10869241ef1,001,3,2025-04-15_09h26.25.855,avatar_quest_3AFC_legacy,2022.1.3,Win32,29.94011976,67f8d8e6750ee10869241ef1,67fe6e666cecbc9329ddf6d6,67fe861a28fcabaf5d186722,,,,,,,,,,,,,,,,,,,,,,With Brainslug Difficult 2 With Money,12,images/assets/snowy_money.jpg,learning,20,images/assets/success_money.jpg,images/assets/gameover.jpg,,,,,,,,,,,,,0,2,2,2,1,,,,,,,,,,,,,,,,,,,,,,,,,,,,,,,,
,,,,,,,,,,,,67f8d8e6750ee10869241ef1,001,3,2025-04-15_09h26.25.855,avatar_quest_3AFC_legacy,2022.1.3,Win32,29.94011976,67f8d8e6750ee10869241ef1,67fe6e666cecbc9329ddf6d6,67fe861a28fcabaf5d186722,,,,,,,,,,,,,,,,,,,,,,With Brainslug Difficult 2 No Money,12,images/assets/snowy_original.jpg,learning,20,images/assets/success.jpg,images/assets/gameover.jpg,,,,,,,,,,,,,0,3,3,3,1,,,,,,,,,,,,,,,,,,,,,,,,,,,,,,,,
,,,,,,,,,,,,67f8d8e6750ee10869241ef1,001,3,2025-04-15_09h26.25.855,avatar_quest_3AFC_legacy,2022.1.3,Win32,29.94011976,67f8d8e6750ee10869241ef1,67fe6e666cecbc9329ddf6d6,67fe861a28fcabaf5d186722,,,,,,,,,,,,,,,,,,,,,,No Brainslug Difficult 2 No Money,12,images/assets/snowy_original.jpg,learning,20,images/assets/success.jpg,images/assets/gameover.jpg,,,,,,,,,,,,,0,4,4,8,1,,,,,,,,,,,,,,,,,,,,,,,,,,,,,,,,
,,,,,,,,,,,,67f8d8e6750ee10869241ef1,001,3,2025-04-15_09h26.25.855,avatar_quest_3AFC_legacy,2022.1.3,Win32,29.94011976,67f8d8e6750ee10869241ef1,67fe6e666cecbc9329ddf6d6,67fe861a28fcabaf5d186722,,,,,,,,,,,,,,,,,,,,,,With Brainslug Difficult 1 With Money,6,images/assets/snowy_money.jpg,learning,20,images/assets/success_money.jpg,images/assets/gameover.jpg,,,,,,,,,,,,,0,5,5,0,1,,,,,,,,,,,,,,,,,,,,,,,,,,,,,,,,
,,,,,,,,,,,,67f8d8e6750ee10869241ef1,001,3,2025-04-15_09h26.25.855,avatar_quest_3AFC_legacy,2022.1.3,Win32,29.94011976,67f8d8e6750ee10869241ef1,67fe6e666cecbc9329ddf6d6,67fe861a28fcabaf5d186722,,,,,,,,,,,,,,,,,,,,,,With Brainslug No Barriers With Money,0,images/assets/snowy_money.jpg,learning,10,images/assets/success_money.jpg,images/assets/gameover.jpg,,,,,,,,,,,,,0,6,6,4,1,,,,,,,,,,,,,,,,,,,,,,,,,,,,,,,,
,,,,,,,,,,,,67f8d8e6750ee10869241ef1,001,3,2025-04-15_09h26.25.855,avatar_quest_3AFC_legacy,2022.1.3,Win32,29.94011976,67f8d8e6750ee10869241ef1,67fe6e666cecbc9329ddf6d6,67fe861a28fcabaf5d186722,,,,,,,,,,,,,,,,,,,,,,With Brainslug No Barriers No Money,0,images/assets/snowy_original.jpg,learning,10,images/assets/success.jpg,images/assets/gameover.jpg,,,,,,,,,,,,,0,7,7,5,1,,,,,,,,,,,,,,,,,,,,,,,,,,,,,,,,
,,,,,,,,,,,,67f8d8e6750ee10869241ef1,001,3,2025-04-15_09h26.25.855,avatar_quest_3AFC_legacy,2022.1.3,Win32,29.94011976,67f8d8e6750ee10869241ef1,67fe6e666cecbc9329ddf6d6,67fe861a28fcabaf5d186722,,,,,,,,,,,,,,,,,,,,,,No Brainslug Difficult 1 No Money,6,images/assets/snowy_original.jpg,learning,20,images/assets/success.jpg,images/assets/gameover.jpg,,,,,,,,,,,,,0,8,8,6,1,,,,,,,,,,,,,,,,,,,,,,,,,,,,,,,,
,,,,,,,,,,,,67f8d8e6750ee10869241ef1,001,3,2025-04-15_09h26.25.855,avatar_quest_3AFC_legacy,2022.1.3,Win32,29.94011976,67f8d8e6750ee10869241ef1,67fe6e666cecbc9329ddf6d6,67fe861a28fcabaf5d186722,,,,,,,,,,,,,,,,,,,,,,No Brainslug Difficult 2 With Money,12,images/assets/snowy_money.jpg,learning,20,images/assets/success_money.jpg,images/assets/gameover.jpg,,,,,,,,,,,,,0,9,9,7,1,,,,,,,,,,,,,,,,,,,,,,,,,,,,,,,,
,,,,,,,,,,,,67f8d8e6750ee10869241ef1,001,3,2025-04-15_09h26.25.855,avatar_quest_3AFC_legacy,2022.1.3,Win32,29.94011976,67f8d8e6750ee10869241ef1,67fe6e666cecbc9329ddf6d6,67fe861a28fcabaf5d186722,,,,,,,,,,,,,,,,,,,,,,With Brainslug Difficult 1 No Money,6,images/assets/snowy_original.jpg,learning,20,images/assets/success.jpg,images/assets/gameover.jpg,,,,,,,,,,,,,0,10,10,1,1,,,,,,,,,,,,,,,,,,,,,,,,,,,,,,,,
,,,,,,,,,,,,67f8d8e6750ee10869241ef1,001,3,2025-04-15_09h26.25.855,avatar_quest_3AFC_legacy,2022.1.3,Win32,29.94011976,67f8d8e6750ee10869241ef1,67fe6e666cecbc9329ddf6d6,67fe861a28fcabaf5d186722,,,,,,,,,,,,,,,,,,,,,,,,,,,,,,,,,,,,,,,,,,,,,,,,,,,,,,,0,0,0,0,1,,,,,,,,,,,,,,,,,,
,,,,,,,,,,,,67f8d8e6750ee10869241ef1,001,3,2025-04-15_09h26.25.855,avatar_quest_3AFC_legacy,2022.1.3,Win32,29.94011976,67f8d8e6750ee10869241ef1,67fe6e666cecbc9329ddf6d6,67fe861a28fcabaf5d186722,,,,,,,,,,,,,,,,,,,,,,With Brainslug No Barriers No Money,0,images/assets/snowy_original.jpg,learning,10,images/assets/success.jpg,images/assets/gameover.jpg,,,,,,,,No Brainslug No Barriers With Money,No Brainslug No Barriers No Money,right,1.1223,"[""No Brainslug No Barriers No Money"",""No Brainslug Difficult 1 No Money""]",0,0,0,5,1,,,,,,,,,,,,,,,,,,,,,,,,,,,,,,,,
,,,,,,,,,,,,67f8d8e6750ee10869241ef1,001,3,2025-04-15_09h26.25.855,avatar_quest_3AFC_legacy,2022.1.3,Win32,29.94011976,67f8d8e6750ee10869241ef1,67fe6e666cecbc9329ddf6d6,67fe861a28fcabaf5d186722,,,,,,,,,,,,,,,,,,,,,,With Brainslug Difficult 2 With Money,12,images/assets/snowy_money.jpg,learning,20,images/assets/success_money.jpg,images/assets/gameover.jpg,,,,,,,,,,,,,0,1,1,2,1,,,,,,,,,,,,,,,,,,,,,,,,,,,,,,,,
,,,,,,,,,,,,67f8d8e6750ee10869241ef1,001,3,2025-04-15_09h26.25.855,avatar_quest_3AFC_legacy,2022.1.3,Win32,29.94011976,67f8d8e6750ee10869241ef1,67fe6e666cecbc9329ddf6d6,67fe861a28fcabaf5d186722,,,,,,,,,,,,,,,,,,,,,,No Brainslug No Barriers No Money,0,images/assets/snowy_original.jpg,learning,10,images/assets/success.jpg,images/assets/gameover.jpg,,,,,,,,,,,,,0,2,2,10,1,,,,,,,,,,,,,,,,,,,,,,,,,,,,,,,,
,,,,,,,,,,,,67f8d8e6750ee10869241ef1,001,3,2025-04-15_09h26.25.855,avatar_quest_3AFC_legacy,2022.1.3,Win32,29.94011976,67f8d8e6750ee10869241ef1,67fe6e666cecbc9329ddf6d6,67fe861a28fcabaf5d186722,,,,,,,,,,,,,,,,,,,,,,With Brainslug Difficult 1 No Money,6,images/assets/snowy_original.jpg,learning,20,images/assets/success.jpg,images/assets/gameover.jpg,,,,,,,,,,,,,0,3,3,1,1,,,,,,,,,,,,,,,,,,,,,,,,,,,,,,,,
,,,,,,,,,,,,67f8d8e6750ee10869241ef1,001,3,2025-04-15_09h26.25.855,avatar_quest_3AFC_legacy,2022.1.3,Win32,29.94011976,67f8d8e6750ee10869241ef1,67fe6e666cecbc9329ddf6d6,67fe861a28fcabaf5d186722,,,,,,,,,,,,,,,,,,,,,,With Brainslug Difficult 2 No Money,12,images/assets/snowy_original.jpg,learning,20,images/assets/success.jpg,images/assets/gameover.jpg,,,,,,,,,,,,,0,4,4,3,1,,,,,,,,,,,,,,,,,,,,,,,,,,,,,,,,
,,,,,,,,,,,,67f8d8e6750ee10869241ef1,001,3,2025-04-15_09h26.25.855,avatar_quest_3AFC_legacy,2022.1.3,Win32,29.94011976,67f8d8e6750ee10869241ef1,67fe6e666cecbc9329ddf6d6,67fe861a28fcabaf5d186722,,,,,,,,,,,,,,,,,,,,,,No Brainslug Difficult 2 With Money,12,images/assets/snowy_money.jpg,learning,20,images/assets/success_money.jpg,images/assets/gameover.jpg,,,,,,,,,,,,,0,5,5,7,1,,,,,,,,,,,,,,,,,,,,,,,,,,,,,,,,
,,,,,,,,,,,,67f8d8e6750ee10869241ef1,001,3,2025-04-15_09h26.25.855,avatar_quest_3AFC_legacy,2022.1.3,Win32,29.94011976,67f8d8e6750ee10869241ef1,67fe6e666cecbc9329ddf6d6,67fe861a28fcabaf5d186722,,,,,,,,,,,,,,,,,,,,,,With Brainslug No Barriers With Money,0,images/assets/snowy_money.jpg,learning,10,images/assets/success_money.jpg,images/assets/gameover.jpg,,,,,,,,,,,,,0,6,6,4,1,,,,,,,,,,,,,,,,,,,,,,,,,,,,,,,,
,,,,,,,,,,,,67f8d8e6750ee10869241ef1,001,3,2025-04-15_09h26.25.855,avatar_quest_3AFC_legacy,2022.1.3,Win32,29.94011976,67f8d8e6750ee10869241ef1,67fe6e666cecbc9329ddf6d6,67fe861a28fcabaf5d186722,,,,,,,,,,,,,,,,,,,,,,With Brainslug Difficult 1 With Money,6,images/assets/snowy_money.jpg,learning,20,images/assets/success_money.jpg,images/assets/gameover.jpg,,,,,,,,,,,,,0,7,7,0,1,,,,,,,,,,,,,,,,,,,,,,,,,,,,,,,,
,,,,,,,,,,,,67f8d8e6750ee10869241ef1,001,3,2025-04-15_09h26.25.855,avatar_quest_3AFC_legacy,2022.1.3,Win32,29.94011976,67f8d8e6750ee10869241ef1,67fe6e666cecbc9329ddf6d6,67fe861a28fcabaf5d186722,,,,,,,,,,,,,,,,,,,,,,No Brainslug Difficult 1 No Money,6,images/assets/snowy_original.jpg,learning,20,images/assets/success.jpg,images/assets/gameover.jpg,,,,,,,,,,,,,0,8,8,6,1,,,,,,,,,,,,,,,,,,,,,,,,,,,,,,,,
,,,,,,,,,,,,67f8d8e6750ee10869241ef1,001,3,2025-04-15_09h26.25.855,avatar_quest_3AFC_legacy,2022.1.3,Win32,29.94011976,67f8d8e6750ee10869241ef1,67fe6e666cecbc9329ddf6d6,67fe861a28fcabaf5d186722,"[""left""]",[0.5587999999970634],,calibration,No Brainslug No Barriers With Money,17,6.51644,5.6334,1,0,0,TRUE,na,na,na,na,,,,,,,,,,,,,,,,,,,,,,,,,,,,,,,,,,0,0,0,0,1,,,,,,,,,,,,,,,,,,,,,,,
,,,,,,,,,,,,67f8d8e6750ee10869241ef1,001,3,2025-04-15_09h26.25.855,avatar_quest_3AFC_legacy,2022.1.3,Win32,29.94011976,67f8d8e6750ee10869241ef1,67fe6e666cecbc9329ddf6d6,67fe861a28fcabaf5d186722,,,,,,,,,,,,,,,,,,,,,,No Brainslug No Barriers With Money,0,images/assets/snowy_money.jpg,learning,10,images/assets/success_money.jpg,images/assets/gameover.jpg,,,,,,,,,,,,,0,9,9,9,1,,,,,,,,,,,,,,,,,,,,,,,,,,,,,,,,
,,,,,,,,,,,,67f8d8e6750ee10869241ef1,001,3,2025-04-15_09h26.25.855,avatar_quest_3AFC_legacy,2022.1.3,Win32,29.94011976,67f8d8e6750ee10869241ef1,67fe6e666cecbc9329ddf6d6,67fe861a28fcabaf5d186722,,,,,,,,,,,,,,,,,,,,,,No Brainslug Difficult 2 No Money,12,images/assets/snowy_original.jpg,learning,20,images/assets/success.jpg,images/assets/gameover.jpg,,,,,,,,,,,,,0,10,10,8,1,,,,,,,,,,,,,,,,,,,,,,,,,,,,,,,,
,,,,,,,,,,,,67f8d8e6750ee10869241ef1,001,3,2025-04-15_09h26.25.855,avatar_quest_3AFC_legacy,2022.1.3,Win32,29.94011976,67f8d8e6750ee10869241ef1,67fe6e666cecbc9329ddf6d6,67fe861a28fcabaf5d186722,,,,,,,,,,,,,,,,,,,,,,,,,,,,,,,,,,,,,,,,,,,,,,,,,,,,,,,1,0,1,0,1,,,,,,,,,,,,,,,,,,
,,,,,,,,,,,,67f8d8e6750ee10869241ef1,001,3,2025-04-15_09h26.25.855,avatar_quest_3AFC_legacy,2022.1.3,Win32,29.94011976,67f8d8e6750ee10869241ef1,67fe6e666cecbc9329ddf6d6,67fe861a28fcabaf5d186722,,,,,,,,,,,,,,,,,,,,,,No Brainslug Difficult 2 No Money,12,images/assets/snowy_original.jpg,learning,20,images/assets/success.jpg,images/assets/gameover.jpg,,,,,,,,No Brainslug Difficult 1 No Money,No Brainslug No Barriers No Money,down,2.656,"[""No Brainslug No Barriers No Money"",""No Brainslug No Barriers With Money""]",0,0,0,8,1,,,,,,,,,,,,,,,,,,,,,,,,,,,,,,,,
,,,,,,,,,,,,67f8d8e6750ee10869241ef1,001,3,2025-04-15_09h26.25.855,avatar_quest_3AFC_legacy,2022.1.3,Win32,29.94011976,67f8d8e6750ee10869241ef1,67fe6e666cecbc9329ddf6d6,67fe861a28fcabaf5d186722,,,,,,,,,,,,,,,,,,,,,,With Brainslug Difficult 2 With Money,12,images/assets/snowy_money.jpg,learning,20,images/assets/success_money.jpg,images/assets/gameover.jpg,,,,,,,,,,,,,0,1,1,2,1,,,,,,,,,,,,,,,,,,,,,,,,,,,,,,,,
,,,,,,,,,,,,67f8d8e6750ee10869241ef1,001,3,2025-04-15_09h26.25.855,avatar_quest_3AFC_legacy,2022.1.3,Win32,29.94011976,67f8d8e6750ee10869241ef1,67fe6e666cecbc9329ddf6d6,67fe861a28fcabaf5d186722,,,,,,,,,,,,,,,,,,,,,,No Brainslug No Barriers No Money,0,images/assets/snowy_original.jpg,learning,10,images/assets/success.jpg,images/assets/gameover.jpg,,,,,,,,,,,,,0,2,2,10,1,,,,,,,,,,,,,,,,,,,,,,,,,,,,,,,,
,,,,,,,,,,,,67f8d8e6750ee10869241ef1,001,3,2025-04-15_09h26.25.855,avatar_quest_3AFC_legacy,2022.1.3,Win32,29.94011976,67f8d8e6750ee10869241ef1,67fe6e666cecbc9329ddf6d6,67fe861a28fcabaf5d186722,,,,,,,,,,,,,,,,,,,,,,With Brainslug Difficult 1 With Money,6,images/assets/snowy_money.jpg,learning,20,images/assets/success_money.jpg,images/assets/gameover.jpg,,,,,,,,,,,,,0,3,3,0,1,,,,,,,,,,,,,,,,,,,,,,,,,,,,,,,,
,,,,,,,,,,,,67f8d8e6750ee10869241ef1,001,3,2025-04-15_09h26.25.855,avatar_quest_3AFC_legacy,2022.1.3,Win32,29.94011976,67f8d8e6750ee10869241ef1,67fe6e666cecbc9329ddf6d6,67fe861a28fcabaf5d186722,,,,,,,,,,,,,,,,,,,,,,With Brainslug Difficult 1 No Money,6,images/assets/snowy_original.jpg,learning,20,images/assets/success.jpg,images/assets/gameover.jpg,,,,,,,,,,,,,0,4,4,1,1,,,,,,,,,,,,,,,,,,,,,,,,,,,,,,,,
,,,,,,,,,,,,67f8d8e6750ee10869241ef1,001,3,2025-04-15_09h26.25.855,avatar_quest_3AFC_legacy,2022.1.3,Win32,29.94011976,67f8d8e6750ee10869241ef1,67fe6e666cecbc9329ddf6d6,67fe861a28fcabaf5d186722,,,,,,,,,,,,,,,,,,,,,,With Brainslug Difficult 2 No Money,12,images/assets/snowy_original.jpg,learning,20,images/assets/success.jpg,images/assets/gameover.jpg,,,,,,,,,,,,,0,5,5,3,1,,,,,,,,,,,,,,,,,,,,,,,,,,,,,,,,
,,,,,,,,,,,,67f8d8e6750ee10869241ef1,001,3,2025-04-15_09h26.25.855,avatar_quest_3AFC_legacy,2022.1.3,Win32,29.94011976,67f8d8e6750ee10869241ef1,67fe6e666cecbc9329ddf6d6,67fe861a28fcabaf5d186722,,,,,,,,,,,,,,,,,,,,,,With Brainslug No Barriers No Money,0,images/assets/snowy_original.jpg,learning,10,images/assets/success.jpg,images/assets/gameover.jpg,,,,,,,,,,,,,0,6,6,5,1,,,,,,,,,,,,,,,,,,,,,,,,,,,,,,,,
,,,,,,,,,,,,67f8d8e6750ee10869241ef1,001,3,2025-04-15_09h26.25.855,avatar_quest_3AFC_legacy,2022.1.3,Win32,29.94011976,67f8d8e6750ee10869241ef1,67fe6e666cecbc9329ddf6d6,67fe861a28fcabaf5d186722,,,,,,,,,,,,,,,,,,,,,,No Brainslug No Barriers With Money,0,images/assets/snowy_money.jpg,learning,10,images/assets/success_money.jpg,images/assets/gameover.jpg,,,,,,,,,,,,,0,7,7,9,1,,,,,,,,,,,,,,,,,,,,,,,,,,,,,,,,
,,,,,,,,,,,,67f8d8e6750ee10869241ef1,001,3,2025-04-15_09h26.25.855,avatar_quest_3AFC_legacy,2022.1.3,Win32,29.94011976,67f8d8e6750ee10869241ef1,67fe6e666cecbc9329ddf6d6,67fe861a28fcabaf5d186722,,,,,,,,,,,,,,,,,,,,,,No Brainslug Difficult 2 With Money,12,images/assets/snowy_money.jpg,learning,20,images/assets/success_money.jpg,images/assets/gameover.jpg,,,,,,,,,,,,,0,8,8,7,1,,,,,,,,,,,,,,,,,,,,,,,,,,,,,,,,
,,,,,,,,,,,,67f8d8e6750ee10869241ef1,001,3,2025-04-15_09h26.25.855,avatar_quest_3AFC_legacy,2022.1.3,Win32,29.94011976,67f8d8e6750ee10869241ef1,67fe6e666cecbc9329ddf6d6,67fe861a28fcabaf5d186722,,,,,,,,,,,,,,,,,,,,,,With Brainslug No Barriers With Money,0,images/assets/snowy_money.jpg,learning,10,images/assets/success_money.jpg,images/assets/gameover.jpg,,,,,,,,,,,,,0,9,9,4,1,,,,,,,,,,,,,,,,,,,,,,,,,,,,,,,,
,,,,,,,,,,,,67f8d8e6750ee10869241ef1,001,3,2025-04-15_09h26.25.855,avatar_quest_3AFC_legacy,2022.1.3,Win32,29.94011976,67f8d8e6750ee10869241ef1,67fe6e666cecbc9329ddf6d6,67fe861a28fcabaf5d186722,"[""left"",""right"",""left"",""right"",""left""]","[1.063299999996957,3.2925999999940814,4.060899999991079,4.792799999996987,5.6684999999999945]",,calibration,No Brainslug Difficult 1 No Money,18,8.14555,6.6998,5,3,0,TRUE,na,na,na,na,,,,,,,,,,,,,,,,,,,,,,,,,,,,,,,,,,0,0,0,0,1,,,,,,,,,,,,,,,,,,,,,,,
,,,,,,,,,,,,67f8d8e6750ee10869241ef1,001,3,2025-04-15_09h26.25.855,avatar_quest_3AFC_legacy,2022.1.3,Win32,29.94011976,67f8d8e6750ee10869241ef1,67fe6e666cecbc9329ddf6d6,67fe861a28fcabaf5d186722,,,,,,,,,,,,,,,,,,,,,,No Brainslug Difficult 1 No Money,6,images/assets/snowy_original.jpg,learning,20,images/assets/success.jpg,images/assets/gameover.jpg,,,,,,,,,,,,,0,10,10,6,1,,,,,,,,,,,,,,,,,,,,,,,,,,,,,,,,
,,,,,,,,,,,,67f8d8e6750ee10869241ef1,001,3,2025-04-15_09h26.25.855,avatar_quest_3AFC_legacy,2022.1.3,Win32,29.94011976,67f8d8e6750ee10869241ef1,67fe6e666cecbc9329ddf6d6,67fe861a28fcabaf5d186722,,,,,,,,,,,,,,,,,,,,,,,,,,,,,,,,,,,,,,,,,,,,,,,,,,,,,,,2,0,2,0,1,,,,,,,,,,,,,,,,,,
,,,,,,,,,,,,67f8d8e6750ee10869241ef1,001,3,2025-04-15_09h26.25.855,avatar_quest_3AFC_legacy,2022.1.3,Win32,29.94011976,67f8d8e6750ee10869241ef1,67fe6e666cecbc9329ddf6d6,67fe861a28fcabaf5d186722,,,,,,,,,,,,,,,,,,,,,,With Brainslug Difficult 1 No Money,6,images/assets/snowy_original.jpg,learning,20,images/assets/success.jpg,images/assets/gameover.jpg,,,,,,,,No Brainslug Difficult 1 No Money,No Brainslug No Barriers No Money,down,3.969,"[""No Brainslug No Barriers No Money"",""No Brainslug No Barriers With Money""]",0,0,0,1,1,,,,,,,,,,,,,,,,,,,,,,,,,,,,,,,,
,,,,,,,,,,,,67f8d8e6750ee10869241ef1,001,3,2025-04-15_09h26.25.855,avatar_quest_3AFC_legacy,2022.1.3,Win32,29.94011976,67f8d8e6750ee10869241ef1,67fe6e666cecbc9329ddf6d6,67fe861a28fcabaf5d186722,,,,,,,,,,,,,,,,,,,,,,With Brainslug Difficult 2 No Money,12,images/assets/snowy_original.jpg,learning,20,images/assets/success.jpg,images/assets/gameover.jpg,,,,,,,,,,,,,0,1,1,3,1,,,,,,,,,,,,,,,,,,,,,,,,,,,,,,,,
,,,,,,,,,,,,67f8d8e6750ee10869241ef1,001,3,2025-04-15_09h26.25.855,avatar_quest_3AFC_legacy,2022.1.3,Win32,29.94011976,67f8d8e6750ee10869241ef1,67fe6e666cecbc9329ddf6d6,67fe861a28fcabaf5d186722,"[""left"",""right"",""left"",""right"",""left""]","[0.6343999999910466,1.5491999999881045,2.273599999994076,3.3230999999940423,4.305599999994001]",,calibration,No Brainslug Difficult 1 No Money,19,8.14555,5.3824,5,0,0,TRUE,na,na,na,na,,,,,,,,,,,,,,,,,,,,,,,,,,,,,,,,,,0,0,0,0,1,,,,,,,,,,,,,,,,,,,,,,,
,,,,,,,,,,,,67f8d8e6750ee10869241ef1,001,3,2025-04-15_09h26.25.855,avatar_quest_3AFC_legacy,2022.1.3,Win32,29.94011976,67f8d8e6750ee10869241ef1,67fe6e666cecbc9329ddf6d6,67fe861a28fcabaf5d186722,,,,,,,,,,,,,,,,,,,,,,No Brainslug Difficult 1 No Money,6,images/assets/snowy_original.jpg,learning,20,images/assets/success.jpg,images/assets/gameover.jpg,,,,,,,,,,,,,0,2,2,6,1,,,,,,,,,,,,,,,,,,,,,,,,,,,,,,,,
,,,,,,,,,,,,67f8d8e6750ee10869241ef1,001,3,2025-04-15_09h26.25.855,avatar_quest_3AFC_legacy,2022.1.3,Win32,29.94011976,67f8d8e6750ee10869241ef1,67fe6e666cecbc9329ddf6d6,67fe861a28fcabaf5d186722,,,,,,,,,,,,,,,,,,,,,,With Brainslug No Barriers With Money,0,images/assets/snowy_money.jpg,learning,10,images/assets/success_money.jpg,images/assets/gameover.jpg,,,,,,,,,,,,,0,3,3,4,1,,,,,,,,,,,,,,,,,,,,,,,,,,,,,,,,
,,,,,,,,,,,,67f8d8e6750ee10869241ef1,001,3,2025-04-15_09h26.25.855,avatar_quest_3AFC_legacy,2022.1.3,Win32,29.94011976,67f8d8e6750ee10869241ef1,67fe6e666cecbc9329ddf6d6,67fe861a28fcabaf5d186722,,,,,,,,,,,,,,,,,,,,,,No Brainslug No Barriers With Money,0,images/assets/snowy_money.jpg,learning,10,images/assets/success_money.jpg,images/assets/gameover.jpg,,,,,,,,,,,,,0,4,4,9,1,,,,,,,,,,,,,,,,,,,,,,,,,,,,,,,,
,,,,,,,,,,,,67f8d8e6750ee10869241ef1,001,3,2025-04-15_09h26.25.855,avatar_quest_3AFC_legacy,2022.1.3,Win32,29.94011976,67f8d8e6750ee10869241ef1,67fe6e666cecbc9329ddf6d6,67fe861a28fcabaf5d186722,,,,,,,,,,,,,,,,,,,,,,No Brainslug Difficult 2 With Money,12,images/assets/snowy_money.jpg,learning,20,images/assets/success_money.jpg,images/assets/gameover.jpg,,,,,,,,,,,,,0,5,5,7,1,,,,,,,,,,,,,,,,,,,,,,,,,,,,,,,,
,,,,,,,,,,,,67f8d8e6750ee10869241ef1,001,3,2025-04-15_09h26.25.855,avatar_quest_3AFC_legacy,2022.1.3,Win32,29.94011976,67f8d8e6750ee10869241ef1,67fe6e666cecbc9329ddf6d6,67fe861a28fcabaf5d186722,,,,,,,,,,,,,,,,,,,,,,No Brainslug No Barriers No Money,0,images/assets/snowy_original.jpg,learning,10,images/assets/success.jpg,images/assets/gameover.jpg,,,,,,,,,,,,,0,6,6,10,1,,,,,,,,,,,,,,,,,,,,,,,,,,,,,,,,
,,,,,,,,,,,,67f8d8e6750ee10869241ef1,001,3,2025-04-15_09h26.25.855,avatar_quest_3AFC_legacy,2022.1.3,Win32,29.94011976,67f8d8e6750ee10869241ef1,67fe6e666cecbc9329ddf6d6,67fe861a28fcabaf5d186722,,,,,,,,,,,,,,,,,,,,,,With Brainslug No Barriers No Money,0,images/assets/snowy_original.jpg,learning,10,images/assets/success.jpg,images/assets/gameover.jpg,,,,,,,,,,,,,0,7,7,5,1,,,,,,,,,,,,,,,,,,,,,,,,,,,,,,,,
,,,,,,,,,,,,67f8d8e6750ee10869241ef1,001,3,2025-04-15_09h26.25.855,avatar_quest_3AFC_legacy,2022.1.3,Win32,29.94011976,67f8d8e6750ee10869241ef1,67fe6e666cecbc9329ddf6d6,67fe861a28fcabaf5d186722,,,,,,,,,,,,,,,,,,,,,,No Brainslug Difficult 2 No Money,12,images/assets/snowy_original.jpg,learning,20,images/assets/success.jpg,images/assets/gameover.jpg,,,,,,,,,,,,,0,8,8,8,1,,,,,,,,,,,,,,,,,,,,,,,,,,,,,,,,
,,,,,,,,,,,,67f8d8e6750ee10869241ef1,001,3,2025-04-15_09h26.25.855,avatar_quest_3AFC_legacy,2022.1.3,Win32,29.94011976,67f8d8e6750ee10869241ef1,67fe6e666cecbc9329ddf6d6,67fe861a28fcabaf5d186722,,,,,,,,,,,,,,,,,,,,,,With Brainslug Difficult 2 With Money,12,images/assets/snowy_money.jpg,learning,20,images/assets/success_money.jpg,images/assets/gameover.jpg,,,,,,,,,,,,,0,9,9,2,1,,,,,,,,,,,,,,,,,,,,,,,,,,,,,,,,
,,,,,,,,,,,,67f8d8e6750ee10869241ef1,001,3,2025-04-15_09h26.25.855,avatar_quest_3AFC_legacy,2022.1.3,Win32,29.94011976,67f8d8e6750ee10869241ef1,67fe6e666cecbc9329ddf6d6,67fe861a28fcabaf5d186722,,,,,,,,,,,,,,,,,,,,,,With Brainslug Difficult 1 With Money,6,images/assets/snowy_money.jpg,learning,20,images/assets/success_money.jpg,images/assets/gameover.jpg,,,,,,,,,,,,,0,10,10,0,1,,,,,,,,,,,,,,,,,,,,,,,,,,,,,,,,
,,,,,,,,,,,,67f8d8e6750ee10869241ef1,001,3,2025-04-15_09h26.25.855,avatar_quest_3AFC_legacy,2022.1.3,Win32,29.94011976,67f8d8e6750ee10869241ef1,67fe6e666cecbc9329ddf6d6,67fe861a28fcabaf5d186722,,,,,,,,,,,,,,,,,,,,,,,,,,,,,,,,,,,,,,,,,,,,,,,,,,,,,,,3,0,3,0,1,,,,,,,,,,,,,,,,,,
,,,,,,,,,,,,67f8d8e6750ee10869241ef1,001,3,2025-04-15_09h26.25.855,avatar_quest_3AFC_legacy,2022.1.3,Win32,29.94011976,67f8d8e6750ee10869241ef1,67fe6e666cecbc9329ddf6d6,67fe861a28fcabaf5d186722,,,,,,,,,,,,,,,,,,,,,,No Brainslug Difficult 1 No Money,6,images/assets/snowy_original.jpg,learning,20,images/assets/success.jpg,images/assets/gameover.jpg,,,,,,,,No Brainslug No Barriers With Money,No Brainslug No Barriers No Money,right,1.2289,"[""No Brainslug No Barriers No Money"",""No Brainslug Difficult 1 No Money""]",0,0,0,6,1,,,,,,,,,,,,,,,,,,,,,,,,,,,,,,,,
,,,,,,,,,,,,67f8d8e6750ee10869241ef1,001,3,2025-04-15_09h26.25.855,avatar_quest_3AFC_legacy,2022.1.3,Win32,29.94011976,67f8d8e6750ee10869241ef1,67fe6e666cecbc9329ddf6d6,67fe861a28fcabaf5d186722,,,,,,,,,,,,,,,,,,,,,,With Brainslug No Barriers No Money,0,images/assets/snowy_original.jpg,learning,10,images/assets/success.jpg,images/assets/gameover.jpg,,,,,,,,,,,,,0,1,1,5,1,,,,,,,,,,,,,,,,,,,,,,,,,,,,,,,,
,,,,,,,,,,,,67f8d8e6750ee10869241ef1,001,3,2025-04-15_09h26.25.855,avatar_quest_3AFC_legacy,2022.1.3,Win32,29.94011976,67f8d8e6750ee10869241ef1,67fe6e666cecbc9329ddf6d6,67fe861a28fcabaf5d186722,,,,,,,,,,,,,,,,,,,,,,No Brainslug Difficult 2 With Money,12,images/assets/snowy_money.jpg,learning,20,images/assets/success_money.jpg,images/assets/gameover.jpg,,,,,,,,,,,,,0,2,2,7,1,,,,,,,,,,,,,,,,,,,,,,,,,,,,,,,,
,,,,,,,,,,,,67f8d8e6750ee10869241ef1,001,3,2025-04-15_09h26.25.855,avatar_quest_3AFC_legacy,2022.1.3,Win32,29.94011976,67f8d8e6750ee10869241ef1,67fe6e666cecbc9329ddf6d6,67fe861a28fcabaf5d186722,,,,,,,,,,,,,,,,,,,,,,With Brainslug Difficult 1 With Money,6,images/assets/snowy_money.jpg,learning,20,images/assets/success_money.jpg,images/assets/gameover.jpg,,,,,,,,,,,,,0,3,3,0,1,,,,,,,,,,,,,,,,,,,,,,,,,,,,,,,,
,,,,,,,,,,,,67f8d8e6750ee10869241ef1,001,3,2025-04-15_09h26.25.855,avatar_quest_3AFC_legacy,2022.1.3,Win32,29.94011976,67f8d8e6750ee10869241ef1,67fe6e666cecbc9329ddf6d6,67fe861a28fcabaf5d186722,"[""left"",""right"",""left""]","[1.92349999999999,3.701999999999998,5.070799999997007]",,calibration,No Brainslug No Barriers With Money,20,6.51644,6.5167,3,0,82,FALSE,na,na,na,na,,,,,,,,,,,,,,,,,,,,,,,,,,,,,,,,,,0,0,0,0,1,,,,,,,,,,,,,,,,,,,,,,,
,,,,,,,,,,,,67f8d8e6750ee10869241ef1,001,3,2025-04-15_09h26.25.855,avatar_quest_3AFC_legacy,2022.1.3,Win32,29.94011976,67f8d8e6750ee10869241ef1,67fe6e666cecbc9329ddf6d6,67fe861a28fcabaf5d186722,,,,,,,,,,,,,,,,,,,,,,No Brainslug No Barriers With Money,0,images/assets/snowy_money.jpg,learning,10,images/assets/success_money.jpg,images/assets/gameover.jpg,,,,,,,,,,,,,0,4,4,9,1,,,,,,,,,,,,,,,,,,,,,,,,,,,,,,,,
,,,,,,,,,,,,67f8d8e6750ee10869241ef1,001,3,2025-04-15_09h26.25.855,avatar_quest_3AFC_legacy,2022.1.3,Win32,29.94011976,67f8d8e6750ee10869241ef1,67fe6e666cecbc9329ddf6d6,67fe861a28fcabaf5d186722,,,,,,,,,,,,,,,,,,,,,,No Brainslug No Barriers No Money,0,images/assets/snowy_original.jpg,learning,10,images/assets/success.jpg,images/assets/gameover.jpg,,,,,,,,,,,,,0,5,5,10,1,,,,,,,,,,,,,,,,,,,,,,,,,,,,,,,,
,,,,,,,,,,,,67f8d8e6750ee10869241ef1,001,3,2025-04-15_09h26.25.855,avatar_quest_3AFC_legacy,2022.1.3,Win32,29.94011976,67f8d8e6750ee10869241ef1,67fe6e666cecbc9329ddf6d6,67fe861a28fcabaf5d186722,,,,,,,,,,,,,,,,,,,,,,With Brainslug Difficult 2 With Money,12,images/assets/snowy_money.jpg,learning,20,images/assets/success_money.jpg,images/assets/gameover.jpg,,,,,,,,,,,,,0,6,6,2,1,,,,,,,,,,,,,,,,,,,,,,,,,,,,,,,,
,,,,,,,,,,,,67f8d8e6750ee10869241ef1,001,3,2025-04-15_09h26.25.855,avatar_quest_3AFC_legacy,2022.1.3,Win32,29.94011976,67f8d8e6750ee10869241ef1,67fe6e666cecbc9329ddf6d6,67fe861a28fcabaf5d186722,,,,,,,,,,,,,,,,,,,,,,No Brainslug Difficult 2 No Money,12,images/assets/snowy_original.jpg,learning,20,images/assets/success.jpg,images/assets/gameover.jpg,,,,,,,,,,,,,0,7,7,8,1,,,,,,,,,,,,,,,,,,,,,,,,,,,,,,,,
