instruction_mouse.x,instruction_mouse.y,instruction_mouse.leftButton,instruction_mouse.midButton,instruction_mouse.rightButton,instruction_mouse.clicked_name,introduce_general.thisRepN,introduce_general.thisTrialN,introduce_general.thisN,introduce_general.thisIndex,introduce_general.ran,thisInstruction,participant,session,game version,date,expName,psychopyVersion,OS,frameRate,PROLIFIC PID,STUDY ID,SESSION ID,move_resp.keys,move_resp.rt,end_resp.keys,phase,condition,trial_num,time_limit,completion_time,left_right_steps,number_of_obsticle_blocks,number_of_tree_blocks,quest_complete,responsivity_summary,av_inter_brainslug_intervals,proportion_jitter,jitter_direction_proportion_right,calibration_phase.thisRepN,calibration_phase.thisTrialN,calibration_phase.thisN,calibration_phase.thisIndex,calibration_phase.ran,BlockLabel,nObsticles,backgroundImage,phaseLabel,n_side_steps,success_im,gameover_im,success_condition,introduce_learning_or_choice.thisRepN,introduce_learning_or_choice.thisTrialN,introduce_learning_or_choice.thisN,introduce_learning_or_choice.thisIndex,introduce_learning_or_choice.ran,choice_resp.keys,chosen_quest,unchosen_quest,choice_resp_3afc.keys,choice_resp_3afc.rt,unchosen_quests,forced_choice_trial.thisRepN,forced_choice_trial.thisTrialN,forced_choice_trial.thisN,forced_choice_trial.thisIndex,forced_choice_trial.ran,enjoyment_slider.response,enjoyment_slider.rt,effort_slider.response,effort_slider.rt,show_loop2.thisRepN,show_loop2.thisTrialN,show_loop2.thisN,show_loop2.thisIndex,show_loop2.ran,trials_per_block.thisRepN,trials_per_block.thisTrialN,trials_per_block.thisN,trials_per_block.thisIndex,trials_per_block.ran,decision_phase_AFC.thisRepN,decision_phase_AFC.thisTrialN,decision_phase_AFC.thisN,decision_phase_AFC.thisIndex,decision_phase_AFC.ran,blockN,BlockLabel1,questIm1,BlockLabel2,questIm2,BlockLabel3,questIm3,quest_condition,showForcedChoice.thisRepN,showForcedChoice.thisTrialN,showForcedChoice.thisN,showForcedChoice.thisIndex,showForcedChoice.ran
0.403645833,-0.408854167,1,0,0,instruction_button,0,0,0,0,1,images/instructions_part1_LSM_taskversion1/Slide1.JPG,67fab4a0d29e8a31f5e08e9e,001,3,2025-04-15_06h25.19.618,avatar_quest_3AFC_legacy,2022.1.3,Win32,64.1025641,67fab4a0d29e8a31f5e08e9e,67fe37cb3bd870bba73819bd,67fe3a14c1211f3d2e67ccf3,,,,,,,,,,,,,,,,,,,,,,,,,,,,,,,,,,,,,,,,,,,,,,,,,,,,,,,,,,,,,,,,,,,,,,,,,,,,,
0.372395833,-0.390625,1,0,0,instruction_button,0,1,1,1,1,images/instructions_part1_LSM_taskversion1/Slide2.JPG,67fab4a0d29e8a31f5e08e9e,001,3,2025-04-15_06h25.19.618,avatar_quest_3AFC_legacy,2022.1.3,Win32,64.1025641,67fab4a0d29e8a31f5e08e9e,67fe37cb3bd870bba73819bd,67fe3a14c1211f3d2e67ccf3,,,,,,,,,,,,,,,,,,,,,,,,,,,,,,,,,,,,,,,,,,,,,,,,,,,,,,,,,,,,,,,,,,,,,,,,,,,,,
0.37890625,-0.404947917,1,0,0,instruction_button,0,2,2,2,1,images/instructions_part1_LSM_taskversion1/Slide3.JPG,67fab4a0d29e8a31f5e08e9e,001,3,2025-04-15_06h25.19.618,avatar_quest_3AFC_legacy,2022.1.3,Win32,64.1025641,67fab4a0d29e8a31f5e08e9e,67fe37cb3bd870bba73819bd,67fe3a14c1211f3d2e67ccf3,,,,,,,,,,,,,,,,,,,,,,,,,,,,,,,,,,,,,,,,,,,,,,,,,,,,,,,,,,,,,,,,,,,,,,,,,,,,,
0.352864583,-0.380208333,1,0,0,instruction_button,0,3,3,3,1,images/instructions_part1_LSM_taskversion1/Slide3.5.JPG,67fab4a0d29e8a31f5e08e9e,001,3,2025-04-15_06h25.19.618,avatar_quest_3AFC_legacy,2022.1.3,Win32,64.1025641,67fab4a0d29e8a31f5e08e9e,67fe37cb3bd870bba73819bd,67fe3a14c1211f3d2e67ccf3,,,,,,,,,,,,,,,,,,,,,,,,,,,,,,,,,,,,,,,,,,,,,,,,,,,,,,,,,,,,,,,,,,,,,,,,,,,,,
0.352864583,-0.380208333,1,0,0,instruction_button,0,4,4,4,1,images/instructions_part1_LSM_taskversion1/Slide4.JPG,67fab4a0d29e8a31f5e08e9e,001,3,2025-04-15_06h25.19.618,avatar_quest_3AFC_legacy,2022.1.3,Win32,64.1025641,67fab4a0d29e8a31f5e08e9e,67fe37cb3bd870bba73819bd,67fe3a14c1211f3d2e67ccf3,,,,,,,,,,,,,,,,,,,,,,,,,,,,,,,,,,,,,,,,,,,,,,,,,,,,,,,,,,,,,,,,,,,,,,,,,,,,,
0.37109375,-0.408854167,1,0,0,instruction_button,0,5,5,5,1,images/instructions_part1_LSM_taskversion1/Slide6.5.JPG,67fab4a0d29e8a31f5e08e9e,001,3,2025-04-15_06h25.19.618,avatar_quest_3AFC_legacy,2022.1.3,Win32,64.1025641,67fab4a0d29e8a31f5e08e9e,67fe37cb3bd870bba73819bd,67fe3a14c1211f3d2e67ccf3,,,,,,,,,,,,,,,,,,,,,,,,,,,,,,,,,,,,,,,,,,,,,,,,,,,,,,,,,,,,,,,,,,,,,,,,,,,,,
,,,,,,,,,,,,67fab4a0d29e8a31f5e08e9e,001,3,2025-04-15_06h25.19.618,avatar_quest_3AFC_legacy,2022.1.3,Win32,64.1025641,67fab4a0d29e8a31f5e08e9e,67fe37cb3bd870bba73819bd,67fe3a14c1211f3d2e67ccf3,"[""left"",""left"",""left"",""left"",""left"",""right"",""left""]","[2.9726999999880945,3.5043000000119946,4.012699999988058,4.360100000023863,6.448399999976232,6.982199999988097,6.982800000011935]",,calibration,No Brainslug No Barriers No Money,1,100,7.4945,3,0,0,TRUE,na,na,na,na,0,0,0,1,1,No Brainslug No Barriers No Money,0,images/assets/snowy_original.jpg,calibration,10,images/assets/success.jpg,images/assets/gameover.jpg,never,,,,,,,,,,,,,,,,,,,,,,,,,,,,,,,,,,,,,,,,,,,,,,,,
,,,,,,,,,,,,67fab4a0d29e8a31f5e08e9e,001,3,2025-04-15_06h25.19.618,avatar_quest_3AFC_legacy,2022.1.3,Win32,64.1025641,67fab4a0d29e8a31f5e08e9e,67fe37cb3bd870bba73819bd,67fe3a14c1211f3d2e67ccf3,"[""right"",""left"",""right"",""right"",""right"",""right"",""left"",""left"",""left"",""right"",""right"",""right"",""left"",""right"",""right""]","[0.010999999999967258,0.011599999964232666,1.6156999999881236,2.0095000000000027,2.173899999976129,3.5452999999523627,4.095399999976166,4.289599999964253,4.628199999988055,5.330500000000029,5.690899999976182,6.02619999998808,6.530499999999961,7.573099999964256,7.909599999964257]",,calibration,No Brainslug No Barriers No Money,2,100,8.2642,13,0,5,TRUE,na,na,na,na,0,1,1,0,1,No Brainslug No Barriers No Money,0,images/assets/snowy_original.jpg,calibration,10,images/assets/success.jpg,images/assets/gameover.jpg,never,,,,,,,,,,,,,,,,,,,,,,,,,,,,,,,,,,,,,,,,,,,,,,,,
,,,,,,,,,,,,67fab4a0d29e8a31f5e08e9e,001,3,2025-04-15_06h25.19.618,avatar_quest_3AFC_legacy,2022.1.3,Win32,64.1025641,67fab4a0d29e8a31f5e08e9e,67fe37cb3bd870bba73819bd,67fe3a14c1211f3d2e67ccf3,"[""right"",""left"",""left"",""left"",""left"",""left"",""right"",""right"",""right"",""right"",""right"",""left"",""left""]","[0.8636999999880572,1.0340999999641554,1.3773999999760917,1.7598999999761418,2.09729999995227,2.4393999999761036,2.9475999999641544,3.3055999999642154,5.902499999999918,6.0696999999880745,6.439299999952254,6.8034999999999854,7.148899999976152]",,calibration,No Brainslug No Barriers No Money,3,100,7.5056,11,0,0,TRUE,na,na,na,na,0,2,2,2,1,No Brainslug No Barriers No Money,0,images/assets/snowy_original.jpg,calibration,10,images/assets/success.jpg,images/assets/gameover.jpg,never,,,,,,,,,,,,,,,,,,,,,,,,,,,,,,,,,,,,,,,,,,,,,,,,
0.37109375,-0.408854167,1,0,0,instruction_button,,,,,,images/instructions_part2_LSM_taskversion3.jpg,67fab4a0d29e8a31f5e08e9e,001,3,2025-04-15_06h25.19.618,avatar_quest_3AFC_legacy,2022.1.3,Win32,64.1025641,67fab4a0d29e8a31f5e08e9e,67fe37cb3bd870bba73819bd,67fe3a14c1211f3d2e67ccf3,,,,,,,,,,,,,,,,,,,,,,,,,,,,,,0,0,0,0,1,,,,,,,,,,,,,,,,,,,,,,,,,,,,,,,,,,,,,,,,,,,
,,,,,,,,,,,,67fab4a0d29e8a31f5e08e9e,001,3,2025-04-15_06h25.19.618,avatar_quest_3AFC_legacy,2022.1.3,Win32,64.1025641,67fab4a0d29e8a31f5e08e9e,67fe37cb3bd870bba73819bd,67fe3a14c1211f3d2e67ccf3,,,,,,,,,,,,,,,,,,,,,,With Brainslug No Barriers No Money,0,images/assets/snowy_original.jpg,learning,10,images/assets/success.jpg,images/assets/gameover.jpg,,,,,,,,With Brainslug Difficult 2 With Money,With Brainslug Difficult 1 No Money,right,2.5499,"[""With Brainslug Difficult 1 No Money"",""With Brainslug Difficult 2 No Money""]",0,0,0,5,1,,,,,,,,,,,,,,,,,,,,,,,,,,,,,,,,
,,,,,,,,,,,,67fab4a0d29e8a31f5e08e9e,001,3,2025-04-15_06h25.19.618,avatar_quest_3AFC_legacy,2022.1.3,Win32,64.1025641,67fab4a0d29e8a31f5e08e9e,67fe37cb3bd870bba73819bd,67fe3a14c1211f3d2e67ccf3,,,,,,,,,,,,,,,,,,,,,,With Brainslug Difficult 1 No Money,6,images/assets/snowy_original.jpg,learning,20,images/assets/success.jpg,images/assets/gameover.jpg,,,,,,,,,,,,,0,1,1,1,1,,,,,,,,,,,,,,,,,,,,,,,,,,,,,,,,
,,,,,,,,,,,,67fab4a0d29e8a31f5e08e9e,001,3,2025-04-15_06h25.19.618,avatar_quest_3AFC_legacy,2022.1.3,Win32,64.1025641,67fab4a0d29e8a31f5e08e9e,67fe37cb3bd870bba73819bd,67fe3a14c1211f3d2e67ccf3,,,,,,,,,,,,,,,,,,,,,,No Brainslug Difficult 2 With Money,12,images/assets/snowy_money.jpg,learning,20,images/assets/success_money.jpg,images/assets/gameover.jpg,,,,,,,,,,,,,0,2,2,7,1,,,,,,,,,,,,,,,,,,,,,,,,,,,,,,,,
,,,,,,,,,,,,67fab4a0d29e8a31f5e08e9e,001,3,2025-04-15_06h25.19.618,avatar_quest_3AFC_legacy,2022.1.3,Win32,64.1025641,67fab4a0d29e8a31f5e08e9e,67fe37cb3bd870bba73819bd,67fe3a14c1211f3d2e67ccf3,,,,,,,,,,,,,,,,,,,,,,With Brainslug Difficult 1 With Money,6,images/assets/snowy_money.jpg,learning,20,images/assets/success_money.jpg,images/assets/gameover.jpg,,,,,,,,,,,,,0,3,3,0,1,,,,,,,,,,,,,,,,,,,,,,,,,,,,,,,,
,,,,,,,,,,,,67fab4a0d29e8a31f5e08e9e,001,3,2025-04-15_06h25.19.618,avatar_quest_3AFC_legacy,2022.1.3,Win32,64.1025641,67fab4a0d29e8a31f5e08e9e,67fe37cb3bd870bba73819bd,67fe3a14c1211f3d2e67ccf3,"[""right"",""right"",""right"",""right"",""right"",""left"",""left"",""left"",""right"",""right"",""right"",""right"",""right"",""right"",""up"",""right"",""left"",""right"",""right"",""left"",""right"",""right"",""left"",""left"",""right"",""right"",""right"",""right"",""right"",""left"",""right"",""right"",""left"",""left"",""right"",""left""]","[0.8961999999879708,1.4229000000357246,1.7761000000238027,2.6544000000357073,3.001699999987977,3.174199999987991,3.524800000011851,3.882400000035659,3.882800000011912,4.231199999988007,4.406999999999925,4.5823000000118554,4.930100000023799,5.462199999988002,5.636400000035678,6.157499999999914,7.030199999987985,7.204600000023788,7.388800000011884,7.56149999999991,7.736499999999978,8.086199999988025,8.086600000023736,8.615199999988022,8.961999999999989,9.313100000023837,9.659800000011842,9.832800000011844,10.005900000035695,10.362699999987967,10.539600000023825,10.713300000011827,10.88980000001186,11.066199999988044,11.066699999988032,11.421600000023773]",,calibration,With Brainslug Difficult 2 With Money,4,11.63215,11.6792,9,2,0,FALSE,na,na,na,na,,,,,,,,,,,,,,,,,,,,,,,,,,,,,,,,,,0,0,0,0,1,,,,,,,,,,,,,,,,,,,,,,,
,,,,,,,,,,,,67fab4a0d29e8a31f5e08e9e,001,3,2025-04-15_06h25.19.618,avatar_quest_3AFC_legacy,2022.1.3,Win32,64.1025641,67fab4a0d29e8a31f5e08e9e,67fe37cb3bd870bba73819bd,67fe3a14c1211f3d2e67ccf3,,,,,,,,,,,,,,,,,,,,,,With Brainslug Difficult 2 With Money,12,images/assets/snowy_money.jpg,learning,20,images/assets/success_money.jpg,images/assets/gameover.jpg,,,,,,,,,,,,,0,4,4,2,1,,,,,,,,,,,,,,,,,,,,,,,,,,,,,,,,
,,,,,,,,,,,,67fab4a0d29e8a31f5e08e9e,001,3,2025-04-15_06h25.19.618,avatar_quest_3AFC_legacy,2022.1.3,Win32,64.1025641,67fab4a0d29e8a31f5e08e9e,67fe37cb3bd870bba73819bd,67fe3a14c1211f3d2e67ccf3,,,,,,,,,,,,,,,,,,,,,,No Brainslug Difficult 1 No Money,6,images/assets/snowy_original.jpg,learning,20,images/assets/success.jpg,images/assets/gameover.jpg,,,,,,,,,,,,,0,5,5,6,1,,,,,,,,,,,,,,,,,,,,,,,,,,,,,,,,
,,,,,,,,,,,,67fab4a0d29e8a31f5e08e9e,001,3,2025-04-15_06h25.19.618,avatar_quest_3AFC_legacy,2022.1.3,Win32,64.1025641,67fab4a0d29e8a31f5e08e9e,67fe37cb3bd870bba73819bd,67fe3a14c1211f3d2e67ccf3,,,,,,,,,,,,,,,,,,,,,,With Brainslug No Barriers With Money,0,images/assets/snowy_money.jpg,learning,10,images/assets/success_money.jpg,images/assets/gameover.jpg,,,,,,,,,,,,,0,6,6,4,1,,,,,,,,,,,,,,,,,,,,,,,,,,,,,,,,
,,,,,,,,,,,,67fab4a0d29e8a31f5e08e9e,001,3,2025-04-15_06h25.19.618,avatar_quest_3AFC_legacy,2022.1.3,Win32,64.1025641,67fab4a0d29e8a31f5e08e9e,67fe37cb3bd870bba73819bd,67fe3a14c1211f3d2e67ccf3,,,,,,,,,,,,,,,,,,,,,,No Brainslug Difficult 2 No Money,12,images/assets/snowy_original.jpg,learning,20,images/assets/success.jpg,images/assets/gameover.jpg,,,,,,,,,,,,,0,7,7,8,1,,,,,,,,,,,,,,,,,,,,,,,,,,,,,,,,
,,,,,,,,,,,,67fab4a0d29e8a31f5e08e9e,001,3,2025-04-15_06h25.19.618,avatar_quest_3AFC_legacy,2022.1.3,Win32,64.1025641,67fab4a0d29e8a31f5e08e9e,67fe37cb3bd870bba73819bd,67fe3a14c1211f3d2e67ccf3,,,,,,,,,,,,,,,,,,,,,,No Brainslug No Barriers No Money,0,images/assets/snowy_original.jpg,learning,10,images/assets/success.jpg,images/assets/gameover.jpg,,,,,,,,,,,,,0,8,8,10,1,,,,,,,,,,,,,,,,,,,,,,,,,,,,,,,,
,,,,,,,,,,,,67fab4a0d29e8a31f5e08e9e,001,3,2025-04-15_06h25.19.618,avatar_quest_3AFC_legacy,2022.1.3,Win32,64.1025641,67fab4a0d29e8a31f5e08e9e,67fe37cb3bd870bba73819bd,67fe3a14c1211f3d2e67ccf3,,,,,,,,,,,,,,,,,,,,,,With Brainslug Difficult 2 No Money,12,images/assets/snowy_original.jpg,learning,20,images/assets/success.jpg,images/assets/gameover.jpg,,,,,,,,,,,,,0,9,9,3,1,,,,,,,,,,,,,,,,,,,,,,,,,,,,,,,,
,,,,,,,,,,,,67fab4a0d29e8a31f5e08e9e,001,3,2025-04-15_06h25.19.618,avatar_quest_3AFC_legacy,2022.1.3,Win32,64.1025641,67fab4a0d29e8a31f5e08e9e,67fe37cb3bd870bba73819bd,67fe3a14c1211f3d2e67ccf3,,,,,,,,,,,,,,,,,,,,,,No Brainslug No Barriers With Money,0,images/assets/snowy_money.jpg,learning,10,images/assets/success_money.jpg,images/assets/gameover.jpg,,,,,,,,,,,,,0,10,10,9,1,,,,,,,,,,,,,,,,,,,,,,,,,,,,,,,,
,,,,,,,,,,,,67fab4a0d29e8a31f5e08e9e,001,3,2025-04-15_06h25.19.618,avatar_quest_3AFC_legacy,2022.1.3,Win32,64.1025641,67fab4a0d29e8a31f5e08e9e,67fe37cb3bd870bba73819bd,67fe3a14c1211f3d2e67ccf3,,,,,,,,,,,,,,,,,,,,,,,,,,,,,,,,,,,,,,,,,,,,,,,,,,,,,,,0,0,0,0,1,,,,,,,,,,,,,,,,,,
,,,,,,,,,,,,67fab4a0d29e8a31f5e08e9e,001,3,2025-04-15_06h25.19.618,avatar_quest_3AFC_legacy,2022.1.3,Win32,64.1025641,67fab4a0d29e8a31f5e08e9e,67fe37cb3bd870bba73819bd,67fe3a14c1211f3d2e67ccf3,,,,,,,,,,,,,,,,,,,,,,With Brainslug Difficult 2 No Money,12,images/assets/snowy_original.jpg,learning,20,images/assets/success.jpg,images/assets/gameover.jpg,,,,,,,,With Brainslug Difficult 2 With Money,With Brainslug Difficult 1 No Money,right,0.0517,"[""With Brainslug Difficult 1 No Money"",""With Brainslug Difficult 2 No Money""]",0,0,0,3,1,,,,,,,,,,,,,,,,,,,,,,,,,,,,,,,,
,,,,,,,,,,,,67fab4a0d29e8a31f5e08e9e,001,3,2025-04-15_06h25.19.618,avatar_quest_3AFC_legacy,2022.1.3,Win32,64.1025641,67fab4a0d29e8a31f5e08e9e,67fe37cb3bd870bba73819bd,67fe3a14c1211f3d2e67ccf3,,,,,,,,,,,,,,,,,,,,,,With Brainslug Difficult 1 No Money,6,images/assets/snowy_original.jpg,learning,20,images/assets/success.jpg,images/assets/gameover.jpg,,,,,,,,,,,,,0,1,1,1,1,,,,,,,,,,,,,,,,,,,,,,,,,,,,,,,,
,,,,,,,,,,,,67fab4a0d29e8a31f5e08e9e,001,3,2025-04-15_06h25.19.618,avatar_quest_3AFC_legacy,2022.1.3,Win32,64.1025641,67fab4a0d29e8a31f5e08e9e,67fe37cb3bd870bba73819bd,67fe3a14c1211f3d2e67ccf3,,,,,,,,,,,,,,,,,,,,,,No Brainslug Difficult 2 With Money,12,images/assets/snowy_money.jpg,learning,20,images/assets/success_money.jpg,images/assets/gameover.jpg,,,,,,,,,,,,,0,2,2,7,1,,,,,,,,,,,,,,,,,,,,,,,,,,,,,,,,
,,,,,,,,,,,,67fab4a0d29e8a31f5e08e9e,001,3,2025-04-15_06h25.19.618,avatar_quest_3AFC_legacy,2022.1.3,Win32,64.1025641,67fab4a0d29e8a31f5e08e9e,67fe37cb3bd870bba73819bd,67fe3a14c1211f3d2e67ccf3,,,,,,,,,,,,,,,,,,,,,,With Brainslug No Barriers No Money,0,images/assets/snowy_original.jpg,learning,10,images/assets/success.jpg,images/assets/gameover.jpg,,,,,,,,,,,,,0,3,3,5,1,,,,,,,,,,,,,,,,,,,,,,,,,,,,,,,,
,,,,,,,,,,,,67fab4a0d29e8a31f5e08e9e,001,3,2025-04-15_06h25.19.618,avatar_quest_3AFC_legacy,2022.1.3,Win32,64.1025641,67fab4a0d29e8a31f5e08e9e,67fe37cb3bd870bba73819bd,67fe3a14c1211f3d2e67ccf3,,,,,,,,,,,,,,,,,,,,,,No Brainslug No Barriers With Money,0,images/assets/snowy_money.jpg,learning,10,images/assets/success_money.jpg,images/assets/gameover.jpg,,,,,,,,,,,,,0,4,4,9,1,,,,,,,,,,,,,,,,,,,,,,,,,,,,,,,,
,,,,,,,,,,,,67fab4a0d29e8a31f5e08e9e,001,3,2025-04-15_06h25.19.618,avatar_quest_3AFC_legacy,2022.1.3,Win32,64.1025641,67fab4a0d29e8a31f5e08e9e,67fe37cb3bd870bba73819bd,67fe3a14c1211f3d2e67ccf3,,,,,,,,,,,,,,,,,,,,,,With Brainslug Difficult 1 With Money,6,images/assets/snowy_money.jpg,learning,20,images/assets/success_money.jpg,images/assets/gameover.jpg,,,,,,,,,,,,,0,5,5,0,1,,,,,,,,,,,,,,,,,,,,,,,,,,,,,,,,
,,,,,,,,,,,,67fab4a0d29e8a31f5e08e9e,001,3,2025-04-15_06h25.19.618,avatar_quest_3AFC_legacy,2022.1.3,Win32,64.1025641,67fab4a0d29e8a31f5e08e9e,67fe37cb3bd870bba73819bd,67fe3a14c1211f3d2e67ccf3,,,,,,,,,,,,,,,,,,,,,,With Brainslug No Barriers With Money,0,images/assets/snowy_money.jpg,learning,10,images/assets/success_money.jpg,images/assets/gameover.jpg,,,,,,,,,,,,,0,6,6,4,1,,,,,,,,,,,,,,,,,,,,,,,,,,,,,,,,
,,,,,,,,,,,,67fab4a0d29e8a31f5e08e9e,001,3,2025-04-15_06h25.19.618,avatar_quest_3AFC_legacy,2022.1.3,Win32,64.1025641,67fab4a0d29e8a31f5e08e9e,67fe37cb3bd870bba73819bd,67fe3a14c1211f3d2e67ccf3,,,,,,,,,,,,,,,,,,,,,,No Brainslug Difficult 1 No Money,6,images/assets/snowy_original.jpg,learning,20,images/assets/success.jpg,images/assets/gameover.jpg,,,,,,,,,,,,,0,7,7,6,1,,,,,,,,,,,,,,,,,,,,,,,,,,,,,,,,
,,,,,,,,,,,,67fab4a0d29e8a31f5e08e9e,001,3,2025-04-15_06h25.19.618,avatar_quest_3AFC_legacy,2022.1.3,Win32,64.1025641,67fab4a0d29e8a31f5e08e9e,67fe37cb3bd870bba73819bd,67fe3a14c1211f3d2e67ccf3,,,,,,,,,,,,,,,,,,,,,,No Brainslug No Barriers No Money,0,images/assets/snowy_original.jpg,learning,10,images/assets/success.jpg,images/assets/gameover.jpg,,,,,,,,,,,,,0,8,8,10,1,,,,,,,,,,,,,,,,,,,,,,,,,,,,,,,,
,,,,,,,,,,,,67fab4a0d29e8a31f5e08e9e,001,3,2025-04-15_06h25.19.618,avatar_quest_3AFC_legacy,2022.1.3,Win32,64.1025641,67fab4a0d29e8a31f5e08e9e,67fe37cb3bd870bba73819bd,67fe3a14c1211f3d2e67ccf3,"[""right"",""left"",""left"",""right"",""right"",""left"",""right"",""right"",""left"",""left"",""right"",""left"",""right"",""right"",""right"",""right"",""right"",""left"",""left"",""left"",""left"",""left"",""right"",""right"",""right"",""left"",""right"",""right"",""right"",""right"",""right"",""right"",""left"",""left"",""left"",""right"",""right"",""right"",""left"",""right"",""right""]","[0.710200000047621,0.7104999999999109,1.0599000000357819,1.06040000003577,1.4163000000119155,1.4168000000119036,1.5924000000356955,1.7703000000118436,1.7708000000118318,2.118900000035751,2.1184999999999263,2.295900000035772,2.6443000000118673,3.1688000000118564,3.3461000000238528,3.531900000035762,3.704600000023788,3.8795000000000073,4.429499999999962,4.783500000000004,4.960700000047609,5.137100000023793,5.842700000047671,6.190999999999917,6.367400000035673,6.542200000047615,6.717600000023822,7.425200000047653,7.784400000035703,8.131700000047658,8.307300000011878,8.481600000023832,8.654600000023834,9.00080000001185,9.53540000003568,9.886999999999944,10.234499999999912,10.406700000047636,10.760700000047677,11.11280000001193,11.50260000002379]",,calibration,With Brainslug Difficult 2 With Money,5,11.63215,11.6804,18,5,0,FALSE,na,na,na,na,,,,,,,,,,,,,,,,,,,,,,,,,,,,,,,,,,0,0,0,0,1,,,,,,,,,,,,,,,,,,,,,,,
,,,,,,,,,,,,67fab4a0d29e8a31f5e08e9e,001,3,2025-04-15_06h25.19.618,avatar_quest_3AFC_legacy,2022.1.3,Win32,64.1025641,67fab4a0d29e8a31f5e08e9e,67fe37cb3bd870bba73819bd,67fe3a14c1211f3d2e67ccf3,,,,,,,,,,,,,,,,,,,,,,With Brainslug Difficult 2 With Money,12,images/assets/snowy_money.jpg,learning,20,images/assets/success_money.jpg,images/assets/gameover.jpg,,,,,,,,,,,,,0,9,9,2,1,,,,,,,,,,,,,,,,,,,,,,,,,,,,,,,,
,,,,,,,,,,,,67fab4a0d29e8a31f5e08e9e,001,3,2025-04-15_06h25.19.618,avatar_quest_3AFC_legacy,2022.1.3,Win32,64.1025641,67fab4a0d29e8a31f5e08e9e,67fe37cb3bd870bba73819bd,67fe3a14c1211f3d2e67ccf3,,,,,,,,,,,,,,,,,,,,,,No Brainslug Difficult 2 No Money,12,images/assets/snowy_original.jpg,learning,20,images/assets/success.jpg,images/assets/gameover.jpg,,,,,,,,,,,,,0,10,10,8,1,,,,,,,,,,,,,,,,,,,,,,,,,,,,,,,,
,,,,,,,,,,,,67fab4a0d29e8a31f5e08e9e,001,3,2025-04-15_06h25.19.618,avatar_quest_3AFC_legacy,2022.1.3,Win32,64.1025641,67fab4a0d29e8a31f5e08e9e,67fe37cb3bd870bba73819bd,67fe3a14c1211f3d2e67ccf3,,,,,,,,,,,,,,,,,,,,,,,,,,,,,,,,,,,,,,,,,,,,,,,,,,,,,,,1,0,1,0,1,,,,,,,,,,,,,,,,,,
,,,,,,,,,,,,67fab4a0d29e8a31f5e08e9e,001,3,2025-04-15_06h25.19.618,avatar_quest_3AFC_legacy,2022.1.3,Win32,64.1025641,67fab4a0d29e8a31f5e08e9e,67fe37cb3bd870bba73819bd,67fe3a14c1211f3d2e67ccf3,,,,,,,,,,,,,,,,,,,,,,No Brainslug Difficult 1 No Money,6,images/assets/snowy_original.jpg,learning,20,images/assets/success.jpg,images/assets/gameover.jpg,,,,,,,,With Brainslug Difficult 2 With Money,With Brainslug Difficult 1 No Money,right,0.0117,"[""With Brainslug Difficult 1 No Money"",""With Brainslug Difficult 2 No Money""]",0,0,0,6,1,,,,,,,,,,,,,,,,,,,,,,,,,,,,,,,,
,,,,,,,,,,,,67fab4a0d29e8a31f5e08e9e,001,3,2025-04-15_06h25.19.618,avatar_quest_3AFC_legacy,2022.1.3,Win32,64.1025641,67fab4a0d29e8a31f5e08e9e,67fe37cb3bd870bba73819bd,67fe3a14c1211f3d2e67ccf3,"[""right"",""right"",""right"",""right"",""right"",""right"",""left"",""left"",""left"",""right"",""right"",""right"",""left"",""left"",""left"",""left"",""left"",""right"",""left"",""right"",""right"",""right"",""left"",""right"",""right"",""left""]","[0.91130000001192,1.0885999999642308,1.2708000000119455,1.6233999999761863,1.97849999999994,2.1564999999999372,2.5083999999761772,3.045399999976098,3.4044999999999845,3.7768000000119173,4.156099999964226,4.519199999988018,4.519599999964271,4.877499999999941,5.243499999999926,5.607899999976098,6.332099999964271,6.8659999999999854,7.616199999988112,8.364800000011883,9.097599999964245,9.814199999988091,9.990000000000009,10.186800000011885,10.364099999964196,11.071399999976165]",,calibration,With Brainslug Difficult 2 With Money,6,11.63215,11.6524,3,2,0,FALSE,na,na,na,na,,,,,,,,,,,,,,,,,,,,,,,,,,,,,,,,,,0,0,0,0,1,,,,,,,,,,,,,,,,,,,,,,,
,,,,,,,,,,,,67fab4a0d29e8a31f5e08e9e,001,3,2025-04-15_06h25.19.618,avatar_quest_3AFC_legacy,2022.1.3,Win32,64.1025641,67fab4a0d29e8a31f5e08e9e,67fe37cb3bd870bba73819bd,67fe3a14c1211f3d2e67ccf3,,,,,,,,,,,,,,,,,,,,,,With Brainslug Difficult 2 With Money,12,images/assets/snowy_money.jpg,learning,20,images/assets/success_money.jpg,images/assets/gameover.jpg,,,,,,,,,,,,,0,1,1,2,1,,,,,,,,,,,,,,,,,,,,,,,,,,,,,,,,
,,,,,,,,,,,,67fab4a0d29e8a31f5e08e9e,001,3,2025-04-15_06h25.19.618,avatar_quest_3AFC_legacy,2022.1.3,Win32,64.1025641,67fab4a0d29e8a31f5e08e9e,67fe37cb3bd870bba73819bd,67fe3a14c1211f3d2e67ccf3,,,,,,,,,,,,,,,,,,,,,,With Brainslug No Barriers No Money,0,images/assets/snowy_original.jpg,learning,10,images/assets/success.jpg,images/assets/gameover.jpg,,,,,,,,,,,,,0,2,2,5,1,,,,,,,,,,,,,,,,,,,,,,,,,,,,,,,,
,,,,,,,,,,,,67fab4a0d29e8a31f5e08e9e,001,3,2025-04-15_06h25.19.618,avatar_quest_3AFC_legacy,2022.1.3,Win32,64.1025641,67fab4a0d29e8a31f5e08e9e,67fe37cb3bd870bba73819bd,67fe3a14c1211f3d2e67ccf3,,,,,,,,,,,,,,,,,,,,,,With Brainslug Difficult 1 No Money,6,images/assets/snowy_original.jpg,learning,20,images/assets/success.jpg,images/assets/gameover.jpg,,,,,,,,,,,,,0,3,3,1,1,,,,,,,,,,,,,,,,,,,,,,,,,,,,,,,,
,,,,,,,,,,,,67fab4a0d29e8a31f5e08e9e,001,3,2025-04-15_06h25.19.618,avatar_quest_3AFC_legacy,2022.1.3,Win32,64.1025641,67fab4a0d29e8a31f5e08e9e,67fe37cb3bd870bba73819bd,67fe3a14c1211f3d2e67ccf3,,,,,,,,,,,,,,,,,,,,,,With Brainslug Difficult 1 With Money,6,images/assets/snowy_money.jpg,learning,20,images/assets/success_money.jpg,images/assets/gameover.jpg,,,,,,,,,,,,,0,4,4,0,1,,,,,,,,,,,,,,,,,,,,,,,,,,,,,,,,
,,,,,,,,,,,,67fab4a0d29e8a31f5e08e9e,001,3,2025-04-15_06h25.19.618,avatar_quest_3AFC_legacy,2022.1.3,Win32,64.1025641,67fab4a0d29e8a31f5e08e9e,67fe37cb3bd870bba73819bd,67fe3a14c1211f3d2e67ccf3,,,,,,,,,,,,,,,,,,,,,,With Brainslug Difficult 2 No Money,12,images/assets/snowy_original.jpg,learning,20,images/assets/success.jpg,images/assets/gameover.jpg,,,,,,,,,,,,,0,5,5,3,1,,,,,,,,,,,,,,,,,,,,,,,,,,,,,,,,
,,,,,,,,,,,,67fab4a0d29e8a31f5e08e9e,001,3,2025-04-15_06h25.19.618,avatar_quest_3AFC_legacy,2022.1.3,Win32,64.1025641,67fab4a0d29e8a31f5e08e9e,67fe37cb3bd870bba73819bd,67fe3a14c1211f3d2e67ccf3,,,,,,,,,,,,,,,,,,,,,,With Brainslug No Barriers With Money,0,images/assets/snowy_money.jpg,learning,10,images/assets/success_money.jpg,images/assets/gameover.jpg,,,,,,,,,,,,,0,6,6,4,1,,,,,,,,,,,,,,,,,,,,,,,,,,,,,,,,
,,,,,,,,,,,,67fab4a0d29e8a31f5e08e9e,001,3,2025-04-15_06h25.19.618,avatar_quest_3AFC_legacy,2022.1.3,Win32,64.1025641,67fab4a0d29e8a31f5e08e9e,67fe37cb3bd870bba73819bd,67fe3a14c1211f3d2e67ccf3,,,,,,,,,,,,,,,,,,,,,,No Brainslug No Barriers No Money,0,images/assets/snowy_original.jpg,learning,10,images/assets/success.jpg,images/assets/gameover.jpg,,,,,,,,,,,,,0,7,7,10,1,,,,,,,,,,,,,,,,,,,,,,,,,,,,,,,,
,,,,,,,,,,,,67fab4a0d29e8a31f5e08e9e,001,3,2025-04-15_06h25.19.618,avatar_quest_3AFC_legacy,2022.1.3,Win32,64.1025641,67fab4a0d29e8a31f5e08e9e,67fe37cb3bd870bba73819bd,67fe3a14c1211f3d2e67ccf3,,,,,,,,,,,,,,,,,,,,,,No Brainslug No Barriers With Money,0,images/assets/snowy_money.jpg,learning,10,images/assets/success_money.jpg,images/assets/gameover.jpg,,,,,,,,,,,,,0,8,8,9,1,,,,,,,,,,,,,,,,,,,,,,,,,,,,,,,,
,,,,,,,,,,,,67fab4a0d29e8a31f5e08e9e,001,3,2025-04-15_06h25.19.618,avatar_quest_3AFC_legacy,2022.1.3,Win32,64.1025641,67fab4a0d29e8a31f5e08e9e,67fe37cb3bd870bba73819bd,67fe3a14c1211f3d2e67ccf3,,,,,,,,,,,,,,,,,,,,,,No Brainslug Difficult 2 No Money,12,images/assets/snowy_original.jpg,learning,20,images/assets/success.jpg,images/assets/gameover.jpg,,,,,,,,,,,,,0,9,9,8,1,,,,,,,,,,,,,,,,,,,,,,,,,,,,,,,,
,,,,,,,,,,,,67fab4a0d29e8a31f5e08e9e,001,3,2025-04-15_06h25.19.618,avatar_quest_3AFC_legacy,2022.1.3,Win32,64.1025641,67fab4a0d29e8a31f5e08e9e,67fe37cb3bd870bba73819bd,67fe3a14c1211f3d2e67ccf3,,,,,,,,,,,,,,,,,,,,,,No Brainslug Difficult 2 With Money,12,images/assets/snowy_money.jpg,learning,20,images/assets/success_money.jpg,images/assets/gameover.jpg,,,,,,,,,,,,,0,10,10,7,1,,,,,,,,,,,,,,,,,,,,,,,,,,,,,,,,
,,,,,,,,,,,,67fab4a0d29e8a31f5e08e9e,001,3,2025-04-15_06h25.19.618,avatar_quest_3AFC_legacy,2022.1.3,Win32,64.1025641,67fab4a0d29e8a31f5e08e9e,67fe37cb3bd870bba73819bd,67fe3a14c1211f3d2e67ccf3,,,,,,,,,,,,,,,,,,,,,,,,,,,,,,,,,,,,,,,,,,,,,,,,,,,,,,,2,0,2,0,1,,,,,,,,,,,,,,,,,,
,,,,,,,,,,,,67fab4a0d29e8a31f5e08e9e,001,3,2025-04-15_06h25.19.618,avatar_quest_3AFC_legacy,2022.1.3,Win32,64.1025641,67fab4a0d29e8a31f5e08e9e,67fe37cb3bd870bba73819bd,67fe3a14c1211f3d2e67ccf3,,,,,,,,,,,,,,,,,,,,,,No Brainslug Difficult 1 No Money,6,images/assets/snowy_original.jpg,learning,20,images/assets/success.jpg,images/assets/gameover.jpg,,,,,,,,With Brainslug Difficult 1 No Money,With Brainslug Difficult 1 No Money,left,15.704,"[""With Brainslug Difficult 2 No Money"",""With Brainslug Difficult 2 With Money""]",0,0,0,6,1,,,,,,,,,,,,,,,,,,,,,,,,,,,,,,,,
,,,,,,,,,,,,67fab4a0d29e8a31f5e08e9e,001,3,2025-04-15_06h25.19.618,avatar_quest_3AFC_legacy,2022.1.3,Win32,64.1025641,67fab4a0d29e8a31f5e08e9e,67fe37cb3bd870bba73819bd,67fe3a14c1211f3d2e67ccf3,,,,,,,,,,,,,,,,,,,,,,With Brainslug Difficult 1 With Money,6,images/assets/snowy_money.jpg,learning,20,images/assets/success_money.jpg,images/assets/gameover.jpg,,,,,,,,,,,,,0,1,1,0,1,,,,,,,,,,,,,,,,,,,,,,,,,,,,,,,,
,,,,,,,,,,,,67fab4a0d29e8a31f5e08e9e,001,3,2025-04-15_06h25.19.618,avatar_quest_3AFC_legacy,2022.1.3,Win32,64.1025641,67fab4a0d29e8a31f5e08e9e,67fe37cb3bd870bba73819bd,67fe3a14c1211f3d2e67ccf3,,,,,,,,,,,,,,,,,,,,,,No Brainslug Difficult 2 No Money,12,images/assets/snowy_original.jpg,learning,20,images/assets/success.jpg,images/assets/gameover.jpg,,,,,,,,,,,,,0,2,2,8,1,,,,,,,,,,,,,,,,,,,,,,,,,,,,,,,,
,,,,,,,,,,,,67fab4a0d29e8a31f5e08e9e,001,3,2025-04-15_06h25.19.618,avatar_quest_3AFC_legacy,2022.1.3,Win32,64.1025641,67fab4a0d29e8a31f5e08e9e,67fe37cb3bd870bba73819bd,67fe3a14c1211f3d2e67ccf3,"[""left"",""left"",""left"",""right"",""left""]","[1.9498999999761963,2.299899999976219,2.822499999999991,9.76410000002386,11.143100000023878]",,calibration,With Brainslug Difficult 1 No Money,7,11.63215,11.7399,2,3,0,FALSE,na,na,na,na,,,,,,,,,,,,,,,,,,,,,,,,,,,,,,,,,,0,0,0,0,1,,,,,,,,,,,,,,,,,,,,,,,
,,,,,,,,,,,,67fab4a0d29e8a31f5e08e9e,001,3,2025-04-15_06h25.19.618,avatar_quest_3AFC_legacy,2022.1.3,Win32,64.1025641,67fab4a0d29e8a31f5e08e9e,67fe37cb3bd870bba73819bd,67fe3a14c1211f3d2e67ccf3,,,,,,,,,,,,,,,,,,,,,,With Brainslug Difficult 1 No Money,6,images/assets/snowy_original.jpg,learning,20,images/assets/success.jpg,images/assets/gameover.jpg,,,,,,,,,,,,,0,3,3,1,1,,,,,,,,,,,,,,,,,,,,,,,,,,,,,,,,
,,,,,,,,,,,,67fab4a0d29e8a31f5e08e9e,001,3,2025-04-15_06h25.19.618,avatar_quest_3AFC_legacy,2022.1.3,Win32,64.1025641,67fab4a0d29e8a31f5e08e9e,67fe37cb3bd870bba73819bd,67fe3a14c1211f3d2e67ccf3,,,,,,,,,,,,,,,,,,,,,,No Brainslug Difficult 2 With Money,12,images/assets/snowy_money.jpg,learning,20,images/assets/success_money.jpg,images/assets/gameover.jpg,,,,,,,,,,,,,0,4,4,7,1,,,,,,,,,,,,,,,,,,,,,,,,,,,,,,,,
,,,,,,,,,,,,67fab4a0d29e8a31f5e08e9e,001,3,2025-04-15_06h25.19.618,avatar_quest_3AFC_legacy,2022.1.3,Win32,64.1025641,67fab4a0d29e8a31f5e08e9e,67fe37cb3bd870bba73819bd,67fe3a14c1211f3d2e67ccf3,,,,,,,,,,,,,,,,,,,,,,No Brainslug No Barriers No Money,0,images/assets/snowy_original.jpg,learning,10,images/assets/success.jpg,images/assets/gameover.jpg,,,,,,,,,,,,,0,5,5,10,1,,,,,,,,,,,,,,,,,,,,,,,,,,,,,,,,
,,,,,,,,,,,,67fab4a0d29e8a31f5e08e9e,001,3,2025-04-15_06h25.19.618,avatar_quest_3AFC_legacy,2022.1.3,Win32,64.1025641,67fab4a0d29e8a31f5e08e9e,67fe37cb3bd870bba73819bd,67fe3a14c1211f3d2e67ccf3,,,,,,,,,,,,,,,,,,,,,,With Brainslug No Barriers With Money,0,images/assets/snowy_money.jpg,learning,10,images/assets/success_money.jpg,images/assets/gameover.jpg,,,,,,,,,,,,,0,6,6,4,1,,,,,,,,,,,,,,,,,,,,,,,,,,,,,,,,
,,,,,,,,,,,,67fab4a0d29e8a31f5e08e9e,001,3,2025-04-15_06h25.19.618,avatar_quest_3AFC_legacy,2022.1.3,Win32,64.1025641,67fab4a0d29e8a31f5e08e9e,67fe37cb3bd870bba73819bd,67fe3a14c1211f3d2e67ccf3,,,,,,,,,,,,,,,,,,,,,,With Brainslug Difficult 2 No Money,12,images/assets/snowy_original.jpg,learning,20,images/assets/success.jpg,images/assets/gameover.jpg,,,,,,,,,,,,,0,7,7,3,1,,,,,,,,,,,,,,,,,,,,,,,,,,,,,,,,
,,,,,,,,,,,,67fab4a0d29e8a31f5e08e9e,001,3,2025-04-15_06h25.19.618,avatar_quest_3AFC_legacy,2022.1.3,Win32,64.1025641,67fab4a0d29e8a31f5e08e9e,67fe37cb3bd870bba73819bd,67fe3a14c1211f3d2e67ccf3,,,,,,,,,,,,,,,,,,,,,,No Brainslug No Barriers With Money,0,images/assets/snowy_money.jpg,learning,10,images/assets/success_money.jpg,images/assets/gameover.jpg,,,,,,,,,,,,,0,8,8,9,1,,,,,,,,,,,,,,,,,,,,,,,,,,,,,,,,
,,,,,,,,,,,,67fab4a0d29e8a31f5e08e9e,001,3,2025-04-15_06h25.19.618,avatar_quest_3AFC_legacy,2022.1.3,Win32,64.1025641,67fab4a0d29e8a31f5e08e9e,67fe37cb3bd870bba73819bd,67fe3a14c1211f3d2e67ccf3,,,,,,,,,,,,,,,,,,,,,,With Brainslug No Barriers No Money,0,images/assets/snowy_original.jpg,learning,10,images/assets/success.jpg,images/assets/gameover.jpg,,,,,,,,,,,,,0,9,9,5,1,,,,,,,,,,,,,,,,,,,,,,,,,,,,,,,,
,,,,,,,,,,,,67fab4a0d29e8a31f5e08e9e,001,3,2025-04-15_06h25.19.618,avatar_quest_3AFC_legacy,2022.1.3,Win32,64.1025641,67fab4a0d29e8a31f5e08e9e,67fe37cb3bd870bba73819bd,67fe3a14c1211f3d2e67ccf3,,,,,,,,,,,,,,,,,,,,,,With Brainslug Difficult 2 With Money,12,images/assets/snowy_money.jpg,learning,20,images/assets/success_money.jpg,images/assets/gameover.jpg,,,,,,,,,,,,,0,10,10,2,1,,,,,,,,,,,,,,,,,,,,,,,,,,,,,,,,
,,,,,,,,,,,,67fab4a0d29e8a31f5e08e9e,001,3,2025-04-15_06h25.19.618,avatar_quest_3AFC_legacy,2022.1.3,Win32,64.1025641,67fab4a0d29e8a31f5e08e9e,67fe37cb3bd870bba73819bd,67fe3a14c1211f3d2e67ccf3,,,,,,,,,,,,,,,,,,,,,,,,,,,,,,,,,,,,,,,,,,,,,,,,,,,,,,,3,0,3,0,1,,,,,,,,,,,,,,,,,,
,,,,,,,,,,,,67fab4a0d29e8a31f5e08e9e,001,3,2025-04-15_06h25.19.618,avatar_quest_3AFC_legacy,2022.1.3,Win32,64.1025641,67fab4a0d29e8a31f5e08e9e,67fe37cb3bd870bba73819bd,67fe3a14c1211f3d2e67ccf3,,,,,,,,,,,,,,,,,,,,,,With Brainslug Difficult 1 No Money,6,images/assets/snowy_original.jpg,learning,20,images/assets/success.jpg,images/assets/gameover.jpg,,,,,,,,With Brainslug Difficult 2 With Money,With Brainslug Difficult 1 No Money,right,4.8708,"[""With Brainslug Difficult 1 No Money"",""With Brainslug Difficult 2 No Money""]",0,0,0,1,1,,,,,,,,,,,,,,,,,,,,,,,,,,,,,,,,
,,,,,,,,,,,,67fab4a0d29e8a31f5e08e9e,001,3,2025-04-15_06h25.19.618,avatar_quest_3AFC_legacy,2022.1.3,Win32,64.1025641,67fab4a0d29e8a31f5e08e9e,67fe37cb3bd870bba73819bd,67fe3a14c1211f3d2e67ccf3,"[""left"",""right"",""right"",""left"",""left"",""right"",""left"",""right"",""left"",""left"",""right"",""right""]","[3.2370999999642436,5.0185999999642945,6.303999999999974,7.200099999964209,7.5575000000000045,8.283099999964293,8.643300000011891,9.004099999964296,9.357199999988097,10.806399999976179,11.352399999976228,11.535899999976209]",,calibration,With Brainslug Difficult 2 With Money,8,11.63215,11.7884,6,2,0,FALSE,na,na,na,na,,,,,,,,,,,,,,,,,,,,,,,,,,,,,,,,,,0,0,0,0,1,,,,,,,,,,,,,,,,,,,,,,,
,,,,,,,,,,,,67fab4a0d29e8a31f5e08e9e,001,3,2025-04-15_06h25.19.618,avatar_quest_3AFC_legacy,2022.1.3,Win32,64.1025641,67fab4a0d29e8a31f5e08e9e,67fe37cb3bd870bba73819bd,67fe3a14c1211f3d2e67ccf3,,,,,,,,,,,,,,,,,,,,,,With Brainslug Difficult 2 With Money,12,images/assets/snowy_money.jpg,learning,20,images/assets/success_money.jpg,images/assets/gameover.jpg,,,,,,,,,,,,,0,1,1,2,1,,,,,,,,,,,,,,,,,,,,,,,,,,,,,,,,
,,,,,,,,,,,,67fab4a0d29e8a31f5e08e9e,001,3,2025-04-15_06h25.19.618,avatar_quest_3AFC_legacy,2022.1.3,Win32,64.1025641,67fab4a0d29e8a31f5e08e9e,67fe37cb3bd870bba73819bd,67fe3a14c1211f3d2e67ccf3,,,,,,,,,,,,,,,,,,,,,,No Brainslug Difficult 1 No Money,6,images/assets/snowy_original.jpg,learning,20,images/assets/success.jpg,images/assets/gameover.jpg,,,,,,,,,,,,,0,2,2,6,1,,,,,,,,,,,,,,,,,,,,,,,,,,,,,,,,
,,,,,,,,,,,,67fab4a0d29e8a31f5e08e9e,001,3,2025-04-15_06h25.19.618,avatar_quest_3AFC_legacy,2022.1.3,Win32,64.1025641,67fab4a0d29e8a31f5e08e9e,67fe37cb3bd870bba73819bd,67fe3a14c1211f3d2e67ccf3,,,,,,,,,,,,,,,,,,,,,,No Brainslug Difficult 2 No Money,12,images/assets/snowy_original.jpg,learning,20,images/assets/success.jpg,images/assets/gameover.jpg,,,,,,,,,,,,,0,3,3,8,1,,,,,,,,,,,,,,,,,,,,,,,,,,,,,,,,
,,,,,,,,,,,,67fab4a0d29e8a31f5e08e9e,001,3,2025-04-15_06h25.19.618,avatar_quest_3AFC_legacy,2022.1.3,Win32,64.1025641,67fab4a0d29e8a31f5e08e9e,67fe37cb3bd870bba73819bd,67fe3a14c1211f3d2e67ccf3,,,,,,,,,,,,,,,,,,,,,,With Brainslug No Barriers No Money,0,images/assets/snowy_original.jpg,learning,10,images/assets/success.jpg,images/assets/gameover.jpg,,,,,,,,,,,,,0,4,4,5,1,,,,,,,,,,,,,,,,,,,,,,,,,,,,,,,,
,,,,,,,,,,,,67fab4a0d29e8a31f5e08e9e,001,3,2025-04-15_06h25.19.618,avatar_quest_3AFC_legacy,2022.1.3,Win32,64.1025641,67fab4a0d29e8a31f5e08e9e,67fe37cb3bd870bba73819bd,67fe3a14c1211f3d2e67ccf3,,,,,,,,,,,,,,,,,,,,,,With Brainslug Difficult 2 No Money,12,images/assets/snowy_original.jpg,learning,20,images/assets/success.jpg,images/assets/gameover.jpg,,,,,,,,,,,,,0,5,5,3,1,,,,,,,,,,,,,,,,,,,,,,,,,,,,,,,,
,,,,,,,,,,,,67fab4a0d29e8a31f5e08e9e,001,3,2025-04-15_06h25.19.618,avatar_quest_3AFC_legacy,2022.1.3,Win32,64.1025641,67fab4a0d29e8a31f5e08e9e,67fe37cb3bd870bba73819bd,67fe3a14c1211f3d2e67ccf3,,,,,,,,,,,,,,,,,,,,,,With Brainslug Difficult 1 With Money,6,images/assets/snowy_money.jpg,learning,20,images/assets/success_money.jpg,images/assets/gameover.jpg,,,,,,,,,,,,,0,6,6,0,1,,,,,,,,,,,,,,,,,,,,,,,,,,,,,,,,
,,,,,,,,,,,,67fab4a0d29e8a31f5e08e9e,001,3,2025-04-15_06h25.19.618,avatar_quest_3AFC_legacy,2022.1.3,Win32,64.1025641,67fab4a0d29e8a31f5e08e9e,67fe37cb3bd870bba73819bd,67fe3a14c1211f3d2e67ccf3,,,,,,,,,,,,,,,,,,,,,,No Brainslug No Barriers No Money,0,images/assets/snowy_original.jpg,learning,10,images/assets/success.jpg,images/assets/gameover.jpg,,,,,,,,,,,,,0,7,7,10,1,,,,,,,,,,,,,,,,,,,,,,,,,,,,,,,,
,,,,,,,,,,,,67fab4a0d29e8a31f5e08e9e,001,3,2025-04-15_06h25.19.618,avatar_quest_3AFC_legacy,2022.1.3,Win32,64.1025641,67fab4a0d29e8a31f5e08e9e,67fe37cb3bd870bba73819bd,67fe3a14c1211f3d2e67ccf3,,,,,,,,,,,,,,,,,,,,,,With Brainslug No Barriers With Money,0,images/assets/snowy_money.jpg,learning,10,images/assets/success_money.jpg,images/assets/gameover.jpg,,,,,,,,,,,,,0,8,8,4,1,,,,,,,,,,,,,,,,,,,,,,,,,,,,,,,,
,,,,,,,,,,,,67fab4a0d29e8a31f5e08e9e,001,3,2025-04-15_06h25.19.618,avatar_quest_3AFC_legacy,2022.1.3,Win32,64.1025641,67fab4a0d29e8a31f5e08e9e,67fe37cb3bd870bba73819bd,67fe3a14c1211f3d2e67ccf3,,,,,,,,,,,,,,,,,,,,,,No Brainslug Difficult 2 With Money,12,images/assets/snowy_money.jpg,learning,20,images/assets/success_money.jpg,images/assets/gameover.jpg,,,,,,,,,,,,,0,9,9,7,1,,,,,,,,,,,,,,,,,,,,,,,,,,,,,,,,
,,,,,,,,,,,,67fab4a0d29e8a31f5e08e9e,001,3,2025-04-15_06h25.19.618,avatar_quest_3AFC_legacy,2022.1.3,Win32,64.1025641,67fab4a0d29e8a31f5e08e9e,67fe37cb3bd870bba73819bd,67fe3a14c1211f3d2e67ccf3,,,,,,,,,,,,,,,,,,,,,,No Brainslug No Barriers With Money,0,images/assets/snowy_money.jpg,learning,10,images/assets/success_money.jpg,images/assets/gameover.jpg,,,,,,,,,,,,,0,10,10,9,1,,,,,,,,,,,,,,,,,,,,,,,,,,,,,,,,
,,,,,,,,,,,,67fab4a0d29e8a31f5e08e9e,001,3,2025-04-15_06h25.19.618,avatar_quest_3AFC_legacy,2022.1.3,Win32,64.1025641,67fab4a0d29e8a31f5e08e9e,67fe37cb3bd870bba73819bd,67fe3a14c1211f3d2e67ccf3,,,,,,,,,,,,,,,,,,,,,,,,,,,,,,,,,,,,,,,,,,,,,,,,,,,,,,,4,0,4,0,1,,,,,,,,,,,,,,,,,,
,,,,,,,,,,,,67fab4a0d29e8a31f5e08e9e,001,3,2025-04-15_06h25.19.618,avatar_quest_3AFC_legacy,2022.1.3,Win32,64.1025641,67fab4a0d29e8a31f5e08e9e,67fe37cb3bd870bba73819bd,67fe3a14c1211f3d2e67ccf3,,,,,,,,,,,,,,,,,,,,,,No Brainslug Difficult 1 No Money,6,images/assets/snowy_original.jpg,learning,20,images/assets/success.jpg,images/assets/gameover.jpg,,,,,,,,With Brainslug Difficult 2 With Money,With Brainslug Difficult 1 No Money,right,0.1499,"[""With Brainslug Difficult 1 No Money"",""With Brainslug Difficult 2 No Money""]",0,0,0,6,1,,,,,,,,,,,,,,,,,,,,,,,,,,,,,,,,
,,,,,,,,,,,,67fab4a0d29e8a31f5e08e9e,001,3,2025-04-15_06h25.19.618,avatar_quest_3AFC_legacy,2022.1.3,Win32,64.1025641,67fab4a0d29e8a31f5e08e9e,67fe37cb3bd870bba73819bd,67fe3a14c1211f3d2e67ccf3,,,,,,,,,,,,,,,,,,,,,,No Brainslug No Barriers No Money,0,images/assets/snowy_original.jpg,learning,10,images/assets/success.jpg,images/assets/gameover.jpg,,,,,,,,,,,,,0,1,1,10,1,,,,,,,,,,,,,,,,,,,,,,,,,,,,,,,,
,,,,,,,,,,,,67fab4a0d29e8a31f5e08e9e,001,3,2025-04-15_06h25.19.618,avatar_quest_3AFC_legacy,2022.1.3,Win32,64.1025641,67fab4a0d29e8a31f5e08e9e,67fe37cb3bd870bba73819bd,67fe3a14c1211f3d2e67ccf3,,,,,,,,,,,,,,,,,,,,,,With Brainslug No Barriers With Money,0,images/assets/snowy_money.jpg,learning,10,images/assets/success_money.jpg,images/assets/gameover.jpg,,,,,,,,,,,,,0,2,2,4,1,,,,,,,,,,,,,,,,,,,,,,,,,,,,,,,,
,,,,,,,,,,,,67fab4a0d29e8a31f5e08e9e,001,3,2025-04-15_06h25.19.618,avatar_quest_3AFC_legacy,2022.1.3,Win32,64.1025641,67fab4a0d29e8a31f5e08e9e,67fe37cb3bd870bba73819bd,67fe3a14c1211f3d2e67ccf3,,,,,,,,,,,,,,,,,,,,,,With Brainslug No Barriers No Money,0,images/assets/snowy_original.jpg,learning,10,images/assets/success.jpg,images/assets/gameover.jpg,,,,,,,,,,,,,0,3,3,5,1,,,,,,,,,,,,,,,,,,,,,,,,,,,,,,,,
,,,,,,,,,,,,67fab4a0d29e8a31f5e08e9e,001,3,2025-04-15_06h25.19.618,avatar_quest_3AFC_legacy,2022.1.3,Win32,64.1025641,67fab4a0d29e8a31f5e08e9e,67fe37cb3bd870bba73819bd,67fe3a14c1211f3d2e67ccf3,,,,,,,,,,,,,,,,,,,,,,With Brainslug Difficult 1 With Money,6,images/assets/snowy_money.jpg,learning,20,images/assets/success_money.jpg,images/assets/gameover.jpg,,,,,,,,,,,,,0,4,4,0,1,,,,,,,,,,,,,,,,,,,,,,,,,,,,,,,,
,,,,,,,,,,,,67fab4a0d29e8a31f5e08e9e,001,3,2025-04-15_06h25.19.618,avatar_quest_3AFC_legacy,2022.1.3,Win32,64.1025641,67fab4a0d29e8a31f5e08e9e,67fe37cb3bd870bba73819bd,67fe3a14c1211f3d2e67ccf3,,,,,,,,,,,,,,,,,,,,,,No Brainslug Difficult 2 No Money,12,images/assets/snowy_original.jpg,learning,20,images/assets/success.jpg,images/assets/gameover.jpg,,,,,,,,,,,,,0,5,5,8,1,,,,,,,,,,,,,,,,,,,,,,,,,,,,,,,,
,,,,,,,,,,,,67fab4a0d29e8a31f5e08e9e,001,3,2025-04-15_06h25.19.618,avatar_quest_3AFC_legacy,2022.1.3,Win32,64.1025641,67fab4a0d29e8a31f5e08e9e,67fe37cb3bd870bba73819bd,67fe3a14c1211f3d2e67ccf3,,,,,,,,,,,,,,,,,,,,,,No Brainslug No Barriers With Money,0,images/assets/snowy_money.jpg,learning,10,images/assets/success_money.jpg,images/assets/gameover.jpg,,,,,,,,,,,,,0,6,6,9,1,,,,,,,,,,,,,,,,,,,,,,,,,,,,,,,,
,,,,,,,,,,,,67fab4a0d29e8a31f5e08e9e,001,3,2025-04-15_06h25.19.618,avatar_quest_3AFC_legacy,2022.1.3,Win32,64.1025641,67fab4a0d29e8a31f5e08e9e,67fe37cb3bd870bba73819bd,67fe3a14c1211f3d2e67ccf3,"[""left"",""left"",""left"",""left"",""right"",""right"",""right"",""right""]","[5.593600000023798,5.940300000011916,6.999500000000012,7.526699999988068,8.400100000023826,8.749699999988025,10.481899999976122,11.560499999999934]",,calibration,With Brainslug Difficult 2 With Money,9,11.63215,11.7356,4,4,0,FALSE,na,na,na,na,,,,,,,,,,,,,,,,,,,,,,,,,,,,,,,,,,0,0,0,0,1,,,,,,,,,,,,,,,,,,,,,,,
,,,,,,,,,,,,67fab4a0d29e8a31f5e08e9e,001,3,2025-04-15_06h25.19.618,avatar_quest_3AFC_legacy,2022.1.3,Win32,64.1025641,67fab4a0d29e8a31f5e08e9e,67fe37cb3bd870bba73819bd,67fe3a14c1211f3d2e67ccf3,,,,,,,,,,,,,,,,,,,,,,With Brainslug Difficult 2 With Money,12,images/assets/snowy_money.jpg,learning,20,images/assets/success_money.jpg,images/assets/gameover.jpg,,,,,,,,,,,,,0,7,7,2,1,,,,,,,,,,,,,,,,,,,,,,,,,,,,,,,,
,,,,,,,,,,,,67fab4a0d29e8a31f5e08e9e,001,3,2025-04-15_06h25.19.618,avatar_quest_3AFC_legacy,2022.1.3,Win32,64.1025641,67fab4a0d29e8a31f5e08e9e,67fe37cb3bd870bba73819bd,67fe3a14c1211f3d2e67ccf3,,,,,,,,,,,,,,,,,,,,,,With Brainslug Difficult 2 No Money,12,images/assets/snowy_original.jpg,learning,20,images/assets/success.jpg,images/assets/gameover.jpg,,,,,,,,,,,,,0,8,8,3,1,,,,,,,,,,,,,,,,,,,,,,,,,,,,,,,,
,,,,,,,,,,,,67fab4a0d29e8a31f5e08e9e,001,3,2025-04-15_06h25.19.618,avatar_quest_3AFC_legacy,2022.1.3,Win32,64.1025641,67fab4a0d29e8a31f5e08e9e,67fe37cb3bd870bba73819bd,67fe3a14c1211f3d2e67ccf3,,,,,,,,,,,,,,,,,,,,,,With Brainslug Difficult 1 No Money,6,images/assets/snowy_original.jpg,learning,20,images/assets/success.jpg,images/assets/gameover.jpg,,,,,,,,,,,,,0,9,9,1,1,,,,,,,,,,,,,,,,,,,,,,,,,,,,,,,,
,,,,,,,,,,,,67fab4a0d29e8a31f5e08e9e,001,3,2025-04-15_06h25.19.618,avatar_quest_3AFC_legacy,2022.1.3,Win32,64.1025641,67fab4a0d29e8a31f5e08e9e,67fe37cb3bd870bba73819bd,67fe3a14c1211f3d2e67ccf3,,,,,,,,,,,,,,,,,,,,,,No Brainslug Difficult 2 With Money,12,images/assets/snowy_money.jpg,learning,20,images/assets/success_money.jpg,images/assets/gameover.jpg,,,,,,,,,,,,,0,10,10,7,1,,,,,,,,,,,,,,,,,,,,,,,,,,,,,,,,
,,,,,,,,,,,,67fab4a0d29e8a31f5e08e9e,001,3,2025-04-15_06h25.19.618,avatar_quest_3AFC_legacy,2022.1.3,Win32,64.1025641,67fab4a0d29e8a31f5e08e9e,67fe37cb3bd870bba73819bd,67fe3a14c1211f3d2e67ccf3,,,,,,,,,,,,,,,,,,,,,,,,,,,,,,,,,,,,,,,,,,,,,,,,,,,,,,,5,0,5,0,1,,,,,,,,,,,,,,,,,,
,,,,,,,,,,,,67fab4a0d29e8a31f5e08e9e,001,3,2025-04-15_06h25.19.618,avatar_quest_3AFC_legacy,2022.1.3,Win32,64.1025641,67fab4a0d29e8a31f5e08e9e,67fe37cb3bd870bba73819bd,67fe3a14c1211f3d2e67ccf3,,,,,,,,,,,,,,,,,,,,,,No Brainslug No Barriers No Money,0,images/assets/snowy_original.jpg,learning,10,images/assets/success.jpg,images/assets/gameover.jpg,,,,,,,,With Brainslug Difficult 2 With Money,With Brainslug Difficult 1 No Money,right,4.4436,"[""With Brainslug Difficult 1 No Money"",""With Brainslug Difficult 2 No Money""]",0,0,0,10,1,,,,,,,,,,,,,,,,,,,,,,,,,,,,,,,,
,,,,,,,,,,,,67fab4a0d29e8a31f5e08e9e,001,3,2025-04-15_06h25.19.618,avatar_quest_3AFC_legacy,2022.1.3,Win32,64.1025641,67fab4a0d29e8a31f5e08e9e,67fe37cb3bd870bba73819bd,67fe3a14c1211f3d2e67ccf3,,,,,,,,,,,,,,,,,,,,,,No Brainslug Difficult 2 With Money,12,images/assets/snowy_money.jpg,learning,20,images/assets/success_money.jpg,images/assets/gameover.jpg,,,,,,,,,,,,,0,1,1,7,1,,,,,,,,,,,,,,,,,,,,,,,,,,,,,,,,
,,,,,,,,,,,,67fab4a0d29e8a31f5e08e9e,001,3,2025-04-15_06h25.19.618,avatar_quest_3AFC_legacy,2022.1.3,Win32,64.1025641,67fab4a0d29e8a31f5e08e9e,67fe37cb3bd870bba73819bd,67fe3a14c1211f3d2e67ccf3,,,,,,,,,,,,,,,,,,,,,,No Brainslug Difficult 1 No Money,6,images/assets/snowy_original.jpg,learning,20,images/assets/success.jpg,images/assets/gameover.jpg,,,,,,,,,,,,,0,2,2,6,1,,,,,,,,,,,,,,,,,,,,,,,,,,,,,,,,
,,,,,,,,,,,,67fab4a0d29e8a31f5e08e9e,001,3,2025-04-15_06h25.19.618,avatar_quest_3AFC_legacy,2022.1.3,Win32,64.1025641,67fab4a0d29e8a31f5e08e9e,67fe37cb3bd870bba73819bd,67fe3a14c1211f3d2e67ccf3,"[""left"",""right"",""left"",""right"",""right"",""right"",""right""]","[2.7768999999761945,4.69399999999996,6.101100000023848,7.6738000000119655,8.898899999976152,9.793399999976145,11.581699999988132]",,calibration,With Brainslug Difficult 2 With Money,10,11.63215,11.7942,4,4,0,FALSE,na,na,na,na,,,,,,,,,,,,,,,,,,,,,,,,,,,,,,,,,,0,0,0,0,1,,,,,,,,,,,,,,,,,,,,,,,
,,,,,,,,,,,,67fab4a0d29e8a31f5e08e9e,001,3,2025-04-15_06h25.19.618,avatar_quest_3AFC_legacy,2022.1.3,Win32,64.1025641,67fab4a0d29e8a31f5e08e9e,67fe37cb3bd870bba73819bd,67fe3a14c1211f3d2e67ccf3,,,,,,,,,,,,,,,,,,,,,,With Brainslug Difficult 2 With Money,12,images/assets/snowy_money.jpg,learning,20,images/assets/success_money.jpg,images/assets/gameover.jpg,,,,,,,,,,,,,0,3,3,2,1,,,,,,,,,,,,,,,,,,,,,,,,,,,,,,,,
,,,,,,,,,,,,67fab4a0d29e8a31f5e08e9e,001,3,2025-04-15_06h25.19.618,avatar_quest_3AFC_legacy,2022.1.3,Win32,64.1025641,67fab4a0d29e8a31f5e08e9e,67fe37cb3bd870bba73819bd,67fe3a14c1211f3d2e67ccf3,,,,,,,,,,,,,,,,,,,,,,With Brainslug Difficult 1 No Money,6,images/assets/snowy_original.jpg,learning,20,images/assets/success.jpg,images/assets/gameover.jpg,,,,,,,,,,,,,0,4,4,1,1,,,,,,,,,,,,,,,,,,,,,,,,,,,,,,,,
,,,,,,,,,,,,67fab4a0d29e8a31f5e08e9e,001,3,2025-04-15_06h25.19.618,avatar_quest_3AFC_legacy,2022.1.3,Win32,64.1025641,67fab4a0d29e8a31f5e08e9e,67fe37cb3bd870bba73819bd,67fe3a14c1211f3d2e67ccf3,,,,,,,,,,,,,,,,,,,,,,No Brainslug Difficult 2 No Money,12,images/assets/snowy_original.jpg,learning,20,images/assets/success.jpg,images/assets/gameover.jpg,,,,,,,,,,,,,0,5,5,8,1,,,,,,,,,,,,,,,,,,,,,,,,,,,,,,,,
,,,,,,,,,,,,67fab4a0d29e8a31f5e08e9e,001,3,2025-04-15_06h25.19.618,avatar_quest_3AFC_legacy,2022.1.3,Win32,64.1025641,67fab4a0d29e8a31f5e08e9e,67fe37cb3bd870bba73819bd,67fe3a14c1211f3d2e67ccf3,,,,,,,,,,,,,,,,,,,,,,No Brainslug No Barriers With Money,0,images/assets/snowy_money.jpg,learning,10,images/assets/success_money.jpg,images/assets/gameover.jpg,,,,,,,,,,,,,0,6,6,9,1,,,,,,,,,,,,,,,,,,,,,,,,,,,,,,,,
,,,,,,,,,,,,67fab4a0d29e8a31f5e08e9e,001,3,2025-04-15_06h25.19.618,avatar_quest_3AFC_legacy,2022.1.3,Win32,64.1025641,67fab4a0d29e8a31f5e08e9e,67fe37cb3bd870bba73819bd,67fe3a14c1211f3d2e67ccf3,,,,,,,,,,,,,,,,,,,,,,With Brainslug Difficult 2 No Money,12,images/assets/snowy_original.jpg,learning,20,images/assets/success.jpg,images/assets/gameover.jpg,,,,,,,,,,,,,0,7,7,3,1,,,,,,,,,,,,,,,,,,,,,,,,,,,,,,,,
,,,,,,,,,,,,67fab4a0d29e8a31f5e08e9e,001,3,2025-04-15_06h25.19.618,avatar_quest_3AFC_legacy,2022.1.3,Win32,64.1025641,67fab4a0d29e8a31f5e08e9e,67fe37cb3bd870bba73819bd,67fe3a14c1211f3d2e67ccf3,,,,,,,,,,,,,,,,,,,,,,With Brainslug Difficult 1 With Money,6,images/assets/snowy_money.jpg,learning,20,images/assets/success_money.jpg,images/assets/gameover.jpg,,,,,,,,,,,,,0,8,8,0,1,,,,,,,,,,,,,,,,,,,,,,,,,,,,,,,,
,,,,,,,,,,,,67fab4a0d29e8a31f5e08e9e,001,3,2025-04-15_06h25.19.618,avatar_quest_3AFC_legacy,2022.1.3,Win32,64.1025641,67fab4a0d29e8a31f5e08e9e,67fe37cb3bd870bba73819bd,67fe3a14c1211f3d2e67ccf3,,,,,,,,,,,,,,,,,,,,,,With Brainslug No Barriers No Money,0,images/assets/snowy_original.jpg,learning,10,images/assets/success.jpg,images/assets/gameover.jpg,,,,,,,,,,,,,0,9,9,5,1,,,,,,,,,,,,,,,,,,,,,,,,,,,,,,,,
,,,,,,,,,,,,67fab4a0d29e8a31f5e08e9e,001,3,2025-04-15_06h25.19.618,avatar_quest_3AFC_legacy,2022.1.3,Win32,64.1025641,67fab4a0d29e8a31f5e08e9e,67fe37cb3bd870bba73819bd,67fe3a14c1211f3d2e67ccf3,,,,,,,,,,,,,,,,,,,,,,With Brainslug No Barriers With Money,0,images/assets/snowy_money.jpg,learning,10,images/assets/success_money.jpg,images/assets/gameover.jpg,,,,,,,,,,,,,0,10,10,4,1,,,,,,,,,,,,,,,,,,,,,,,,,,,,,,,,
,,,,,,,,,,,,67fab4a0d29e8a31f5e08e9e,001,3,2025-04-15_06h25.19.618,avatar_quest_3AFC_legacy,2022.1.3,Win32,64.1025641,67fab4a0d29e8a31f5e08e9e,67fe37cb3bd870bba73819bd,67fe3a14c1211f3d2e67ccf3,,,,,,,,,,,,,,,,,,,,,,,,,,,,,,,,,,,,,,,,,,,,,,,,,,,,,,,6,0,6,0,1,,,,,,,,,,,,,,,,,,
,,,,,,,,,,,,67fab4a0d29e8a31f5e08e9e,001,3,2025-04-15_06h25.19.618,avatar_quest_3AFC_legacy,2022.1.3,Win32,64.1025641,67fab4a0d29e8a31f5e08e9e,67fe37cb3bd870bba73819bd,67fe3a14c1211f3d2e67ccf3,,,,,,,,,,,,,,,,,,,,,,No Brainslug No Barriers With Money,0,images/assets/snowy_money.jpg,learning,10,images/assets/success_money.jpg,images/assets/gameover.jpg,,,,,,,,With Brainslug Difficult 2 With Money,With Brainslug Difficult 1 No Money,right,2.5059,"[""With Brainslug Difficult 1 No Money"",""With Brainslug Difficult 2 No Money""]",0,0,0,9,1,,,,,,,,,,,,,,,,,,,,,,,,,,,,,,,,
,,,,,,,,,,,,67fab4a0d29e8a31f5e08e9e,001,3,2025-04-15_06h25.19.618,avatar_quest_3AFC_legacy,2022.1.3,Win32,64.1025641,67fab4a0d29e8a31f5e08e9e,67fe37cb3bd870bba73819bd,67fe3a14c1211f3d2e67ccf3,,,,,,,,,,,,,,,,,,,,,,With Brainslug No Barriers No Money,0,images/assets/snowy_original.jpg,learning,10,images/assets/success.jpg,images/assets/gameover.jpg,,,,,,,,,,,,,0,1,1,5,1,,,,,,,,,,,,,,,,,,,,,,,,,,,,,,,,
,,,,,,,,,,,,67fab4a0d29e8a31f5e08e9e,001,3,2025-04-15_06h25.19.618,avatar_quest_3AFC_legacy,2022.1.3,Win32,64.1025641,67fab4a0d29e8a31f5e08e9e,67fe37cb3bd870bba73819bd,67fe3a14c1211f3d2e67ccf3,,,,,,,,,,,,,,,,,,,,,,No Brainslug Difficult 2 With Money,12,images/assets/snowy_money.jpg,learning,20,images/assets/success_money.jpg,images/assets/gameover.jpg,,,,,,,,,,,,,0,2,2,7,1,,,,,,,,,,,,,,,,,,,,,,,,,,,,,,,,
,,,,,,,,,,,,67fab4a0d29e8a31f5e08e9e,001,3,2025-04-15_06h25.19.618,avatar_quest_3AFC_legacy,2022.1.3,Win32,64.1025641,67fab4a0d29e8a31f5e08e9e,67fe37cb3bd870bba73819bd,67fe3a14c1211f3d2e67ccf3,,,,,,,,,,,,,,,,,,,,,,With Brainslug Difficult 2 No Money,12,images/assets/snowy_original.jpg,learning,20,images/assets/success.jpg,images/assets/gameover.jpg,,,,,,,,,,,,,0,3,3,3,1,,,,,,,,,,,,,,,,,,,,,,,,,,,,,,,,
,,,,,,,,,,,,67fab4a0d29e8a31f5e08e9e,001,3,2025-04-15_06h25.19.618,avatar_quest_3AFC_legacy,2022.1.3,Win32,64.1025641,67fab4a0d29e8a31f5e08e9e,67fe37cb3bd870bba73819bd,67fe3a14c1211f3d2e67ccf3,,,,,,,,,,,,,,,,,,,,,,No Brainslug Difficult 1 No Money,6,images/assets/snowy_original.jpg,learning,20,images/assets/success.jpg,images/assets/gameover.jpg,,,,,,,,,,,,,0,4,4,6,1,,,,,,,,,,,,,,,,,,,,,,,,,,,,,,,,
,,,,,,,,,,,,67fab4a0d29e8a31f5e08e9e,001,3,2025-04-15_06h25.19.618,avatar_quest_3AFC_legacy,2022.1.3,Win32,64.1025641,67fab4a0d29e8a31f5e08e9e,67fe37cb3bd870bba73819bd,67fe3a14c1211f3d2e67ccf3,,,,,,,,,,,,,,,,,,,,,,No Brainslug No Barriers No Money,0,images/assets/snowy_original.jpg,learning,10,images/assets/success.jpg,images/assets/gameover.jpg,,,,,,,,,,,,,0,5,5,10,1,,,,,,,,,,,,,,,,,,,,,,,,,,,,,,,,
,,,,,,,,,,,,67fab4a0d29e8a31f5e08e9e,001,3,2025-04-15_06h25.19.618,avatar_quest_3AFC_legacy,2022.1.3,Win32,64.1025641,67fab4a0d29e8a31f5e08e9e,67fe37cb3bd870bba73819bd,67fe3a14c1211f3d2e67ccf3,"[""left"",""left"",""right"",""left"",""right"",""right"",""left"",""right""]","[2.465100000023881,4.5575000000000045,5.602800000011939,6.827100000023847,8.250499999999988,9.135199999988117,9.684699999988084,10.785600000023805]",,calibration,With Brainslug Difficult 2 With Money,11,11.63215,11.6861,5,6,0,FALSE,na,na,na,na,,,,,,,,,,,,,,,,,,,,,,,,,,,,,,,,,,0,0,0,0,1,,,,,,,,,,,,,,,,,,,,,,,
,,,,,,,,,,,,67fab4a0d29e8a31f5e08e9e,001,3,2025-04-15_06h25.19.618,avatar_quest_3AFC_legacy,2022.1.3,Win32,64.1025641,67fab4a0d29e8a31f5e08e9e,67fe37cb3bd870bba73819bd,67fe3a14c1211f3d2e67ccf3,,,,,,,,,,,,,,,,,,,,,,With Brainslug Difficult 2 With Money,12,images/assets/snowy_money.jpg,learning,20,images/assets/success_money.jpg,images/assets/gameover.jpg,,,,,,,,,,,,,0,6,6,2,1,,,,,,,,,,,,,,,,,,,,,,,,,,,,,,,,
,,,,,,,,,,,,67fab4a0d29e8a31f5e08e9e,001,3,2025-04-15_06h25.19.618,avatar_quest_3AFC_legacy,2022.1.3,Win32,64.1025641,67fab4a0d29e8a31f5e08e9e,67fe37cb3bd870bba73819bd,67fe3a14c1211f3d2e67ccf3,,,,,,,,,,,,,,,,,,,,,,No Brainslug Difficult 2 No Money,12,images/assets/snowy_original.jpg,learning,20,images/assets/success.jpg,images/assets/gameover.jpg,,,,,,,,,,,,,0,7,7,8,1,,,,,,,,,,,,,,,,,,,,,,,,,,,,,,,,
,,,,,,,,,,,,67fab4a0d29e8a31f5e08e9e,001,3,2025-04-15_06h25.19.618,avatar_quest_3AFC_legacy,2022.1.3,Win32,64.1025641,67fab4a0d29e8a31f5e08e9e,67fe37cb3bd870bba73819bd,67fe3a14c1211f3d2e67ccf3,,,,,,,,,,,,,,,,,,,,,,With Brainslug No Barriers With Money,0,images/assets/snowy_money.jpg,learning,10,images/assets/success_money.jpg,images/assets/gameover.jpg,,,,,,,,,,,,,0,8,8,4,1,,,,,,,,,,,,,,,,,,,,,,,,,,,,,,,,
,,,,,,,,,,,,67fab4a0d29e8a31f5e08e9e,001,3,2025-04-15_06h25.19.618,avatar_quest_3AFC_legacy,2022.1.3,Win32,64.1025641,67fab4a0d29e8a31f5e08e9e,67fe37cb3bd870bba73819bd,67fe3a14c1211f3d2e67ccf3,,,,,,,,,,,,,,,,,,,,,,With Brainslug Difficult 1 No Money,6,images/assets/snowy_original.jpg,learning,20,images/assets/success.jpg,images/assets/gameover.jpg,,,,,,,,,,,,,0,9,9,1,1,,,,,,,,,,,,,,,,,,,,,,,,,,,,,,,,
,,,,,,,,,,,,67fab4a0d29e8a31f5e08e9e,001,3,2025-04-15_06h25.19.618,avatar_quest_3AFC_legacy,2022.1.3,Win32,64.1025641,67fab4a0d29e8a31f5e08e9e,67fe37cb3bd870bba73819bd,67fe3a14c1211f3d2e67ccf3,,,,,,,,,,,,,,,,,,,,,,With Brainslug Difficult 1 With Money,6,images/assets/snowy_money.jpg,learning,20,images/assets/success_money.jpg,images/assets/gameover.jpg,,,,,,,,,,,,,0,10,10,0,1,,,,,,,,,,,,,,,,,,,,,,,,,,,,,,,,
,,,,,,,,,,,,67fab4a0d29e8a31f5e08e9e,001,3,2025-04-15_06h25.19.618,avatar_quest_3AFC_legacy,2022.1.3,Win32,64.1025641,67fab4a0d29e8a31f5e08e9e,67fe37cb3bd870bba73819bd,67fe3a14c1211f3d2e67ccf3,,,,,,,,,,,,,,,,,,,,,,,,,,,,,,,,,,,,,,,,,,,,,,,,,,,,,,,7,0,7,0,1,,,,,,,,,,,,,,,,,,
,,,,,,,,,,,,67fab4a0d29e8a31f5e08e9e,001,3,2025-04-15_06h25.19.618,avatar_quest_3AFC_legacy,2022.1.3,Win32,64.1025641,67fab4a0d29e8a31f5e08e9e,67fe37cb3bd870bba73819bd,67fe3a14c1211f3d2e67ccf3,,,,,,,,,,,,,,,,,,,,,,With Brainslug No Barriers No Money,0,images/assets/snowy_original.jpg,learning,10,images/assets/success.jpg,images/assets/gameover.jpg,,,,,,,,With Brainslug Difficult 2 With Money,With Brainslug Difficult 1 No Money,right,4.184,"[""With Brainslug Difficult 1 No Money"",""With Brainslug Difficult 2 No Money""]",0,0,0,5,1,,,,,,,,,,,,,,,,,,,,,,,,,,,,,,,,
,,,,,,,,,,,,67fab4a0d29e8a31f5e08e9e,001,3,2025-04-15_06h25.19.618,avatar_quest_3AFC_legacy,2022.1.3,Win32,64.1025641,67fab4a0d29e8a31f5e08e9e,67fe37cb3bd870bba73819bd,67fe3a14c1211f3d2e67ccf3,,,,,,,,,,,,,,,,,,,,,,No Brainslug Difficult 2 No Money,12,images/assets/snowy_original.jpg,learning,20,images/assets/success.jpg,images/assets/gameover.jpg,,,,,,,,,,,,,0,1,1,8,1,,,,,,,,,,,,,,,,,,,,,,,,,,,,,,,,
,,,,,,,,,,,,67fab4a0d29e8a31f5e08e9e,001,3,2025-04-15_06h25.19.618,avatar_quest_3AFC_legacy,2022.1.3,Win32,64.1025641,67fab4a0d29e8a31f5e08e9e,67fe37cb3bd870bba73819bd,67fe3a14c1211f3d2e67ccf3,,,,,,,,,,,,,,,,,,,,,,No Brainslug Difficult 2 With Money,12,images/assets/snowy_money.jpg,learning,20,images/assets/success_money.jpg,images/assets/gameover.jpg,,,,,,,,,,,,,0,2,2,7,1,,,,,,,,,,,,,,,,,,,,,,,,,,,,,,,,
,,,,,,,,,,,,67fab4a0d29e8a31f5e08e9e,001,3,2025-04-15_06h25.19.618,avatar_quest_3AFC_legacy,2022.1.3,Win32,64.1025641,67fab4a0d29e8a31f5e08e9e,67fe37cb3bd870bba73819bd,67fe3a14c1211f3d2e67ccf3,,,,,,,,,,,,,,,,,,,,,,With Brainslug Difficult 1 No Money,6,images/assets/snowy_original.jpg,learning,20,images/assets/success.jpg,images/assets/gameover.jpg,,,,,,,,,,,,,0,3,3,1,1,,,,,,,,,,,,,,,,,,,,,,,,,,,,,,,,
,,,,,,,,,,,,67fab4a0d29e8a31f5e08e9e,001,3,2025-04-15_06h25.19.618,avatar_quest_3AFC_legacy,2022.1.3,Win32,64.1025641,67fab4a0d29e8a31f5e08e9e,67fe37cb3bd870bba73819bd,67fe3a14c1211f3d2e67ccf3,,,,,,,,,,,,,,,,,,,,,,With Brainslug Difficult 2 No Money,12,images/assets/snowy_original.jpg,learning,20,images/assets/success.jpg,images/assets/gameover.jpg,,,,,,,,,,,,,0,4,4,3,1,,,,,,,,,,,,,,,,,,,,,,,,,,,,,,,,
,,,,,,,,,,,,67fab4a0d29e8a31f5e08e9e,001,3,2025-04-15_06h25.19.618,avatar_quest_3AFC_legacy,2022.1.3,Win32,64.1025641,67fab4a0d29e8a31f5e08e9e,67fe37cb3bd870bba73819bd,67fe3a14c1211f3d2e67ccf3,,,,,,,,,,,,,,,,,,,,,,No Brainslug No Barriers With Money,0,images/assets/snowy_money.jpg,learning,10,images/assets/success_money.jpg,images/assets/gameover.jpg,,,,,,,,,,,,,0,5,5,9,1,,,,,,,,,,,,,,,,,,,,,,,,,,,,,,,,
,,,,,,,,,,,,67fab4a0d29e8a31f5e08e9e,001,3,2025-04-15_06h25.19.618,avatar_quest_3AFC_legacy,2022.1.3,Win32,64.1025641,67fab4a0d29e8a31f5e08e9e,67fe37cb3bd870bba73819bd,67fe3a14c1211f3d2e67ccf3,,,,,,,,,,,,,,,,,,,,,,No Brainslug No Barriers No Money,0,images/assets/snowy_original.jpg,learning,10,images/assets/success.jpg,images/assets/gameover.jpg,,,,,,,,,,,,,0,6,6,10,1,,,,,,,,,,,,,,,,,,,,,,,,,,,,,,,,
,,,,,,,,,,,,67fab4a0d29e8a31f5e08e9e,001,3,2025-04-15_06h25.19.618,avatar_quest_3AFC_legacy,2022.1.3,Win32,64.1025641,67fab4a0d29e8a31f5e08e9e,67fe37cb3bd870bba73819bd,67fe3a14c1211f3d2e67ccf3,,,,,,,,,,,,,,,,,,,,,,With Brainslug Difficult 1 With Money,6,images/assets/snowy_money.jpg,learning,20,images/assets/success_money.jpg,images/assets/gameover.jpg,,,,,,,,,,,,,0,7,7,0,1,,,,,,,,,,,,,,,,,,,,,,,,,,,,,,,,
,,,,,,,,,,,,67fab4a0d29e8a31f5e08e9e,001,3,2025-04-15_06h25.19.618,avatar_quest_3AFC_legacy,2022.1.3,Win32,64.1025641,67fab4a0d29e8a31f5e08e9e,67fe37cb3bd870bba73819bd,67fe3a14c1211f3d2e67ccf3,,,,,,,,,,,,,,,,,,,,,,No Brainslug Difficult 1 No Money,6,images/assets/snowy_original.jpg,learning,20,images/assets/success.jpg,images/assets/gameover.jpg,,,,,,,,,,,,,0,8,8,6,1,,,,,,,,,,,,,,,,,,,,,,,,,,,,,,,,
,,,,,,,,,,,,67fab4a0d29e8a31f5e08e9e,001,3,2025-04-15_06h25.19.618,avatar_quest_3AFC_legacy,2022.1.3,Win32,64.1025641,67fab4a0d29e8a31f5e08e9e,67fe37cb3bd870bba73819bd,67fe3a14c1211f3d2e67ccf3,,,,,,,,,,,,,,,,,,,,,,With Brainslug No Barriers With Money,0,images/assets/snowy_money.jpg,learning,10,images/assets/success_money.jpg,images/assets/gameover.jpg,,,,,,,,,,,,,0,9,9,4,1,,,,,,,,,,,,,,,,,,,,,,,,,,,,,,,,
,,,,,,,,,,,,67fab4a0d29e8a31f5e08e9e,001,3,2025-04-15_06h25.19.618,avatar_quest_3AFC_legacy,2022.1.3,Win32,64.1025641,67fab4a0d29e8a31f5e08e9e,67fe37cb3bd870bba73819bd,67fe3a14c1211f3d2e67ccf3,"[""left"",""right"",""left"",""right"",""left"",""left"",""left"",""right"",""right"",""right"",""right"",""left""]","[1.0941999999880636,2.341000000000008,3.6261000000238255,4.514199999988136,4.882699999988063,6.117100000023811,6.65300000000002,7.893900000035842,8.960199999988049,10.214400000035766,10.736999999999966,11.469600000023888]",,calibration,With Brainslug Difficult 2 With Money,12,11.63215,11.6697,8,4,0,FALSE,na,na,na,na,,,,,,,,,,,,,,,,,,,,,,,,,,,,,,,,,,0,0,0,0,1,,,,,,,,,,,,,,,,,,,,,,,
,,,,,,,,,,,,67fab4a0d29e8a31f5e08e9e,001,3,2025-04-15_06h25.19.618,avatar_quest_3AFC_legacy,2022.1.3,Win32,64.1025641,67fab4a0d29e8a31f5e08e9e,67fe37cb3bd870bba73819bd,67fe3a14c1211f3d2e67ccf3,,,,,,,,,,,,,,,,,,,,,,With Brainslug Difficult 2 With Money,12,images/assets/snowy_money.jpg,learning,20,images/assets/success_money.jpg,images/assets/gameover.jpg,,,,,,,,,,,,,0,10,10,2,1,,,,,,,,,,,,,,,,,,,,,,,,,,,,,,,,
,,,,,,,,,,,,67fab4a0d29e8a31f5e08e9e,001,3,2025-04-15_06h25.19.618,avatar_quest_3AFC_legacy,2022.1.3,Win32,64.1025641,67fab4a0d29e8a31f5e08e9e,67fe37cb3bd870bba73819bd,67fe3a14c1211f3d2e67ccf3,,,,,,,,,,,,,,,,,,,,,,,,,,,,,,,,,,,,,,,,,,,,,,,,,,,,,,,8,0,8,0,1,,,,,,,,,,,,,,,,,,
,,,,,,,,,,,,67fab4a0d29e8a31f5e08e9e,001,3,2025-04-15_06h25.19.618,avatar_quest_3AFC_legacy,2022.1.3,Win32,64.1025641,67fab4a0d29e8a31f5e08e9e,67fe37cb3bd870bba73819bd,67fe3a14c1211f3d2e67ccf3,,,,,,,,,,,,,,,,,,,,,,With Brainslug No Barriers No Money,0,images/assets/snowy_original.jpg,learning,10,images/assets/success.jpg,images/assets/gameover.jpg,,,,,,,,With Brainslug Difficult 2 With Money,With Brainslug Difficult 1 No Money,right,0.9904,"[""With Brainslug Difficult 1 No Money"",""With Brainslug Difficult 2 No Money""]",0,0,0,5,1,,,,,,,,,,,,,,,,,,,,,,,,,,,,,,,,
,,,,,,,,,,,,67fab4a0d29e8a31f5e08e9e,001,3,2025-04-15_06h25.19.618,avatar_quest_3AFC_legacy,2022.1.3,Win32,64.1025641,67fab4a0d29e8a31f5e08e9e,67fe37cb3bd870bba73819bd,67fe3a14c1211f3d2e67ccf3,,,,,,,,,,,,,,,,,,,,,,No Brainslug Difficult 2 No Money,12,images/assets/snowy_original.jpg,learning,20,images/assets/success.jpg,images/assets/gameover.jpg,,,,,,,,,,,,,0,1,1,8,1,,,,,,,,,,,,,,,,,,,,,,,,,,,,,,,,
,,,,,,,,,,,,67fab4a0d29e8a31f5e08e9e,001,3,2025-04-15_06h25.19.618,avatar_quest_3AFC_legacy,2022.1.3,Win32,64.1025641,67fab4a0d29e8a31f5e08e9e,67fe37cb3bd870bba73819bd,67fe3a14c1211f3d2e67ccf3,"[""left"",""left"",""left"",""right"",""left"",""right"",""left"",""right"",""right"",""left"",""right"",""left""]","[1.274000000000001,1.9908999999761363,2.7108999999761636,2.9086000000238528,3.9845000000000255,4.903100000023869,5.8856999999881054,6.820699999988051,7.574199999988082,8.301600000023882,9.257300000011924,10.707499999999982]",,calibration,With Brainslug Difficult 2 With Money,13,11.63215,11.7968,7,4,0,FALSE,na,na,na,na,,,,,,,,,,,,,,,,,,,,,,,,,,,,,,,,,,0,0,0,0,1,,,,,,,,,,,,,,,,,,,,,,,
,,,,,,,,,,,,67fab4a0d29e8a31f5e08e9e,001,3,2025-04-15_06h25.19.618,avatar_quest_3AFC_legacy,2022.1.3,Win32,64.1025641,67fab4a0d29e8a31f5e08e9e,67fe37cb3bd870bba73819bd,67fe3a14c1211f3d2e67ccf3,,,,,,,,,,,,,,,,,,,,,,With Brainslug Difficult 2 With Money,12,images/assets/snowy_money.jpg,learning,20,images/assets/success_money.jpg,images/assets/gameover.jpg,,,,,,,,,,,,,0,2,2,2,1,,,,,,,,,,,,,,,,,,,,,,,,,,,,,,,,
,,,,,,,,,,,,67fab4a0d29e8a31f5e08e9e,001,3,2025-04-15_06h25.19.618,avatar_quest_3AFC_legacy,2022.1.3,Win32,64.1025641,67fab4a0d29e8a31f5e08e9e,67fe37cb3bd870bba73819bd,67fe3a14c1211f3d2e67ccf3,,,,,,,,,,,,,,,,,,,,,,No Brainslug No Barriers No Money,0,images/assets/snowy_original.jpg,learning,10,images/assets/success.jpg,images/assets/gameover.jpg,,,,,,,,,,,,,0,3,3,10,1,,,,,,,,,,,,,,,,,,,,,,,,,,,,,,,,
,,,,,,,,,,,,67fab4a0d29e8a31f5e08e9e,001,3,2025-04-15_06h25.19.618,avatar_quest_3AFC_legacy,2022.1.3,Win32,64.1025641,67fab4a0d29e8a31f5e08e9e,67fe37cb3bd870bba73819bd,67fe3a14c1211f3d2e67ccf3,,,,,,,,,,,,,,,,,,,,,,No Brainslug Difficult 1 No Money,6,images/assets/snowy_original.jpg,learning,20,images/assets/success.jpg,images/assets/gameover.jpg,,,,,,,,,,,,,0,4,4,6,1,,,,,,,,,,,,,,,,,,,,,,,,,,,,,,,,
,,,,,,,,,,,,67fab4a0d29e8a31f5e08e9e,001,3,2025-04-15_06h25.19.618,avatar_quest_3AFC_legacy,2022.1.3,Win32,64.1025641,67fab4a0d29e8a31f5e08e9e,67fe37cb3bd870bba73819bd,67fe3a14c1211f3d2e67ccf3,,,,,,,,,,,,,,,,,,,,,,No Brainslug Difficult 2 With Money,12,images/assets/snowy_money.jpg,learning,20,images/assets/success_money.jpg,images/assets/gameover.jpg,,,,,,,,,,,,,0,5,5,7,1,,,,,,,,,,,,,,,,,,,,,,,,,,,,,,,,
,,,,,,,,,,,,67fab4a0d29e8a31f5e08e9e,001,3,2025-04-15_06h25.19.618,avatar_quest_3AFC_legacy,2022.1.3,Win32,64.1025641,67fab4a0d29e8a31f5e08e9e,67fe37cb3bd870bba73819bd,67fe3a14c1211f3d2e67ccf3,,,,,,,,,,,,,,,,,,,,,,With Brainslug Difficult 1 No Money,6,images/assets/snowy_original.jpg,learning,20,images/assets/success.jpg,images/assets/gameover.jpg,,,,,,,,,,,,,0,6,6,1,1,,,,,,,,,,,,,,,,,,,,,,,,,,,,,,,,
,,,,,,,,,,,,67fab4a0d29e8a31f5e08e9e,001,3,2025-04-15_06h25.19.618,avatar_quest_3AFC_legacy,2022.1.3,Win32,64.1025641,67fab4a0d29e8a31f5e08e9e,67fe37cb3bd870bba73819bd,67fe3a14c1211f3d2e67ccf3,,,,,,,,,,,,,,,,,,,,,,With Brainslug Difficult 1 With Money,6,images/assets/snowy_money.jpg,learning,20,images/assets/success_money.jpg,images/assets/gameover.jpg,,,,,,,,,,,,,0,7,7,0,1,,,,,,,,,,,,,,,,,,,,,,,,,,,,,,,,
,,,,,,,,,,,,67fab4a0d29e8a31f5e08e9e,001,3,2025-04-15_06h25.19.618,avatar_quest_3AFC_legacy,2022.1.3,Win32,64.1025641,67fab4a0d29e8a31f5e08e9e,67fe37cb3bd870bba73819bd,67fe3a14c1211f3d2e67ccf3,,,,,,,,,,,,,,,,,,,,,,With Brainslug No Barriers With Money,0,images/assets/snowy_money.jpg,learning,10,images/assets/success_money.jpg,images/assets/gameover.jpg,,,,,,,,,,,,,0,8,8,4,1,,,,,,,,,,,,,,,,,,,,,,,,,,,,,,,,
,,,,,,,,,,,,67fab4a0d29e8a31f5e08e9e,001,3,2025-04-15_06h25.19.618,avatar_quest_3AFC_legacy,2022.1.3,Win32,64.1025641,67fab4a0d29e8a31f5e08e9e,67fe37cb3bd870bba73819bd,67fe3a14c1211f3d2e67ccf3,,,,,,,,,,,,,,,,,,,,,,No Brainslug No Barriers With Money,0,images/assets/snowy_money.jpg,learning,10,images/assets/success_money.jpg,images/assets/gameover.jpg,,,,,,,,,,,,,0,9,9,9,1,,,,,,,,,,,,,,,,,,,,,,,,,,,,,,,,
,,,,,,,,,,,,67fab4a0d29e8a31f5e08e9e,001,3,2025-04-15_06h25.19.618,avatar_quest_3AFC_legacy,2022.1.3,Win32,64.1025641,67fab4a0d29e8a31f5e08e9e,67fe37cb3bd870bba73819bd,67fe3a14c1211f3d2e67ccf3,,,,,,,,,,,,,,,,,,,,,,With Brainslug Difficult 2 No Money,12,images/assets/snowy_original.jpg,learning,20,images/assets/success.jpg,images/assets/gameover.jpg,,,,,,,,,,,,,0,10,10,3,1,,,,,,,,,,,,,,,,,,,,,,,,,,,,,,,,
,,,,,,,,,,,,67fab4a0d29e8a31f5e08e9e,001,3,2025-04-15_06h25.19.618,avatar_quest_3AFC_legacy,2022.1.3,Win32,64.1025641,67fab4a0d29e8a31f5e08e9e,67fe37cb3bd870bba73819bd,67fe3a14c1211f3d2e67ccf3,,,,,,,,,,,,,,,,,,,,,,,,,,,,,,,,,,,,,,,,,,,,,,,,,,,,,,,9,0,9,0,1,,,,,,,,,,,,,,,,,,
,,,,,,,,,,,,67fab4a0d29e8a31f5e08e9e,001,3,2025-04-15_06h25.19.618,avatar_quest_3AFC_legacy,2022.1.3,Win32,64.1025641,67fab4a0d29e8a31f5e08e9e,67fe37cb3bd870bba73819bd,67fe3a14c1211f3d2e67ccf3,,,,,,,,,,,,,,,,,,,,,,No Brainslug Difficult 2 With Money,12,images/assets/snowy_money.jpg,learning,20,images/assets/success_money.jpg,images/assets/gameover.jpg,,,,,,,,With Brainslug Difficult 2 With Money,With Brainslug Difficult 1 No Money,right,0.6875,"[""With Brainslug Difficult 1 No Money"",""With Brainslug Difficult 2 No Money""]",0,0,0,7,1,,,,,,,,,,,,,,,,,,,,,,,,,,,,,,,,
,,,,,,,,,,,,67fab4a0d29e8a31f5e08e9e,001,3,2025-04-15_06h25.19.618,avatar_quest_3AFC_legacy,2022.1.3,Win32,64.1025641,67fab4a0d29e8a31f5e08e9e,67fe37cb3bd870bba73819bd,67fe3a14c1211f3d2e67ccf3,,,,,,,,,,,,,,,,,,,,,,With Brainslug Difficult 1 With Money,6,images/assets/snowy_money.jpg,learning,20,images/assets/success_money.jpg,images/assets/gameover.jpg,,,,,,,,,,,,,0,1,1,0,1,,,,,,,,,,,,,,,,,,,,,,,,,,,,,,,,
,,,,,,,,,,,,67fab4a0d29e8a31f5e08e9e,001,3,2025-04-15_06h25.19.618,avatar_quest_3AFC_legacy,2022.1.3,Win32,64.1025641,67fab4a0d29e8a31f5e08e9e,67fe37cb3bd870bba73819bd,67fe3a14c1211f3d2e67ccf3,,,,,,,,,,,,,,,,,,,,,,With Brainslug No Barriers No Money,0,images/assets/snowy_original.jpg,learning,10,images/assets/success.jpg,images/assets/gameover.jpg,,,,,,,,,,,,,0,2,2,5,1,,,,,,,,,,,,,,,,,,,,,,,,,,,,,,,,
,,,,,,,,,,,,67fab4a0d29e8a31f5e08e9e,001,3,2025-04-15_06h25.19.618,avatar_quest_3AFC_legacy,2022.1.3,Win32,64.1025641,67fab4a0d29e8a31f5e08e9e,67fe37cb3bd870bba73819bd,67fe3a14c1211f3d2e67ccf3,,,,,,,,,,,,,,,,,,,,,,No Brainslug Difficult 1 No Money,6,images/assets/snowy_original.jpg,learning,20,images/assets/success.jpg,images/assets/gameover.jpg,,,,,,,,,,,,,0,3,3,6,1,,,,,,,,,,,,,,,,,,,,,,,,,,,,,,,,
,,,,,,,,,,,,67fab4a0d29e8a31f5e08e9e,001,3,2025-04-15_06h25.19.618,avatar_quest_3AFC_legacy,2022.1.3,Win32,64.1025641,67fab4a0d29e8a31f5e08e9e,67fe37cb3bd870bba73819bd,67fe3a14c1211f3d2e67ccf3,"[""left"",""right"",""left"",""right"",""right"",""right"",""right"",""left"",""left"",""right"",""right"",""right""]","[0.8906999999881009,2.110899999976141,3.5223999999761872,4.578399999976227,5.097899999976221,5.799699999988093,6.145099999964259,6.494099999964305,7.024099999964278,8.141199999988089,9.19500000000005,10.588199999988092]",,calibration,With Brainslug Difficult 2 With Money,14,11.63215,11.6523,5,3,0,FALSE,na,na,na,na,,,,,,,,,,,,,,,,,,,,,,,,,,,,,,,,,,0,0,0,0,1,,,,,,,,,,,,,,,,,,,,,,,
,,,,,,,,,,,,67fab4a0d29e8a31f5e08e9e,001,3,2025-04-15_06h25.19.618,avatar_quest_3AFC_legacy,2022.1.3,Win32,64.1025641,67fab4a0d29e8a31f5e08e9e,67fe37cb3bd870bba73819bd,67fe3a14c1211f3d2e67ccf3,,,,,,,,,,,,,,,,,,,,,,With Brainslug Difficult 2 With Money,12,images/assets/snowy_money.jpg,learning,20,images/assets/success_money.jpg,images/assets/gameover.jpg,,,,,,,,,,,,,0,4,4,2,1,,,,,,,,,,,,,,,,,,,,,,,,,,,,,,,,
,,,,,,,,,,,,67fab4a0d29e8a31f5e08e9e,001,3,2025-04-15_06h25.19.618,avatar_quest_3AFC_legacy,2022.1.3,Win32,64.1025641,67fab4a0d29e8a31f5e08e9e,67fe37cb3bd870bba73819bd,67fe3a14c1211f3d2e67ccf3,,,,,,,,,,,,,,,,,,,,,,With Brainslug No Barriers With Money,0,images/assets/snowy_money.jpg,learning,10,images/assets/success_money.jpg,images/assets/gameover.jpg,,,,,,,,,,,,,0,5,5,4,1,,,,,,,,,,,,,,,,,,,,,,,,,,,,,,,,
,,,,,,,,,,,,67fab4a0d29e8a31f5e08e9e,001,3,2025-04-15_06h25.19.618,avatar_quest_3AFC_legacy,2022.1.3,Win32,64.1025641,67fab4a0d29e8a31f5e08e9e,67fe37cb3bd870bba73819bd,67fe3a14c1211f3d2e67ccf3,,,,,,,,,,,,,,,,,,,,,,No Brainslug No Barriers No Money,0,images/assets/snowy_original.jpg,learning,10,images/assets/success.jpg,images/assets/gameover.jpg,,,,,,,,,,,,,0,6,6,10,1,,,,,,,,,,,,,,,,,,,,,,,,,,,,,,,,
,,,,,,,,,,,,67fab4a0d29e8a31f5e08e9e,001,3,2025-04-15_06h25.19.618,avatar_quest_3AFC_legacy,2022.1.3,Win32,64.1025641,67fab4a0d29e8a31f5e08e9e,67fe37cb3bd870bba73819bd,67fe3a14c1211f3d2e67ccf3,,,,,,,,,,,,,,,,,,,,,,No Brainslug No Barriers With Money,0,images/assets/snowy_money.jpg,learning,10,images/assets/success_money.jpg,images/assets/gameover.jpg,,,,,,,,,,,,,0,7,7,9,1,,,,,,,,,,,,,,,,,,,,,,,,,,,,,,,,
,,,,,,,,,,,,67fab4a0d29e8a31f5e08e9e,001,3,2025-04-15_06h25.19.618,avatar_quest_3AFC_legacy,2022.1.3,Win32,64.1025641,67fab4a0d29e8a31f5e08e9e,67fe37cb3bd870bba73819bd,67fe3a14c1211f3d2e67ccf3,,,,,,,,,,,,,,,,,,,,,,With Brainslug Difficult 2 No Money,12,images/assets/snowy_original.jpg,learning,20,images/assets/success.jpg,images/assets/gameover.jpg,,,,,,,,,,,,,0,8,8,3,1,,,,,,,,,,,,,,,,,,,,,,,,,,,,,,,,
,,,,,,,,,,,,67fab4a0d29e8a31f5e08e9e,001,3,2025-04-15_06h25.19.618,avatar_quest_3AFC_legacy,2022.1.3,Win32,64.1025641,67fab4a0d29e8a31f5e08e9e,67fe37cb3bd870bba73819bd,67fe3a14c1211f3d2e67ccf3,,,,,,,,,,,,,,,,,,,,,,No Brainslug Difficult 2 No Money,12,images/assets/snowy_original.jpg,learning,20,images/assets/success.jpg,images/assets/gameover.jpg,,,,,,,,,,,,,0,9,9,8,1,,,,,,,,,,,,,,,,,,,,,,,,,,,,,,,,
,,,,,,,,,,,,67fab4a0d29e8a31f5e08e9e,001,3,2025-04-15_06h25.19.618,avatar_quest_3AFC_legacy,2022.1.3,Win32,64.1025641,67fab4a0d29e8a31f5e08e9e,67fe37cb3bd870bba73819bd,67fe3a14c1211f3d2e67ccf3,,,,,,,,,,,,,,,,,,,,,,With Brainslug Difficult 1 No Money,6,images/assets/snowy_original.jpg,learning,20,images/assets/success.jpg,images/assets/gameover.jpg,,,,,,,,,,,,,0,10,10,1,1,,,,,,,,,,,,,,,,,,,,,,,,,,,,,,,,
,,,,,,,,,,,,67fab4a0d29e8a31f5e08e9e,001,3,2025-04-15_06h25.19.618,avatar_quest_3AFC_legacy,2022.1.3,Win32,64.1025641,67fab4a0d29e8a31f5e08e9e,67fe37cb3bd870bba73819bd,67fe3a14c1211f3d2e67ccf3,,,,,,,,,,,,,,,,,,,,,,,,,,,,,,,,,,,,,,,,,,,,,,,,,,,,,,,10,0,10,0,1,,,,,,,,,,,,,,,,,,
,,,,,,,,,,,,67fab4a0d29e8a31f5e08e9e,001,3,2025-04-15_06h25.19.618,avatar_quest_3AFC_legacy,2022.1.3,Win32,64.1025641,67fab4a0d29e8a31f5e08e9e,67fe37cb3bd870bba73819bd,67fe3a14c1211f3d2e67ccf3,,,,,,,,,,,,,,,,,,,,,,No Brainslug Difficult 2 With Money,12,images/assets/snowy_money.jpg,learning,20,images/assets/success_money.jpg,images/assets/gameover.jpg,,,,,,,,With Brainslug Difficult 2 With Money,With Brainslug Difficult 1 No Money,right,0.6366,"[""With Brainslug Difficult 1 No Money"",""With Brainslug Difficult 2 No Money""]",0,0,0,7,1,,,,,,,,,,,,,,,,,,,,,,,,,,,,,,,,
,,,,,,,,,,,,67fab4a0d29e8a31f5e08e9e,001,3,2025-04-15_06h25.19.618,avatar_quest_3AFC_legacy,2022.1.3,Win32,64.1025641,67fab4a0d29e8a31f5e08e9e,67fe37cb3bd870bba73819bd,67fe3a14c1211f3d2e67ccf3,"[""right"",""left"",""left"",""left"",""right"",""right"",""right"",""right"",""right"",""left"",""left"",""left"",""left"",""left"",""left"",""right""]","[0.922300000012001,1.275400000035802,2.89620000004777,4.680200000047762,5.42890000003581,6.146900000035771,6.72560000002386,7.858000000000061,8.071600000023864,8.277100000023893,9.930200000047762,10.104300000012017,10.466800000011972,10.8284000000358,11.386400000035792,11.38690000003578]",,calibration,With Brainslug Difficult 2 With Money,15,11.63215,11.7572,6,4,0,FALSE,na,na,na,na,,,,,,,,,,,,,,,,,,,,,,,,,,,,,,,,,,0,0,0,0,1,,,,,,,,,,,,,,,,,,,,,,,
,,,,,,,,,,,,67fab4a0d29e8a31f5e08e9e,001,3,2025-04-15_06h25.19.618,avatar_quest_3AFC_legacy,2022.1.3,Win32,64.1025641,67fab4a0d29e8a31f5e08e9e,67fe37cb3bd870bba73819bd,67fe3a14c1211f3d2e67ccf3,,,,,,,,,,,,,,,,,,,,,,With Brainslug Difficult 2 With Money,12,images/assets/snowy_money.jpg,learning,20,images/assets/success_money.jpg,images/assets/gameover.jpg,,,,,,,,,,,,,0,1,1,2,1,,,,,,,,,,,,,,,,,,,,,,,,,,,,,,,,
,,,,,,,,,,,,67fab4a0d29e8a31f5e08e9e,001,3,2025-04-15_06h25.19.618,avatar_quest_3AFC_legacy,2022.1.3,Win32,64.1025641,67fab4a0d29e8a31f5e08e9e,67fe37cb3bd870bba73819bd,67fe3a14c1211f3d2e67ccf3,,,,,,,,,,,,,,,,,,,,,,With Brainslug Difficult 1 No Money,6,images/assets/snowy_original.jpg,learning,20,images/assets/success.jpg,images/assets/gameover.jpg,,,,,,,,,,,,,0,2,2,1,1,,,,,,,,,,,,,,,,,,,,,,,,,,,,,,,,
,,,,,,,,,,,,67fab4a0d29e8a31f5e08e9e,001,3,2025-04-15_06h25.19.618,avatar_quest_3AFC_legacy,2022.1.3,Win32,64.1025641,67fab4a0d29e8a31f5e08e9e,67fe37cb3bd870bba73819bd,67fe3a14c1211f3d2e67ccf3,,,,,,,,,,,,,,,,,,,,,,With Brainslug No Barriers With Money,0,images/assets/snowy_money.jpg,learning,10,images/assets/success_money.jpg,images/assets/gameover.jpg,,,,,,,,,,,,,0,3,3,4,1,,,,,,,,,,,,,,,,,,,,,,,,,,,,,,,,
,,,,,,,,,,,,67fab4a0d29e8a31f5e08e9e,001,3,2025-04-15_06h25.19.618,avatar_quest_3AFC_legacy,2022.1.3,Win32,64.1025641,67fab4a0d29e8a31f5e08e9e,67fe37cb3bd870bba73819bd,67fe3a14c1211f3d2e67ccf3,,,,,,,,,,,,,,,,,,,,,,With Brainslug Difficult 2 No Money,12,images/assets/snowy_original.jpg,learning,20,images/assets/success.jpg,images/assets/gameover.jpg,,,,,,,,,,,,,0,4,4,3,1,,,,,,,,,,,,,,,,,,,,,,,,,,,,,,,,
,,,,,,,,,,,,67fab4a0d29e8a31f5e08e9e,001,3,2025-04-15_06h25.19.618,avatar_quest_3AFC_legacy,2022.1.3,Win32,64.1025641,67fab4a0d29e8a31f5e08e9e,67fe37cb3bd870bba73819bd,67fe3a14c1211f3d2e67ccf3,,,,,,,,,,,,,,,,,,,,,,No Brainslug Difficult 2 No Money,12,images/assets/snowy_original.jpg,learning,20,images/assets/success.jpg,images/assets/gameover.jpg,,,,,,,,,,,,,0,5,5,8,1,,,,,,,,,,,,,,,,,,,,,,,,,,,,,,,,
,,,,,,,,,,,,67fab4a0d29e8a31f5e08e9e,001,3,2025-04-15_06h25.19.618,avatar_quest_3AFC_legacy,2022.1.3,Win32,64.1025641,67fab4a0d29e8a31f5e08e9e,67fe37cb3bd870bba73819bd,67fe3a14c1211f3d2e67ccf3,,,,,,,,,,,,,,,,,,,,,,No Brainslug No Barriers No Money,0,images/assets/snowy_original.jpg,learning,10,images/assets/success.jpg,images/assets/gameover.jpg,,,,,,,,,,,,,0,6,6,10,1,,,,,,,,,,,,,,,,,,,,,,,,,,,,,,,,
,,,,,,,,,,,,67fab4a0d29e8a31f5e08e9e,001,3,2025-04-15_06h25.19.618,avatar_quest_3AFC_legacy,2022.1.3,Win32,64.1025641,67fab4a0d29e8a31f5e08e9e,67fe37cb3bd870bba73819bd,67fe3a14c1211f3d2e67ccf3,,,,,,,,,,,,,,,,,,,,,,With Brainslug Difficult 1 With Money,6,images/assets/snowy_money.jpg,learning,20,images/assets/success_money.jpg,images/assets/gameover.jpg,,,,,,,,,,,,,0,7,7,0,1,,,,,,,,,,,,,,,,,,,,,,,,,,,,,,,,
,,,,,,,,,,,,67fab4a0d29e8a31f5e08e9e,001,3,2025-04-15_06h25.19.618,avatar_quest_3AFC_legacy,2022.1.3,Win32,64.1025641,67fab4a0d29e8a31f5e08e9e,67fe37cb3bd870bba73819bd,67fe3a14c1211f3d2e67ccf3,,,,,,,,,,,,,,,,,,,,,,No Brainslug Difficult 1 No Money,6,images/assets/snowy_original.jpg,learning,20,images/assets/success.jpg,images/assets/gameover.jpg,,,,,,,,,,,,,0,8,8,6,1,,,,,,,,,,,,,,,,,,,,,,,,,,,,,,,,
,,,,,,,,,,,,67fab4a0d29e8a31f5e08e9e,001,3,2025-04-15_06h25.19.618,avatar_quest_3AFC_legacy,2022.1.3,Win32,64.1025641,67fab4a0d29e8a31f5e08e9e,67fe37cb3bd870bba73819bd,67fe3a14c1211f3d2e67ccf3,,,,,,,,,,,,,,,,,,,,,,With Brainslug No Barriers No Money,0,images/assets/snowy_original.jpg,learning,10,images/assets/success.jpg,images/assets/gameover.jpg,,,,,,,,,,,,,0,9,9,5,1,,,,,,,,,,,,,,,,,,,,,,,,,,,,,,,,
,,,,,,,,,,,,67fab4a0d29e8a31f5e08e9e,001,3,2025-04-15_06h25.19.618,avatar_quest_3AFC_legacy,2022.1.3,Win32,64.1025641,67fab4a0d29e8a31f5e08e9e,67fe37cb3bd870bba73819bd,67fe3a14c1211f3d2e67ccf3,,,,,,,,,,,,,,,,,,,,,,No Brainslug No Barriers With Money,0,images/assets/snowy_money.jpg,learning,10,images/assets/success_money.jpg,images/assets/gameover.jpg,,,,,,,,,,,,,0,10,10,9,1,,,,,,,,,,,,,,,,,,,,,,,,,,,,,,,,
,,,,,,,,,,,,67fab4a0d29e8a31f5e08e9e,001,3,2025-04-15_06h25.19.618,avatar_quest_3AFC_legacy,2022.1.3,Win32,64.1025641,67fab4a0d29e8a31f5e08e9e,67fe37cb3bd870bba73819bd,67fe3a14c1211f3d2e67ccf3,,,,,,,,,,,,,,,,,,,,,,,,,,,,,,,,,,,,,,,,,,,,,,,,,,,,,,,11,0,11,0,1,,,,,,,,,,,,,,,,,,
,,,,,,,,,,,,67fab4a0d29e8a31f5e08e9e,001,3,2025-04-15_06h25.19.618,avatar_quest_3AFC_legacy,2022.1.3,Win32,64.1025641,67fab4a0d29e8a31f5e08e9e,67fe37cb3bd870bba73819bd,67fe3a14c1211f3d2e67ccf3,,,,,,,,,,,,,,,,,,,,,,,,,,,,,,,,,,,,,,,,,,,,,,,,,,,,,,,,,,,,0,0,0,0,1,1,With Brainslug Difficult 1 No Money,images/assets/With Brainslug Difficult 1 No Money.png,With Brainslug Difficult 2 No Money,images/assets/With Brainslug Difficult 2 No Money.png,With Brainslug Difficult 2 With Money,images/assets/With Brainslug Difficult 2 With Money.png,Achievement vs. money,,,,,
,,,,,,,,,,,,67fab4a0d29e8a31f5e08e9e,001,3,2025-04-15_06h25.19.618,avatar_quest_3AFC_legacy,2022.1.3,Win32,64.1025641,67fab4a0d29e8a31f5e08e9e,67fe37cb3bd870bba73819bd,67fe3a14c1211f3d2e67ccf3,,,,,,,,,,,,,,,,,,,,,,With Brainslug No Barriers With Money,0,images/assets/snowy_money.jpg,learning,10,images/assets/success_money.jpg,images/assets/gameover.jpg,,,,,,,,No Brainslug No Barriers With Money,No Brainslug No Barriers No Money,right,0.0123,"[""No Brainslug No Barriers No Money"",""No Brainslug Difficult 1 No Money""]",0,0,0,4,1,,,,,,,,,,,,,,,,,,,,,,,,,,,,,,,,
,,,,,,,,,,,,67fab4a0d29e8a31f5e08e9e,001,3,2025-04-15_06h25.19.618,avatar_quest_3AFC_legacy,2022.1.3,Win32,64.1025641,67fab4a0d29e8a31f5e08e9e,67fe37cb3bd870bba73819bd,67fe3a14c1211f3d2e67ccf3,,,,,,,,,,,,,,,,,,,,,,No Brainslug Difficult 2 With Money,12,images/assets/snowy_money.jpg,learning,20,images/assets/success_money.jpg,images/assets/gameover.jpg,,,,,,,,,,,,,0,1,1,7,1,,,,,,,,,,,,,,,,,,,,,,,,,,,,,,,,
,,,,,,,,,,,,67fab4a0d29e8a31f5e08e9e,001,3,2025-04-15_06h25.19.618,avatar_quest_3AFC_legacy,2022.1.3,Win32,64.1025641,67fab4a0d29e8a31f5e08e9e,67fe37cb3bd870bba73819bd,67fe3a14c1211f3d2e67ccf3,,,,,,,,,,,,,,,,,,,,,,With Brainslug No Barriers No Money,0,images/assets/snowy_original.jpg,learning,10,images/assets/success.jpg,images/assets/gameover.jpg,,,,,,,,,,,,,0,2,2,5,1,,,,,,,,,,,,,,,,,,,,,,,,,,,,,,,,
,,,,,,,,,,,,67fab4a0d29e8a31f5e08e9e,001,3,2025-04-15_06h25.19.618,avatar_quest_3AFC_legacy,2022.1.3,Win32,64.1025641,67fab4a0d29e8a31f5e08e9e,67fe37cb3bd870bba73819bd,67fe3a14c1211f3d2e67ccf3,,,,,,,,,,,,,,,,,,,,,,With Brainslug Difficult 1 No Money,6,images/assets/snowy_original.jpg,learning,20,images/assets/success.jpg,images/assets/gameover.jpg,,,,,,,,,,,,,0,3,3,1,1,,,,,,,,,,,,,,,,,,,,,,,,,,,,,,,,
,,,,,,,,,,,,67fab4a0d29e8a31f5e08e9e,001,3,2025-04-15_06h25.19.618,avatar_quest_3AFC_legacy,2022.1.3,Win32,64.1025641,67fab4a0d29e8a31f5e08e9e,67fe37cb3bd870bba73819bd,67fe3a14c1211f3d2e67ccf3,,,,,,,,,,,,,,,,,,,,,,With Brainslug Difficult 2 No Money,12,images/assets/snowy_original.jpg,learning,20,images/assets/success.jpg,images/assets/gameover.jpg,,,,,,,,,,,,,0,4,4,3,1,,,,,,,,,,,,,,,,,,,,,,,,,,,,,,,,
,,,,,,,,,,,,67fab4a0d29e8a31f5e08e9e,001,3,2025-04-15_06h25.19.618,avatar_quest_3AFC_legacy,2022.1.3,Win32,64.1025641,67fab4a0d29e8a31f5e08e9e,67fe37cb3bd870bba73819bd,67fe3a14c1211f3d2e67ccf3,,,,,,,,,,,,,,,,,,,,,,No Brainslug Difficult 1 No Money,6,images/assets/snowy_original.jpg,learning,20,images/assets/success.jpg,images/assets/gameover.jpg,,,,,,,,,,,,,0,5,5,6,1,,,,,,,,,,,,,,,,,,,,,,,,,,,,,,,,
,,,,,,,,,,,,67fab4a0d29e8a31f5e08e9e,001,3,2025-04-15_06h25.19.618,avatar_quest_3AFC_legacy,2022.1.3,Win32,64.1025641,67fab4a0d29e8a31f5e08e9e,67fe37cb3bd870bba73819bd,67fe3a14c1211f3d2e67ccf3,"[""left"",""left"",""left"",""left"",""right"",""right"",""right"",""right"",""left""]","[1.2214000000357146,2.7441000000238773,3.5753000000119073,4.26580000001195,4.600699999988024,4.938100000023837,5.2734000000357355,5.76869999998803,5.768900000035728]",,calibration,No Brainslug No Barriers With Money,16,9.30572,7.2634,8,0,0,TRUE,na,na,na,na,,,,,,,,,,,,,,,,,,,,,,,,,,,,,,,,,,0,0,0,0,1,,,,,,,,,,,,,,,,,,,,,,,
,,,,,,,,,,,,67fab4a0d29e8a31f5e08e9e,001,3,2025-04-15_06h25.19.618,avatar_quest_3AFC_legacy,2022.1.3,Win32,64.1025641,67fab4a0d29e8a31f5e08e9e,67fe37cb3bd870bba73819bd,67fe3a14c1211f3d2e67ccf3,,,,,,,,,,,,,,,,,,,,,,No Brainslug No Barriers With Money,0,images/assets/snowy_money.jpg,learning,10,images/assets/success_money.jpg,images/assets/gameover.jpg,,,,,,,,,,,,,0,6,6,9,1,,,,,,,,,,,,,,,,,,,,,,,,,,,,,,,,
,,,,,,,,,,,,67fab4a0d29e8a31f5e08e9e,001,3,2025-04-15_06h25.19.618,avatar_quest_3AFC_legacy,2022.1.3,Win32,64.1025641,67fab4a0d29e8a31f5e08e9e,67fe37cb3bd870bba73819bd,67fe3a14c1211f3d2e67ccf3,,,,,,,,,,,,,,,,,,,,,,With Brainslug Difficult 1 With Money,6,images/assets/snowy_money.jpg,learning,20,images/assets/success_money.jpg,images/assets/gameover.jpg,,,,,,,,,,,,,0,7,7,0,1,,,,,,,,,,,,,,,,,,,,,,,,,,,,,,,,
,,,,,,,,,,,,67fab4a0d29e8a31f5e08e9e,001,3,2025-04-15_06h25.19.618,avatar_quest_3AFC_legacy,2022.1.3,Win32,64.1025641,67fab4a0d29e8a31f5e08e9e,67fe37cb3bd870bba73819bd,67fe3a14c1211f3d2e67ccf3,,,,,,,,,,,,,,,,,,,,,,No Brainslug No Barriers No Money,0,images/assets/snowy_original.jpg,learning,10,images/assets/success.jpg,images/assets/gameover.jpg,,,,,,,,,,,,,0,8,8,10,1,,,,,,,,,,,,,,,,,,,,,,,,,,,,,,,,
,,,,,,,,,,,,67fab4a0d29e8a31f5e08e9e,001,3,2025-04-15_06h25.19.618,avatar_quest_3AFC_legacy,2022.1.3,Win32,64.1025641,67fab4a0d29e8a31f5e08e9e,67fe37cb3bd870bba73819bd,67fe3a14c1211f3d2e67ccf3,,,,,,,,,,,,,,,,,,,,,,No Brainslug Difficult 2 No Money,12,images/assets/snowy_original.jpg,learning,20,images/assets/success.jpg,images/assets/gameover.jpg,,,,,,,,,,,,,0,9,9,8,1,,,,,,,,,,,,,,,,,,,,,,,,,,,,,,,,
,,,,,,,,,,,,67fab4a0d29e8a31f5e08e9e,001,3,2025-04-15_06h25.19.618,avatar_quest_3AFC_legacy,2022.1.3,Win32,64.1025641,67fab4a0d29e8a31f5e08e9e,67fe37cb3bd870bba73819bd,67fe3a14c1211f3d2e67ccf3,,,,,,,,,,,,,,,,,,,,,,With Brainslug Difficult 2 With Money,12,images/assets/snowy_money.jpg,learning,20,images/assets/success_money.jpg,images/assets/gameover.jpg,,,,,,,,,,,,,0,10,10,2,1,,,,,,,,,,,,,,,,,,,,,,,,,,,,,,,,
,,,,,,,,,,,,67fab4a0d29e8a31f5e08e9e,001,3,2025-04-15_06h25.19.618,avatar_quest_3AFC_legacy,2022.1.3,Win32,64.1025641,67fab4a0d29e8a31f5e08e9e,67fe37cb3bd870bba73819bd,67fe3a14c1211f3d2e67ccf3,,,,,,,,,,,,,,,,,,,,,,,,,,,,,,,,,,,,,,,,,,,,,,,,,,,,,,,0,0,0,0,1,,,,,,,,,,,,,,,,,,
,,,,,,,,,,,,67fab4a0d29e8a31f5e08e9e,001,3,2025-04-15_06h25.19.618,avatar_quest_3AFC_legacy,2022.1.3,Win32,64.1025641,67fab4a0d29e8a31f5e08e9e,67fe37cb3bd870bba73819bd,67fe3a14c1211f3d2e67ccf3,"[""left""]",[1.976699999988],,calibration,No Brainslug No Barriers With Money,17,9.30572,7.1257,1,0,0,TRUE,na,na,na,na,,,,,,,,,,,,,,,,,,,,No Brainslug No Barriers With Money,No Brainslug No Barriers No Money,right,2.5892,"[""No Brainslug No Barriers No Money"",""No Brainslug Difficult 1 No Money""]",,,,,,,,,,0,0,0,0,1,,,,,,,,,,,,,,,,,,,,,,,
,,,,,,,,,,,,67fab4a0d29e8a31f5e08e9e,001,3,2025-04-15_06h25.19.618,avatar_quest_3AFC_legacy,2022.1.3,Win32,64.1025641,67fab4a0d29e8a31f5e08e9e,67fe37cb3bd870bba73819bd,67fe3a14c1211f3d2e67ccf3,,,,,,,,,,,,,,,,,,,,,,No Brainslug No Barriers With Money,0,images/assets/snowy_money.jpg,learning,10,images/assets/success_money.jpg,images/assets/gameover.jpg,,,,,,,,,,,,,0,0,0,9,1,,,,,,,,,,,,,,,,,,,,,,,,,,,,,,,,
,,,,,,,,,,,,67fab4a0d29e8a31f5e08e9e,001,3,2025-04-15_06h25.19.618,avatar_quest_3AFC_legacy,2022.1.3,Win32,64.1025641,67fab4a0d29e8a31f5e08e9e,67fe37cb3bd870bba73819bd,67fe3a14c1211f3d2e67ccf3,,,,,,,,,,,,,,,,,,,,,,With Brainslug Difficult 1 No Money,6,images/assets/snowy_original.jpg,learning,20,images/assets/success.jpg,images/assets/gameover.jpg,,,,,,,,,,,,,0,1,1,1,1,,,,,,,,,,,,,,,,,,,,,,,,,,,,,,,,
,,,,,,,,,,,,67fab4a0d29e8a31f5e08e9e,001,3,2025-04-15_06h25.19.618,avatar_quest_3AFC_legacy,2022.1.3,Win32,64.1025641,67fab4a0d29e8a31f5e08e9e,67fe37cb3bd870bba73819bd,67fe3a14c1211f3d2e67ccf3,,,,,,,,,,,,,,,,,,,,,,With Brainslug Difficult 2 No Money,12,images/assets/snowy_original.jpg,learning,20,images/assets/success.jpg,images/assets/gameover.jpg,,,,,,,,,,,,,0,2,2,3,1,,,,,,,,,,,,,,,,,,,,,,,,,,,,,,,,
,,,,,,,,,,,,67fab4a0d29e8a31f5e08e9e,001,3,2025-04-15_06h25.19.618,avatar_quest_3AFC_legacy,2022.1.3,Win32,64.1025641,67fab4a0d29e8a31f5e08e9e,67fe37cb3bd870bba73819bd,67fe3a14c1211f3d2e67ccf3,,,,,,,,,,,,,,,,,,,,,,No Brainslug Difficult 2 No Money,12,images/assets/snowy_original.jpg,learning,20,images/assets/success.jpg,images/assets/gameover.jpg,,,,,,,,,,,,,0,3,3,8,1,,,,,,,,,,,,,,,,,,,,,,,,,,,,,,,,
,,,,,,,,,,,,67fab4a0d29e8a31f5e08e9e,001,3,2025-04-15_06h25.19.618,avatar_quest_3AFC_legacy,2022.1.3,Win32,64.1025641,67fab4a0d29e8a31f5e08e9e,67fe37cb3bd870bba73819bd,67fe3a14c1211f3d2e67ccf3,,,,,,,,,,,,,,,,,,,,,,With Brainslug No Barriers With Money,0,images/assets/snowy_money.jpg,learning,10,images/assets/success_money.jpg,images/assets/gameover.jpg,,,,,,,,,,,,,0,4,4,4,1,,,,,,,,,,,,,,,,,,,,,,,,,,,,,,,,
,,,,,,,,,,,,67fab4a0d29e8a31f5e08e9e,001,3,2025-04-15_06h25.19.618,avatar_quest_3AFC_legacy,2022.1.3,Win32,64.1025641,67fab4a0d29e8a31f5e08e9e,67fe37cb3bd870bba73819bd,67fe3a14c1211f3d2e67ccf3,,,,,,,,,,,,,,,,,,,,,,No Brainslug Difficult 2 With Money,12,images/assets/snowy_money.jpg,learning,20,images/assets/success_money.jpg,images/assets/gameover.jpg,,,,,,,,,,,,,0,5,5,7,1,,,,,,,,,,,,,,,,,,,,,,,,,,,,,,,,
,,,,,,,,,,,,67fab4a0d29e8a31f5e08e9e,001,3,2025-04-15_06h25.19.618,avatar_quest_3AFC_legacy,2022.1.3,Win32,64.1025641,67fab4a0d29e8a31f5e08e9e,67fe37cb3bd870bba73819bd,67fe3a14c1211f3d2e67ccf3,,,,,,,,,,,,,,,,,,,,,,With Brainslug No Barriers No Money,0,images/assets/snowy_original.jpg,learning,10,images/assets/success.jpg,images/assets/gameover.jpg,,,,,,,,,,,,,0,6,6,5,1,,,,,,,,,,,,,,,,,,,,,,,,,,,,,,,,
,,,,,,,,,,,,67fab4a0d29e8a31f5e08e9e,001,3,2025-04-15_06h25.19.618,avatar_quest_3AFC_legacy,2022.1.3,Win32,64.1025641,67fab4a0d29e8a31f5e08e9e,67fe37cb3bd870bba73819bd,67fe3a14c1211f3d2e67ccf3,,,,,,,,,,,,,,,,,,,,,,No Brainslug No Barriers No Money,0,images/assets/snowy_original.jpg,learning,10,images/assets/success.jpg,images/assets/gameover.jpg,,,,,,,,,,,,,0,7,7,10,1,,,,,,,,,,,,,,,,,,,,,,,,,,,,,,,,
,,,,,,,,,,,,67fab4a0d29e8a31f5e08e9e,001,3,2025-04-15_06h25.19.618,avatar_quest_3AFC_legacy,2022.1.3,Win32,64.1025641,67fab4a0d29e8a31f5e08e9e,67fe37cb3bd870bba73819bd,67fe3a14c1211f3d2e67ccf3,,,,,,,,,,,,,,,,,,,,,,With Brainslug Difficult 1 With Money,6,images/assets/snowy_money.jpg,learning,20,images/assets/success_money.jpg,images/assets/gameover.jpg,,,,,,,,,,,,,0,8,8,0,1,,,,,,,,,,,,,,,,,,,,,,,,,,,,,,,,
,,,,,,,,,,,,67fab4a0d29e8a31f5e08e9e,001,3,2025-04-15_06h25.19.618,avatar_quest_3AFC_legacy,2022.1.3,Win32,64.1025641,67fab4a0d29e8a31f5e08e9e,67fe37cb3bd870bba73819bd,67fe3a14c1211f3d2e67ccf3,,,,,,,,,,,,,,,,,,,,,,No Brainslug Difficult 1 No Money,6,images/assets/snowy_original.jpg,learning,20,images/assets/success.jpg,images/assets/gameover.jpg,,,,,,,,,,,,,0,9,9,6,1,,,,,,,,,,,,,,,,,,,,,,,,,,,,,,,,
,,,,,,,,,,,,67fab4a0d29e8a31f5e08e9e,001,3,2025-04-15_06h25.19.618,avatar_quest_3AFC_legacy,2022.1.3,Win32,64.1025641,67fab4a0d29e8a31f5e08e9e,67fe37cb3bd870bba73819bd,67fe3a14c1211f3d2e67ccf3,,,,,,,,,,,,,,,,,,,,,,With Brainslug Difficult 2 With Money,12,images/assets/snowy_money.jpg,learning,20,images/assets/success_money.jpg,images/assets/gameover.jpg,,,,,,,,,,,,,0,10,10,2,1,,,,,,,,,,,,,,,,,,,,,,,,,,,,,,,,
,,,,,,,,,,,,67fab4a0d29e8a31f5e08e9e,001,3,2025-04-15_06h25.19.618,avatar_quest_3AFC_legacy,2022.1.3,Win32,64.1025641,67fab4a0d29e8a31f5e08e9e,67fe37cb3bd870bba73819bd,67fe3a14c1211f3d2e67ccf3,,,,,,,,,,,,,,,,,,,,,,,,,,,,,,,,,,,,,,,,,,,,,,,,,,,,,,,1,0,1,0,1,,,,,,,,,,,,,,,,,,
,,,,,,,,,,,,67fab4a0d29e8a31f5e08e9e,001,3,2025-04-15_06h25.19.618,avatar_quest_3AFC_legacy,2022.1.3,Win32,64.1025641,67fab4a0d29e8a31f5e08e9e,67fe37cb3bd870bba73819bd,67fe3a14c1211f3d2e67ccf3,,,,,,,,,,,,,,,,,,,,,,With Brainslug Difficult 2 No Money,12,images/assets/snowy_original.jpg,learning,20,images/assets/success.jpg,images/assets/gameover.jpg,,,,,,,,No Brainslug No Barriers With Money,No Brainslug No Barriers No Money,right,1.7038,"[""No Brainslug No Barriers No Money"",""No Brainslug Difficult 1 No Money""]",0,0,0,3,1,,,,,,,,,,,,,,,,,,,,,,,,,,,,,,,,
,,,,,,,,,,,,67fab4a0d29e8a31f5e08e9e,001,3,2025-04-15_06h25.19.618,avatar_quest_3AFC_legacy,2022.1.3,Win32,64.1025641,67fab4a0d29e8a31f5e08e9e,67fe37cb3bd870bba73819bd,67fe3a14c1211f3d2e67ccf3,,,,,,,,,,,,,,,,,,,,,,With Brainslug Difficult 1 With Money,6,images/assets/snowy_money.jpg,learning,20,images/assets/success_money.jpg,images/assets/gameover.jpg,,,,,,,,,,,,,0,1,1,0,1,,,,,,,,,,,,,,,,,,,,,,,,,,,,,,,,
,,,,,,,,,,,,67fab4a0d29e8a31f5e08e9e,001,3,2025-04-15_06h25.19.618,avatar_quest_3AFC_legacy,2022.1.3,Win32,64.1025641,67fab4a0d29e8a31f5e08e9e,67fe37cb3bd870bba73819bd,67fe3a14c1211f3d2e67ccf3,,,,,,,,,,,,,,,,,,,,,,With Brainslug Difficult 2 With Money,12,images/assets/snowy_money.jpg,learning,20,images/assets/success_money.jpg,images/assets/gameover.jpg,,,,,,,,,,,,,0,2,2,2,1,,,,,,,,,,,,,,,,,,,,,,,,,,,,,,,,
,,,,,,,,,,,,67fab4a0d29e8a31f5e08e9e,001,3,2025-04-15_06h25.19.618,avatar_quest_3AFC_legacy,2022.1.3,Win32,64.1025641,67fab4a0d29e8a31f5e08e9e,67fe37cb3bd870bba73819bd,67fe3a14c1211f3d2e67ccf3,,,,,,,,,,,,,,,,,,,,,,With Brainslug Difficult 1 No Money,6,images/assets/snowy_original.jpg,learning,20,images/assets/success.jpg,images/assets/gameover.jpg,,,,,,,,,,,,,0,3,3,1,1,,,,,,,,,,,,,,,,,,,,,,,,,,,,,,,,
,,,,,,,,,,,,67fab4a0d29e8a31f5e08e9e,001,3,2025-04-15_06h25.19.618,avatar_quest_3AFC_legacy,2022.1.3,Win32,64.1025641,67fab4a0d29e8a31f5e08e9e,67fe37cb3bd870bba73819bd,67fe3a14c1211f3d2e67ccf3,,,,,,,,,,,,,,,,,,,,,,No Brainslug Difficult 2 With Money,12,images/assets/snowy_money.jpg,learning,20,images/assets/success_money.jpg,images/assets/gameover.jpg,,,,,,,,,,,,,0,4,4,7,1,,,,,,,,,,,,,,,,,,,,,,,,,,,,,,,,
,,,,,,,,,,,,67fab4a0d29e8a31f5e08e9e,001,3,2025-04-15_06h25.19.618,avatar_quest_3AFC_legacy,2022.1.3,Win32,64.1025641,67fab4a0d29e8a31f5e08e9e,67fe37cb3bd870bba73819bd,67fe3a14c1211f3d2e67ccf3,,,,,,,,,,,,,,,,,,,,,,With Brainslug No Barriers No Money,0,images/assets/snowy_original.jpg,learning,10,images/assets/success.jpg,images/assets/gameover.jpg,,,,,,,,,,,,,0,5,5,5,1,,,,,,,,,,,,,,,,,,,,,,,,,,,,,,,,
,,,,,,,,,,,,67fab4a0d29e8a31f5e08e9e,001,3,2025-04-15_06h25.19.618,avatar_quest_3AFC_legacy,2022.1.3,Win32,64.1025641,67fab4a0d29e8a31f5e08e9e,67fe37cb3bd870bba73819bd,67fe3a14c1211f3d2e67ccf3,,,,,,,,,,,,,,,,,,,,,,No Brainslug No Barriers No Money,0,images/assets/snowy_original.jpg,learning,10,images/assets/success.jpg,images/assets/gameover.jpg,,,,,,,,,,,,,0,6,6,10,1,,,,,,,,,,,,,,,,,,,,,,,,,,,,,,,,
,,,,,,,,,,,,67fab4a0d29e8a31f5e08e9e,001,3,2025-04-15_06h25.19.618,avatar_quest_3AFC_legacy,2022.1.3,Win32,64.1025641,67fab4a0d29e8a31f5e08e9e,67fe37cb3bd870bba73819bd,67fe3a14c1211f3d2e67ccf3,,,,,,,,,,,,,,,,,,,,,,No Brainslug Difficult 1 No Money,6,images/assets/snowy_original.jpg,learning,20,images/assets/success.jpg,images/assets/gameover.jpg,,,,,,,,,,,,,0,7,7,6,1,,,,,,,,,,,,,,,,,,,,,,,,,,,,,,,,
,,,,,,,,,,,,67fab4a0d29e8a31f5e08e9e,001,3,2025-04-15_06h25.19.618,avatar_quest_3AFC_legacy,2022.1.3,Win32,64.1025641,67fab4a0d29e8a31f5e08e9e,67fe37cb3bd870bba73819bd,67fe3a14c1211f3d2e67ccf3,,,,,,,,,,,,,,,,,,,,,,No Brainslug Difficult 2 No Money,12,images/assets/snowy_original.jpg,learning,20,images/assets/success.jpg,images/assets/gameover.jpg,,,,,,,,,,,,,0,8,8,8,1,,,,,,,,,,,,,,,,,,,,,,,,,,,,,,,,
,,,,,,,,,,,,67fab4a0d29e8a31f5e08e9e,001,3,2025-04-15_06h25.19.618,avatar_quest_3AFC_legacy,2022.1.3,Win32,64.1025641,67fab4a0d29e8a31f5e08e9e,67fe37cb3bd870bba73819bd,67fe3a14c1211f3d2e67ccf3,"[""left"",""left"",""right""]","[2.790599999964229,3.4808999999761454,4.364699999988034]",,calibration,No Brainslug No Barriers With Money,18,9.30572,7.4416,3,0,0,TRUE,na,na,na,na,,,,,,,,,,,,,,,,,,,,,,,,,,,,,,,,,,0,0,0,0,1,,,,,,,,,,,,,,,,,,,,,,,
,,,,,,,,,,,,67fab4a0d29e8a31f5e08e9e,001,3,2025-04-15_06h25.19.618,avatar_quest_3AFC_legacy,2022.1.3,Win32,64.1025641,67fab4a0d29e8a31f5e08e9e,67fe37cb3bd870bba73819bd,67fe3a14c1211f3d2e67ccf3,,,,,,,,,,,,,,,,,,,,,,No Brainslug No Barriers With Money,0,images/assets/snowy_money.jpg,learning,10,images/assets/success_money.jpg,images/assets/gameover.jpg,,,,,,,,,,,,,0,9,9,9,1,,,,,,,,,,,,,,,,,,,,,,,,,,,,,,,,
,,,,,,,,,,,,67fab4a0d29e8a31f5e08e9e,001,3,2025-04-15_06h25.19.618,avatar_quest_3AFC_legacy,2022.1.3,Win32,64.1025641,67fab4a0d29e8a31f5e08e9e,67fe37cb3bd870bba73819bd,67fe3a14c1211f3d2e67ccf3,,,,,,,,,,,,,,,,,,,,,,With Brainslug No Barriers With Money,0,images/assets/snowy_money.jpg,learning,10,images/assets/success_money.jpg,images/assets/gameover.jpg,,,,,,,,,,,,,0,10,10,4,1,,,,,,,,,,,,,,,,,,,,,,,,,,,,,,,,
,,,,,,,,,,,,67fab4a0d29e8a31f5e08e9e,001,3,2025-04-15_06h25.19.618,avatar_quest_3AFC_legacy,2022.1.3,Win32,64.1025641,67fab4a0d29e8a31f5e08e9e,67fe37cb3bd870bba73819bd,67fe3a14c1211f3d2e67ccf3,,,,,,,,,,,,,,,,,,,,,,,,,,,,,,,,,,,,,,,,,,,,,,,,,,,,,,,2,0,2,0,1,,,,,,,,,,,,,,,,,,
,,,,,,,,,,,,67fab4a0d29e8a31f5e08e9e,001,3,2025-04-15_06h25.19.618,avatar_quest_3AFC_legacy,2022.1.3,Win32,64.1025641,67fab4a0d29e8a31f5e08e9e,67fe37cb3bd870bba73819bd,67fe3a14c1211f3d2e67ccf3,"[""left"",""right"",""left"",""left"",""right"",""right"",""right"",""right"",""left"",""left"",""right"",""left""]","[4.908600000023853,5.74069999998801,6.236600000023827,6.72849999999994,6.7288000000119155,7.061699999988036,7.226399999976138,7.390199999988113,7.722999999999956,8.054499999999962,8.562899999976139,8.893899999976156]",,calibration,No Brainslug No Barriers With Money,19,9.30572,9.3875,9,0,15,FALSE,na,na,na,na,,,,,,,,,,,,,,,,,,,,No Brainslug No Barriers With Money,No Brainslug No Barriers No Money,right,1.5865,"[""No Brainslug No Barriers No Money"",""No Brainslug Difficult 1 No Money""]",,,,,,,,,,0,0,0,0,1,,,,,,,,,,,,,,,,,,,,,,,
,,,,,,,,,,,,67fab4a0d29e8a31f5e08e9e,001,3,2025-04-15_06h25.19.618,avatar_quest_3AFC_legacy,2022.1.3,Win32,64.1025641,67fab4a0d29e8a31f5e08e9e,67fe37cb3bd870bba73819bd,67fe3a14c1211f3d2e67ccf3,,,,,,,,,,,,,,,,,,,,,,No Brainslug No Barriers With Money,0,images/assets/snowy_money.jpg,learning,10,images/assets/success_money.jpg,images/assets/gameover.jpg,,,,,,,,,,,,,0,0,0,9,1,,,,,,,,,,,,,,,,,,,,,,,,,,,,,,,,
,,,,,,,,,,,,67fab4a0d29e8a31f5e08e9e,001,3,2025-04-15_06h25.19.618,avatar_quest_3AFC_legacy,2022.1.3,Win32,64.1025641,67fab4a0d29e8a31f5e08e9e,67fe37cb3bd870bba73819bd,67fe3a14c1211f3d2e67ccf3,,,,,,,,,,,,,,,,,,,,,,With Brainslug Difficult 2 No Money,12,images/assets/snowy_original.jpg,learning,20,images/assets/success.jpg,images/assets/gameover.jpg,,,,,,,,,,,,,0,1,1,3,1,,,,,,,,,,,,,,,,,,,,,,,,,,,,,,,,
,,,,,,,,,,,,67fab4a0d29e8a31f5e08e9e,001,3,2025-04-15_06h25.19.618,avatar_quest_3AFC_legacy,2022.1.3,Win32,64.1025641,67fab4a0d29e8a31f5e08e9e,67fe37cb3bd870bba73819bd,67fe3a14c1211f3d2e67ccf3,,,,,,,,,,,,,,,,,,,,,,No Brainslug Difficult 2 With Money,12,images/assets/snowy_money.jpg,learning,20,images/assets/success_money.jpg,images/assets/gameover.jpg,,,,,,,,,,,,,0,2,2,7,1,,,,,,,,,,,,,,,,,,,,,,,,,,,,,,,,
,,,,,,,,,,,,67fab4a0d29e8a31f5e08e9e,001,3,2025-04-15_06h25.19.618,avatar_quest_3AFC_legacy,2022.1.3,Win32,64.1025641,67fab4a0d29e8a31f5e08e9e,67fe37cb3bd870bba73819bd,67fe3a14c1211f3d2e67ccf3,,,,,,,,,,,,,,,,,,,,,,No Brainslug No Barriers No Money,0,images/assets/snowy_original.jpg,learning,10,images/assets/success.jpg,images/assets/gameover.jpg,,,,,,,,,,,,,0,3,3,10,1,,,,,,,,,,,,,,,,,,,,,,,,,,,,,,,,
,,,,,,,,,,,,67fab4a0d29e8a31f5e08e9e,001,3,2025-04-15_06h25.19.618,avatar_quest_3AFC_legacy,2022.1.3,Win32,64.1025641,67fab4a0d29e8a31f5e08e9e,67fe37cb3bd870bba73819bd,67fe3a14c1211f3d2e67ccf3,,,,,,,,,,,,,,,,,,,,,,No Brainslug Difficult 2 No Money,12,images/assets/snowy_original.jpg,learning,20,images/assets/success.jpg,images/assets/gameover.jpg,,,,,,,,,,,,,0,4,4,8,1,,,,,,,,,,,,,,,,,,,,,,,,,,,,,,,,
,,,,,,,,,,,,67fab4a0d29e8a31f5e08e9e,001,3,2025-04-15_06h25.19.618,avatar_quest_3AFC_legacy,2022.1.3,Win32,64.1025641,67fab4a0d29e8a31f5e08e9e,67fe37cb3bd870bba73819bd,67fe3a14c1211f3d2e67ccf3,,,,,,,,,,,,,,,,,,,,,,With Brainslug No Barriers No Money,0,images/assets/snowy_original.jpg,learning,10,images/assets/success.jpg,images/assets/gameover.jpg,,,,,,,,,,,,,0,5,5,5,1,,,,,,,,,,,,,,,,,,,,,,,,,,,,,,,,
,,,,,,,,,,,,67fab4a0d29e8a31f5e08e9e,001,3,2025-04-15_06h25.19.618,avatar_quest_3AFC_legacy,2022.1.3,Win32,64.1025641,67fab4a0d29e8a31f5e08e9e,67fe37cb3bd870bba73819bd,67fe3a14c1211f3d2e67ccf3,,,,,,,,,,,,,,,,,,,,,,No Brainslug Difficult 1 No Money,6,images/assets/snowy_original.jpg,learning,20,images/assets/success.jpg,images/assets/gameover.jpg,,,,,,,,,,,,,0,6,6,6,1,,,,,,,,,,,,,,,,,,,,,,,,,,,,,,,,
,,,,,,,,,,,,67fab4a0d29e8a31f5e08e9e,001,3,2025-04-15_06h25.19.618,avatar_quest_3AFC_legacy,2022.1.3,Win32,64.1025641,67fab4a0d29e8a31f5e08e9e,67fe37cb3bd870bba73819bd,67fe3a14c1211f3d2e67ccf3,,,,,,,,,,,,,,,,,,,,,,With Brainslug Difficult 1 No Money,6,images/assets/snowy_original.jpg,learning,20,images/assets/success.jpg,images/assets/gameover.jpg,,,,,,,,,,,,,0,7,7,1,1,,,,,,,,,,,,,,,,,,,,,,,,,,,,,,,,
,,,,,,,,,,,,67fab4a0d29e8a31f5e08e9e,001,3,2025-04-15_06h25.19.618,avatar_quest_3AFC_legacy,2022.1.3,Win32,64.1025641,67fab4a0d29e8a31f5e08e9e,67fe37cb3bd870bba73819bd,67fe3a14c1211f3d2e67ccf3,,,,,,,,,,,,,,,,,,,,,,With Brainslug Difficult 2 With Money,12,images/assets/snowy_money.jpg,learning,20,images/assets/success_money.jpg,images/assets/gameover.jpg,,,,,,,,,,,,,0,8,8,2,1,,,,,,,,,,,,,,,,,,,,,,,,,,,,,,,,
,,,,,,,,,,,,67fab4a0d29e8a31f5e08e9e,001,3,2025-04-15_06h25.19.618,avatar_quest_3AFC_legacy,2022.1.3,Win32,64.1025641,67fab4a0d29e8a31f5e08e9e,67fe37cb3bd870bba73819bd,67fe3a14c1211f3d2e67ccf3,,,,,,,,,,,,,,,,,,,,,,With Brainslug No Barriers With Money,0,images/assets/snowy_money.jpg,learning,10,images/assets/success_money.jpg,images/assets/gameover.jpg,,,,,,,,,,,,,0,9,9,4,1,,,,,,,,,,,,,,,,,,,,,,,,,,,,,,,,
,,,,,,,,,,,,67fab4a0d29e8a31f5e08e9e,001,3,2025-04-15_06h25.19.618,avatar_quest_3AFC_legacy,2022.1.3,Win32,64.1025641,67fab4a0d29e8a31f5e08e9e,67fe37cb3bd870bba73819bd,67fe3a14c1211f3d2e67ccf3,,,,,,,,,,,,,,,,,,,,,,With Brainslug Difficult 1 With Money,6,images/assets/snowy_money.jpg,learning,20,images/assets/success_money.jpg,images/assets/gameover.jpg,,,,,,,,,,,,,0,10,10,0,1,,,,,,,,,,,,,,,,,,,,,,,,,,,,,,,,
,,,,,,,,,,,,67fab4a0d29e8a31f5e08e9e,001,3,2025-04-15_06h25.19.618,avatar_quest_3AFC_legacy,2022.1.3,Win32,64.1025641,67fab4a0d29e8a31f5e08e9e,67fe37cb3bd870bba73819bd,67fe3a14c1211f3d2e67ccf3,,,,,,,,,,,,,,,,,,,,,,,,,,,,,,,,,,,,,,,,,,,,,,,,,,,,,,,3,0,3,0,1,,,,,,,,,,,,,,,,,,
,,,,,,,,,,,,67fab4a0d29e8a31f5e08e9e,001,3,2025-04-15_06h25.19.618,avatar_quest_3AFC_legacy,2022.1.3,Win32,64.1025641,67fab4a0d29e8a31f5e08e9e,67fe37cb3bd870bba73819bd,67fe3a14c1211f3d2e67ccf3,,,,,,,,,,,,,,,,,,,,,,With Brainslug No Barriers With Money,0,images/assets/snowy_money.jpg,learning,10,images/assets/success_money.jpg,images/assets/gameover.jpg,,,,,,,,No Brainslug No Barriers With Money,No Brainslug No Barriers No Money,right,1.7218,"[""No Brainslug No Barriers No Money"",""No Brainslug Difficult 1 No Money""]",0,0,0,4,1,,,,,,,,,,,,,,,,,,,,,,,,,,,,,,,,
,,,,,,,,,,,,67fab4a0d29e8a31f5e08e9e,001,3,2025-04-15_06h25.19.618,avatar_quest_3AFC_legacy,2022.1.3,Win32,64.1025641,67fab4a0d29e8a31f5e08e9e,67fe37cb3bd870bba73819bd,67fe3a14c1211f3d2e67ccf3,,,,,,,,,,,,,,,,,,,,,,With Brainslug Difficult 1 With Money,6,images/assets/snowy_money.jpg,learning,20,images/assets/success_money.jpg,images/assets/gameover.jpg,,,,,,,,,,,,,0,1,1,0,1,,,,,,,,,,,,,,,,,,,,,,,,,,,,,,,,
,,,,,,,,,,,,67fab4a0d29e8a31f5e08e9e,001,3,2025-04-15_06h25.19.618,avatar_quest_3AFC_legacy,2022.1.3,Win32,64.1025641,67fab4a0d29e8a31f5e08e9e,67fe37cb3bd870bba73819bd,67fe3a14c1211f3d2e67ccf3,"[""left"",""right""]","[2.864399999976058,5.059299999952259]",,calibration,No Brainslug No Barriers With Money,20,9.30572,7.3099,2,0,0,TRUE,na,na,na,na,,,,,,,,,,,,,,,,,,,,,,,,,,,,,,,,,,0,0,0,0,1,,,,,,,,,,,,,,,,,,,,,,,
,,,,,,,,,,,,67fab4a0d29e8a31f5e08e9e,001,3,2025-04-15_06h25.19.618,avatar_quest_3AFC_legacy,2022.1.3,Win32,64.1025641,67fab4a0d29e8a31f5e08e9e,67fe37cb3bd870bba73819bd,67fe3a14c1211f3d2e67ccf3,,,,,,,,,,,,,,,,,,,,,,No Brainslug No Barriers With Money,0,images/assets/snowy_money.jpg,learning,10,images/assets/success_money.jpg,images/assets/gameover.jpg,,,,,,,,,,,,,0,2,2,9,1,,,,,,,,,,,,,,,,,,,,,,,,,,,,,,,,
