instruction_mouse.x,instruction_mouse.y,instruction_mouse.leftButton,instruction_mouse.midButton,instruction_mouse.rightButton,instruction_mouse.clicked_name,introduce_general.thisRepN,introduce_general.thisTrialN,introduce_general.thisN,introduce_general.thisIndex,introduce_general.ran,thisInstruction,participant,session,game version,date,expName,psychopyVersion,OS,frameRate,PROLIFIC PID,STUDY ID,SESSION ID,move_resp.keys,move_resp.rt,end_resp.keys,phase,condition,trial_num,time_limit,completion_time,left_right_steps,number_of_obsticle_blocks,number_of_tree_blocks,quest_complete,responsivity_summary,av_inter_brainslug_intervals,proportion_jitter,jitter_direction_proportion_right,calibration_phase.thisRepN,calibration_phase.thisTrialN,calibration_phase.thisN,calibration_phase.thisIndex,calibration_phase.ran,BlockLabel,nObsticles,backgroundImage,phaseLabel,n_side_steps,success_im,gameover_im,success_condition,introduce_learning_or_choice.thisRepN,introduce_learning_or_choice.thisTrialN,introduce_learning_or_choice.thisN,introduce_learning_or_choice.thisIndex,introduce_learning_or_choice.ran,choice_resp.keys,chosen_quest,unchosen_quest,choice_resp_3afc.keys,choice_resp_3afc.rt,unchosen_quests,forced_choice_trial.thisRepN,forced_choice_trial.thisTrialN,forced_choice_trial.thisN,forced_choice_trial.thisIndex,forced_choice_trial.ran,enjoyment_slider.response,enjoyment_slider.rt,effort_slider.response,effort_slider.rt,show_loop2.thisRepN,show_loop2.thisTrialN,show_loop2.thisN,show_loop2.thisIndex,show_loop2.ran,trials_per_block.thisRepN,trials_per_block.thisTrialN,trials_per_block.thisN,trials_per_block.thisIndex,trials_per_block.ran,decision_phase_AFC.thisRepN,decision_phase_AFC.thisTrialN,decision_phase_AFC.thisN,decision_phase_AFC.thisIndex,decision_phase_AFC.ran,blockN,BlockLabel1,questIm1,BlockLabel2,questIm2,BlockLabel3,questIm3,quest_condition,showForcedChoice.thisRepN,showForcedChoice.thisTrialN,showForcedChoice.thisN,showForcedChoice.thisIndex,showForcedChoice.ran
0.433333362,-0.412962949,1,0,0,instruction_button,0,0,0,0,1,images/instructions_part1_LSM_taskversion1/Slide1.JPG,67fa651c5c58b6c6be02eede,001,3,2025-04-15_07h00.44.388,avatar_quest_3AFC_legacy,2022.1.3,Win32,60.24096386,67fa651c5c58b6c6be02eede,67fe37cb3bd870bba73819bd,67fe3a1a6112e334bf3f4eae,,,,,,,,,,,,,,,,,,,,,,,,,,,,,,,,,,,,,,,,,,,,,,,,,,,,,,,,,,,,,,,,,,,,,,,,,,,,,
0.374074159,-0.402777778,1,0,0,instruction_button,0,1,1,1,1,images/instructions_part1_LSM_taskversion1/Slide2.JPG,67fa651c5c58b6c6be02eede,001,3,2025-04-15_07h00.44.388,avatar_quest_3AFC_legacy,2022.1.3,Win32,60.24096386,67fa651c5c58b6c6be02eede,67fe37cb3bd870bba73819bd,67fe3a1a6112e334bf3f4eae,,,,,,,,,,,,,,,,,,,,,,,,,,,,,,,,,,,,,,,,,,,,,,,,,,,,,,,,,,,,,,,,,,,,,,,,,,,,,
0.384259259,-0.39907406,1,0,0,instruction_button,0,2,2,2,1,images/instructions_part1_LSM_taskversion1/Slide3.JPG,67fa651c5c58b6c6be02eede,001,3,2025-04-15_07h00.44.388,avatar_quest_3AFC_legacy,2022.1.3,Win32,60.24096386,67fa651c5c58b6c6be02eede,67fe37cb3bd870bba73819bd,67fe3a1a6112e334bf3f4eae,,,,,,,,,,,,,,,,,,,,,,,,,,,,,,,,,,,,,,,,,,,,,,,,,,,,,,,,,,,,,,,,,,,,,,,,,,,,,
0.384259259,-0.39907406,1,0,0,instruction_button,0,3,3,3,1,images/instructions_part1_LSM_taskversion1/Slide3.5.JPG,67fa651c5c58b6c6be02eede,001,3,2025-04-15_07h00.44.388,avatar_quest_3AFC_legacy,2022.1.3,Win32,60.24096386,67fa651c5c58b6c6be02eede,67fe37cb3bd870bba73819bd,67fe3a1a6112e334bf3f4eae,,,,,,,,,,,,,,,,,,,,,,,,,,,,,,,,,,,,,,,,,,,,,,,,,,,,,,,,,,,,,,,,,,,,,,,,,,,,,
0.384259259,-0.398148148,1,0,0,instruction_button,0,4,4,4,1,images/instructions_part1_LSM_taskversion1/Slide4.JPG,67fa651c5c58b6c6be02eede,001,3,2025-04-15_07h00.44.388,avatar_quest_3AFC_legacy,2022.1.3,Win32,60.24096386,67fa651c5c58b6c6be02eede,67fe37cb3bd870bba73819bd,67fe3a1a6112e334bf3f4eae,,,,,,,,,,,,,,,,,,,,,,,,,,,,,,,,,,,,,,,,,,,,,,,,,,,,,,,,,,,,,,,,,,,,,,,,,,,,,
0.384259259,-0.398148148,1,0,0,instruction_button,0,5,5,5,1,images/instructions_part1_LSM_taskversion1/Slide6.5.JPG,67fa651c5c58b6c6be02eede,001,3,2025-04-15_07h00.44.388,avatar_quest_3AFC_legacy,2022.1.3,Win32,60.24096386,67fa651c5c58b6c6be02eede,67fe37cb3bd870bba73819bd,67fe3a1a6112e334bf3f4eae,,,,,,,,,,,,,,,,,,,,,,,,,,,,,,,,,,,,,,,,,,,,,,,,,,,,,,,,,,,,,,,,,,,,,,,,,,,,,
,,,,,,,,,,,,67fa651c5c58b6c6be02eede,001,3,2025-04-15_07h00.44.388,avatar_quest_3AFC_legacy,2022.1.3,Win32,60.24096386,67fa651c5c58b6c6be02eede,67fe37cb3bd870bba73819bd,67fe3a1a6112e334bf3f4eae,"[""left"",""right"",""left"",""left"",""right"",""right"",""left""]","[2.451000000000022,2.5197000000002276,3.0001000000006,3.4085000000000036,3.8342000000001804,4.633900000000381,4.837100000000589]",,calibration,No Brainslug No Barriers No Money,1,100,5.3721,7,0,14,TRUE,na,na,na,na,0,0,0,1,1,No Brainslug No Barriers No Money,0,images/assets/snowy_original.jpg,calibration,10,images/assets/success.jpg,images/assets/gameover.jpg,never,,,,,,,,,,,,,,,,,,,,,,,,,,,,,,,,,,,,,,,,,,,,,,,,
,,,,,,,,,,,,67fa651c5c58b6c6be02eede,001,3,2025-04-15_07h00.44.388,avatar_quest_3AFC_legacy,2022.1.3,Win32,60.24096386,67fa651c5c58b6c6be02eede,67fe37cb3bd870bba73819bd,67fe3a1a6112e334bf3f4eae,"[""up"",""up"",""up"",""down"",""left"",""right"",""left"",""right"",""right"",""left"",""up"",""left"",""up"",""up"",""up"",""up"",""right"",""right""]","[0.5730000000000359,1.0883999999994671,1.3550000000000182,2.0547999999998297,2.7737999999998237,2.955299999999852,3.3795000000000073,4.010000000000048,4.5408999999994535,5.339199999999266,5.6041999999993095,6.54200000000003,6.612399999999468,6.910899999999458,7.356099999999628,7.624000000000024,7.930799999999863,8.244899999999461]",,calibration,No Brainslug No Barriers No Money,2,100,8.3439,9,0,177,TRUE,na,na,na,na,0,1,1,0,1,No Brainslug No Barriers No Money,0,images/assets/snowy_original.jpg,calibration,10,images/assets/success.jpg,images/assets/gameover.jpg,never,,,,,,,,,,,,,,,,,,,,,,,,,,,,,,,,,,,,,,,,,,,,,,,,
,,,,,,,,,,,,67fa651c5c58b6c6be02eede,001,3,2025-04-15_07h00.44.388,avatar_quest_3AFC_legacy,2022.1.3,Win32,60.24096386,67fa651c5c58b6c6be02eede,67fe37cb3bd870bba73819bd,67fe3a1a6112e334bf3f4eae,"[""right"",""right"",""right"",""right"",""left"",""left"",""left"",""right"",""right"",""right"",""right"",""right"",""up"",""right"",""up"",""left"",""up"",""up"",""right"",""up"",""up"",""up"",""up"",""right"",""right"",""left"",""left"",""right"",""right""]","[0.11990000000037071,0.630300000000716,1.1444999999999936,1.4277000000001863,1.8951000000005251,2.2029000000003407,2.4869999999999663,3.1278000000007182,3.727800000000741,3.9681000000005042,4.310999999999979,4.644800000000714,5.296400000000347,5.911600000000533,5.913300000000731,6.550600000000543,7.311100000000522,7.710999999999956,8.26649999999995,8.337700000000154,9.360800000000722,9.894100000000549,10.111200000000167,10.448400000000333,10.704999999999984,11.898800000000733,12.111100000000533,12.710700000000145,13.287400000000332]",,calibration,No Brainslug No Barriers No Money,3,100,13.6971,13,0,503,TRUE,na,na,na,na,0,2,2,2,1,No Brainslug No Barriers No Money,0,images/assets/snowy_original.jpg,calibration,10,images/assets/success.jpg,images/assets/gameover.jpg,never,,,,,,,,,,,,,,,,,,,,,,,,,,,,,,,,,,,,,,,,,,,,,,,,
0.363888917,-0.402777778,1,0,0,instruction_button,,,,,,images/instructions_part2_LSM_taskversion3.jpg,67fa651c5c58b6c6be02eede,001,3,2025-04-15_07h00.44.388,avatar_quest_3AFC_legacy,2022.1.3,Win32,60.24096386,67fa651c5c58b6c6be02eede,67fe37cb3bd870bba73819bd,67fe3a1a6112e334bf3f4eae,,,,,,,,,,,,,,,,,,,,,,,,,,,,,,0,0,0,0,1,,,,,,,,,,,,,,,,,,,,,,,,,,,,,,,,,,,,,,,,,,,
,,,,,,,,,,,,67fa651c5c58b6c6be02eede,001,3,2025-04-15_07h00.44.388,avatar_quest_3AFC_legacy,2022.1.3,Win32,60.24096386,67fa651c5c58b6c6be02eede,67fe37cb3bd870bba73819bd,67fe3a1a6112e334bf3f4eae,,,,,,,,,,,,,,,,,,,,,,No Brainslug No Barriers With Money,0,images/assets/snowy_money.jpg,learning,10,images/assets/success_money.jpg,images/assets/gameover.jpg,,,,,,,,With Brainslug Difficult 2 No Money,With Brainslug Difficult 1 No Money,down,12.3004,"[""With Brainslug Difficult 1 No Money"",""With Brainslug Difficult 2 With Money""]",0,0,0,9,1,,,,,,,,,,,,,,,,,,,,,,,,,,,,,,,,
,,,,,,,,,,,,67fa651c5c58b6c6be02eede,001,3,2025-04-15_07h00.44.388,avatar_quest_3AFC_legacy,2022.1.3,Win32,60.24096386,67fa651c5c58b6c6be02eede,67fe37cb3bd870bba73819bd,67fe3a1a6112e334bf3f4eae,,,,,,,,,,,,,,,,,,,,,,No Brainslug Difficult 1 No Money,6,images/assets/snowy_original.jpg,learning,20,images/assets/success.jpg,images/assets/gameover.jpg,,,,,,,,,,,,,0,1,1,6,1,,,,,,,,,,,,,,,,,,,,,,,,,,,,,,,,
,,,,,,,,,,,,67fa651c5c58b6c6be02eede,001,3,2025-04-15_07h00.44.388,avatar_quest_3AFC_legacy,2022.1.3,Win32,60.24096386,67fa651c5c58b6c6be02eede,67fe37cb3bd870bba73819bd,67fe3a1a6112e334bf3f4eae,"[""up"",""up"",""right"",""right"",""right"",""right"",""right"",""up"",""left"",""left"",""right"",""right"",""up"",""right"",""up"",""left"",""right"",""up"",""left"",""up"",""up"",""up"",""left"",""up"",""up"",""up"",""up"",""right"",""right"",""right"",""right"",""right"",""right"",""right"",""left"",""left"",""left"",""left"",""left"",""right"",""right"",""right"",""right"",""right""]","[0.8067999999997824,1.3374999999999773,1.8352000000001567,2.1022000000001526,2.368099999999629,2.66920000000016,2.968799999999817,3.701799999999821,4.552599999999586,4.871700000000146,4.92240000000038,5.435299999999813,5.618299999999806,5.922700000000191,6.001900000000376,6.054700000000139,6.402900000000329,6.451599999999587,6.569299999999771,6.751900000000376,7.2687000000001944,7.606200000000172,7.686400000000333,8.156099999999583,8.319299999999771,8.535900000000368,8.868200000000172,9.051799999999787,9.291599999999619,9.524299999999812,9.735500000000002,9.917900000000373,10.104900000000328,10.301499999999976,10.685000000000002,11.06759999999963,11.435299999999813,11.734599999999602,12.017700000000161,12.585799999999779,12.867900000000361,13.086599999999635,13.25140000000033,13.485799999999813]",,calibration,With Brainslug Difficult 2 No Money,4,13.70655,13.7147,8,5,0,FALSE,na,na,na,na,,,,,,,,,,,,,,,,,,,,,,,,,,,,,,,,,,0,0,0,0,1,,,,,,,,,,,,,,,,,,,,,,,
,,,,,,,,,,,,67fa651c5c58b6c6be02eede,001,3,2025-04-15_07h00.44.388,avatar_quest_3AFC_legacy,2022.1.3,Win32,60.24096386,67fa651c5c58b6c6be02eede,67fe37cb3bd870bba73819bd,67fe3a1a6112e334bf3f4eae,,,,,,,,,,,,,,,,,,,,,,With Brainslug Difficult 2 No Money,12,images/assets/snowy_original.jpg,learning,20,images/assets/success.jpg,images/assets/gameover.jpg,,,,,,,,,,,,,0,2,2,3,1,,,,,,,,,,,,,,,,,,,,,,,,,,,,,,,,
,,,,,,,,,,,,67fa651c5c58b6c6be02eede,001,3,2025-04-15_07h00.44.388,avatar_quest_3AFC_legacy,2022.1.3,Win32,60.24096386,67fa651c5c58b6c6be02eede,67fe37cb3bd870bba73819bd,67fe3a1a6112e334bf3f4eae,,,,,,,,,,,,,,,,,,,,,,With Brainslug No Barriers With Money,0,images/assets/snowy_money.jpg,learning,10,images/assets/success_money.jpg,images/assets/gameover.jpg,,,,,,,,,,,,,0,3,3,4,1,,,,,,,,,,,,,,,,,,,,,,,,,,,,,,,,
,,,,,,,,,,,,67fa651c5c58b6c6be02eede,001,3,2025-04-15_07h00.44.388,avatar_quest_3AFC_legacy,2022.1.3,Win32,60.24096386,67fa651c5c58b6c6be02eede,67fe37cb3bd870bba73819bd,67fe3a1a6112e334bf3f4eae,,,,,,,,,,,,,,,,,,,,,,With Brainslug Difficult 1 No Money,6,images/assets/snowy_original.jpg,learning,20,images/assets/success.jpg,images/assets/gameover.jpg,,,,,,,,,,,,,0,4,4,1,1,,,,,,,,,,,,,,,,,,,,,,,,,,,,,,,,
,,,,,,,,,,,,67fa651c5c58b6c6be02eede,001,3,2025-04-15_07h00.44.388,avatar_quest_3AFC_legacy,2022.1.3,Win32,60.24096386,67fa651c5c58b6c6be02eede,67fe37cb3bd870bba73819bd,67fe3a1a6112e334bf3f4eae,,,,,,,,,,,,,,,,,,,,,,No Brainslug Difficult 2 No Money,12,images/assets/snowy_original.jpg,learning,20,images/assets/success.jpg,images/assets/gameover.jpg,,,,,,,,,,,,,0,5,5,8,1,,,,,,,,,,,,,,,,,,,,,,,,,,,,,,,,
,,,,,,,,,,,,67fa651c5c58b6c6be02eede,001,3,2025-04-15_07h00.44.388,avatar_quest_3AFC_legacy,2022.1.3,Win32,60.24096386,67fa651c5c58b6c6be02eede,67fe37cb3bd870bba73819bd,67fe3a1a6112e334bf3f4eae,,,,,,,,,,,,,,,,,,,,,,No Brainslug No Barriers No Money,0,images/assets/snowy_original.jpg,learning,10,images/assets/success.jpg,images/assets/gameover.jpg,,,,,,,,,,,,,0,6,6,10,1,,,,,,,,,,,,,,,,,,,,,,,,,,,,,,,,
,,,,,,,,,,,,67fa651c5c58b6c6be02eede,001,3,2025-04-15_07h00.44.388,avatar_quest_3AFC_legacy,2022.1.3,Win32,60.24096386,67fa651c5c58b6c6be02eede,67fe37cb3bd870bba73819bd,67fe3a1a6112e334bf3f4eae,,,,,,,,,,,,,,,,,,,,,,No Brainslug Difficult 2 With Money,12,images/assets/snowy_money.jpg,learning,20,images/assets/success_money.jpg,images/assets/gameover.jpg,,,,,,,,,,,,,0,7,7,7,1,,,,,,,,,,,,,,,,,,,,,,,,,,,,,,,,
,,,,,,,,,,,,67fa651c5c58b6c6be02eede,001,3,2025-04-15_07h00.44.388,avatar_quest_3AFC_legacy,2022.1.3,Win32,60.24096386,67fa651c5c58b6c6be02eede,67fe37cb3bd870bba73819bd,67fe3a1a6112e334bf3f4eae,,,,,,,,,,,,,,,,,,,,,,With Brainslug No Barriers No Money,0,images/assets/snowy_original.jpg,learning,10,images/assets/success.jpg,images/assets/gameover.jpg,,,,,,,,,,,,,0,8,8,5,1,,,,,,,,,,,,,,,,,,,,,,,,,,,,,,,,
,,,,,,,,,,,,67fa651c5c58b6c6be02eede,001,3,2025-04-15_07h00.44.388,avatar_quest_3AFC_legacy,2022.1.3,Win32,60.24096386,67fa651c5c58b6c6be02eede,67fe37cb3bd870bba73819bd,67fe3a1a6112e334bf3f4eae,,,,,,,,,,,,,,,,,,,,,,With Brainslug Difficult 1 With Money,6,images/assets/snowy_money.jpg,learning,20,images/assets/success_money.jpg,images/assets/gameover.jpg,,,,,,,,,,,,,0,9,9,0,1,,,,,,,,,,,,,,,,,,,,,,,,,,,,,,,,
,,,,,,,,,,,,67fa651c5c58b6c6be02eede,001,3,2025-04-15_07h00.44.388,avatar_quest_3AFC_legacy,2022.1.3,Win32,60.24096386,67fa651c5c58b6c6be02eede,67fe37cb3bd870bba73819bd,67fe3a1a6112e334bf3f4eae,,,,,,,,,,,,,,,,,,,,,,With Brainslug Difficult 2 With Money,12,images/assets/snowy_money.jpg,learning,20,images/assets/success_money.jpg,images/assets/gameover.jpg,,,,,,,,,,,,,0,10,10,2,1,,,,,,,,,,,,,,,,,,,,,,,,,,,,,,,,
,,,,,,,,,,,,67fa651c5c58b6c6be02eede,001,3,2025-04-15_07h00.44.388,avatar_quest_3AFC_legacy,2022.1.3,Win32,60.24096386,67fa651c5c58b6c6be02eede,67fe37cb3bd870bba73819bd,67fe3a1a6112e334bf3f4eae,,,,,,,,,,,,,,,,,,,,,,,,,,,,,,,,,,,,,,,,,,,,,,,,,,,,,,,0,0,0,0,1,,,,,,,,,,,,,,,,,,
,,,,,,,,,,,,67fa651c5c58b6c6be02eede,001,3,2025-04-15_07h00.44.388,avatar_quest_3AFC_legacy,2022.1.3,Win32,60.24096386,67fa651c5c58b6c6be02eede,67fe37cb3bd870bba73819bd,67fe3a1a6112e334bf3f4eae,,,,,,,,,,,,,,,,,,,,,,No Brainslug Difficult 2 With Money,12,images/assets/snowy_money.jpg,learning,20,images/assets/success_money.jpg,images/assets/gameover.jpg,,,,,,,,With Brainslug Difficult 1 No Money,With Brainslug Difficult 1 No Money,left,5.9957,"[""With Brainslug Difficult 2 No Money"",""With Brainslug Difficult 2 With Money""]",0,0,0,7,1,,,,,,,,,,,,,,,,,,,,,,,,,,,,,,,,
,,,,,,,,,,,,67fa651c5c58b6c6be02eede,001,3,2025-04-15_07h00.44.388,avatar_quest_3AFC_legacy,2022.1.3,Win32,60.24096386,67fa651c5c58b6c6be02eede,67fe37cb3bd870bba73819bd,67fe3a1a6112e334bf3f4eae,,,,,,,,,,,,,,,,,,,,,,With Brainslug Difficult 2 With Money,12,images/assets/snowy_money.jpg,learning,20,images/assets/success_money.jpg,images/assets/gameover.jpg,,,,,,,,,,,,,0,1,1,2,1,,,,,,,,,,,,,,,,,,,,,,,,,,,,,,,,
,,,,,,,,,,,,67fa651c5c58b6c6be02eede,001,3,2025-04-15_07h00.44.388,avatar_quest_3AFC_legacy,2022.1.3,Win32,60.24096386,67fa651c5c58b6c6be02eede,67fe37cb3bd870bba73819bd,67fe3a1a6112e334bf3f4eae,,,,,,,,,,,,,,,,,,,,,,No Brainslug Difficult 2 No Money,12,images/assets/snowy_original.jpg,learning,20,images/assets/success.jpg,images/assets/gameover.jpg,,,,,,,,,,,,,0,2,2,8,1,,,,,,,,,,,,,,,,,,,,,,,,,,,,,,,,
,,,,,,,,,,,,67fa651c5c58b6c6be02eede,001,3,2025-04-15_07h00.44.388,avatar_quest_3AFC_legacy,2022.1.3,Win32,60.24096386,67fa651c5c58b6c6be02eede,67fe37cb3bd870bba73819bd,67fe3a1a6112e334bf3f4eae,,,,,,,,,,,,,,,,,,,,,,No Brainslug Difficult 1 No Money,6,images/assets/snowy_original.jpg,learning,20,images/assets/success.jpg,images/assets/gameover.jpg,,,,,,,,,,,,,0,3,3,6,1,,,,,,,,,,,,,,,,,,,,,,,,,,,,,,,,
,,,,,,,,,,,,67fa651c5c58b6c6be02eede,001,3,2025-04-15_07h00.44.388,avatar_quest_3AFC_legacy,2022.1.3,Win32,60.24096386,67fa651c5c58b6c6be02eede,67fe37cb3bd870bba73819bd,67fe3a1a6112e334bf3f4eae,,,,,,,,,,,,,,,,,,,,,,No Brainslug No Barriers No Money,0,images/assets/snowy_original.jpg,learning,10,images/assets/success.jpg,images/assets/gameover.jpg,,,,,,,,,,,,,0,4,4,10,1,,,,,,,,,,,,,,,,,,,,,,,,,,,,,,,,
,,,,,,,,,,,,67fa651c5c58b6c6be02eede,001,3,2025-04-15_07h00.44.388,avatar_quest_3AFC_legacy,2022.1.3,Win32,60.24096386,67fa651c5c58b6c6be02eede,67fe37cb3bd870bba73819bd,67fe3a1a6112e334bf3f4eae,,,,,,,,,,,,,,,,,,,,,,With Brainslug Difficult 1 With Money,6,images/assets/snowy_money.jpg,learning,20,images/assets/success_money.jpg,images/assets/gameover.jpg,,,,,,,,,,,,,0,5,5,0,1,,,,,,,,,,,,,,,,,,,,,,,,,,,,,,,,
,,,,,,,,,,,,67fa651c5c58b6c6be02eede,001,3,2025-04-15_07h00.44.388,avatar_quest_3AFC_legacy,2022.1.3,Win32,60.24096386,67fa651c5c58b6c6be02eede,67fe37cb3bd870bba73819bd,67fe3a1a6112e334bf3f4eae,"[""up"",""up"",""left"",""up"",""right"",""right"",""right"",""right"",""left"",""right"",""right"",""right"",""right"",""right"",""right"",""right"",""left"",""left"",""right"",""right"",""left"",""right"",""left"",""left"",""right"",""right"",""right"",""right"",""right"",""right"",""right"",""right"",""right"",""right"",""right"",""right"",""right"",""right"",""right"",""left"",""right"",""up"",""up"",""up"",""up"",""right"",""right"",""right"",""left""]","[0.15450000000004138,0.45319999999929905,0.7055999999996629,0.8881999999993013,1.3875999999996225,1.6550999999996634,1.8885999999996557,2.1215999999996598,2.30589999999944,2.688199999999256,3.10450000000003,3.3212999999998374,3.53879999999981,3.7100000000000364,4.070599999999672,4.220699999999283,4.288199999999279,4.558500000000038,4.622000000000014,4.873199999999258,4.8883999999994785,5.0887999999998215,5.1722999999998365,5.454799999999864,5.472099999999671,5.988799999999856,6.322299999999814,6.660000000000025,6.924299999999846,7.137199999999268,7.321599999999648,7.487699999999279,7.687899999999445,7.838399999999467,8.071000000000026,8.222799999999836,8.406299999999817,8.559299999999837,8.738599999999622,9.021899999999448,9.424000000000035,9.589500000000044,9.788499999999999,9.989399999999478,10.172799999999825,10.405500000000018,10.82419999999928,11.088399999999467,11.288399999999456]",,calibration,With Brainslug Difficult 1 No Money,5,13.70655,12.1661,11,4,0,TRUE,na,na,na,na,,,,,,,,,,,,,,,,,,,,,,,,,,,,,,,,,,0,0,0,0,1,,,,,,,,,,,,,,,,,,,,,,,
,,,,,,,,,,,,67fa651c5c58b6c6be02eede,001,3,2025-04-15_07h00.44.388,avatar_quest_3AFC_legacy,2022.1.3,Win32,60.24096386,67fa651c5c58b6c6be02eede,67fe37cb3bd870bba73819bd,67fe3a1a6112e334bf3f4eae,,,,,,,,,,,,,,,,,,,,,,With Brainslug Difficult 1 No Money,6,images/assets/snowy_original.jpg,learning,20,images/assets/success.jpg,images/assets/gameover.jpg,,,,,,,,,,,,,0,6,6,1,1,,,,,,,,,,,,,,,,,,,,,,,,,,,,,,,,
,,,,,,,,,,,,67fa651c5c58b6c6be02eede,001,3,2025-04-15_07h00.44.388,avatar_quest_3AFC_legacy,2022.1.3,Win32,60.24096386,67fa651c5c58b6c6be02eede,67fe37cb3bd870bba73819bd,67fe3a1a6112e334bf3f4eae,,,,,,,,,,,,,,,,,,,,,,No Brainslug No Barriers With Money,0,images/assets/snowy_money.jpg,learning,10,images/assets/success_money.jpg,images/assets/gameover.jpg,,,,,,,,,,,,,0,7,7,9,1,,,,,,,,,,,,,,,,,,,,,,,,,,,,,,,,
,,,,,,,,,,,,67fa651c5c58b6c6be02eede,001,3,2025-04-15_07h00.44.388,avatar_quest_3AFC_legacy,2022.1.3,Win32,60.24096386,67fa651c5c58b6c6be02eede,67fe37cb3bd870bba73819bd,67fe3a1a6112e334bf3f4eae,,,,,,,,,,,,,,,,,,,,,,With Brainslug No Barriers No Money,0,images/assets/snowy_original.jpg,learning,10,images/assets/success.jpg,images/assets/gameover.jpg,,,,,,,,,,,,,0,8,8,5,1,,,,,,,,,,,,,,,,,,,,,,,,,,,,,,,,
,,,,,,,,,,,,67fa651c5c58b6c6be02eede,001,3,2025-04-15_07h00.44.388,avatar_quest_3AFC_legacy,2022.1.3,Win32,60.24096386,67fa651c5c58b6c6be02eede,67fe37cb3bd870bba73819bd,67fe3a1a6112e334bf3f4eae,,,,,,,,,,,,,,,,,,,,,,With Brainslug No Barriers With Money,0,images/assets/snowy_money.jpg,learning,10,images/assets/success_money.jpg,images/assets/gameover.jpg,,,,,,,,,,,,,0,9,9,4,1,,,,,,,,,,,,,,,,,,,,,,,,,,,,,,,,
,,,,,,,,,,,,67fa651c5c58b6c6be02eede,001,3,2025-04-15_07h00.44.388,avatar_quest_3AFC_legacy,2022.1.3,Win32,60.24096386,67fa651c5c58b6c6be02eede,67fe37cb3bd870bba73819bd,67fe3a1a6112e334bf3f4eae,,,,,,,,,,,,,,,,,,,,,,With Brainslug Difficult 2 No Money,12,images/assets/snowy_original.jpg,learning,20,images/assets/success.jpg,images/assets/gameover.jpg,,,,,,,,,,,,,0,10,10,3,1,,,,,,,,,,,,,,,,,,,,,,,,,,,,,,,,
,,,,,,,,,,,,67fa651c5c58b6c6be02eede,001,3,2025-04-15_07h00.44.388,avatar_quest_3AFC_legacy,2022.1.3,Win32,60.24096386,67fa651c5c58b6c6be02eede,67fe37cb3bd870bba73819bd,67fe3a1a6112e334bf3f4eae,,,,,,,,,,,,,,,,,,,,,,,,,,,,,,,,,,,,,,,,,,,,,,,,,,,,,,,1,0,1,0,1,,,,,,,,,,,,,,,,,,
,,,,,,,,,,,,67fa651c5c58b6c6be02eede,001,3,2025-04-15_07h00.44.388,avatar_quest_3AFC_legacy,2022.1.3,Win32,60.24096386,67fa651c5c58b6c6be02eede,67fe37cb3bd870bba73819bd,67fe3a1a6112e334bf3f4eae,,,,,,,,,,,,,,,,,,,,,,With Brainslug No Barriers With Money,0,images/assets/snowy_money.jpg,learning,10,images/assets/success_money.jpg,images/assets/gameover.jpg,,,,,,,,With Brainslug Difficult 2 With Money,With Brainslug Difficult 1 No Money,right,0.7779,"[""With Brainslug Difficult 1 No Money"",""With Brainslug Difficult 2 No Money""]",0,0,0,4,1,,,,,,,,,,,,,,,,,,,,,,,,,,,,,,,,
,,,,,,,,,,,,67fa651c5c58b6c6be02eede,001,3,2025-04-15_07h00.44.388,avatar_quest_3AFC_legacy,2022.1.3,Win32,60.24096386,67fa651c5c58b6c6be02eede,67fe37cb3bd870bba73819bd,67fe3a1a6112e334bf3f4eae,,,,,,,,,,,,,,,,,,,,,,No Brainslug No Barriers With Money,0,images/assets/snowy_money.jpg,learning,10,images/assets/success_money.jpg,images/assets/gameover.jpg,,,,,,,,,,,,,0,1,1,9,1,,,,,,,,,,,,,,,,,,,,,,,,,,,,,,,,
,,,,,,,,,,,,67fa651c5c58b6c6be02eede,001,3,2025-04-15_07h00.44.388,avatar_quest_3AFC_legacy,2022.1.3,Win32,60.24096386,67fa651c5c58b6c6be02eede,67fe37cb3bd870bba73819bd,67fe3a1a6112e334bf3f4eae,"[""right"",""right"",""right"",""right"",""left"",""right"",""left"",""left"",""left"",""left"",""left"",""left"",""left"",""left"",""right"",""right"",""right"",""right"",""right"",""right"",""right"",""left"",""right"",""left"",""left"",""left"",""left"",""left"",""left"",""left"",""right"",""right"",""right"",""right"",""right"",""right"",""right"",""right"",""down"",""down"",""left"",""left"",""left"",""left"",""left"",""right"",""right"",""right"",""right"",""left"",""right"",""left"",""left"",""left"",""right"",""right"",""right"",""right""]","[0.05700000000001637,0.6899999999999977,0.9735999999996352,1.2900000000000205,1.406499999999994,1.7234000000003675,1.7235999999996352,1.9574000000004048,2.223299999999824,2.49029999999982,2.7565999999996507,2.989700000000198,3.240599999999631,3.506900000000371,3.6902999999998087,3.9399999999999977,4.1232999999998015,4.29079999999982,4.506500000000017,4.773400000000379,4.9739999999999895,5.1399000000003525,5.439700000000187,5.62390000000039,5.873200000000168,6.1235999999996125,6.389999999999986,6.6235000000000355,6.856400000000406,7.1229999999999905,7.257000000000005,7.489900000000375,7.673400000000356,7.89020000000022,8.073500000000024,8.29000000000002,8.473299999999824,8.689700000000187,8.90640000000036,9.190400000000409,9.506500000000017,9.823299999999847,10.056599999999662,10.373500000000035,10.673599999999624,10.83970000000022,11.12299999999999,11.373200000000168,11.573799999999835,11.706099999999651,12.006200000000206,12.006400000000383,12.306299999999794,12.606599999999617,12.874000000000024,13.089900000000398,13.323799999999835,13.539799999999843]",,calibration,With Brainslug Difficult 2 With Money,6,13.70655,13.7208,23,8,0,FALSE,na,na,na,na,,,,,,,,,,,,,,,,,,,,,,,,,,,,,,,,,,0,0,0,0,1,,,,,,,,,,,,,,,,,,,,,,,
,,,,,,,,,,,,67fa651c5c58b6c6be02eede,001,3,2025-04-15_07h00.44.388,avatar_quest_3AFC_legacy,2022.1.3,Win32,60.24096386,67fa651c5c58b6c6be02eede,67fe37cb3bd870bba73819bd,67fe3a1a6112e334bf3f4eae,,,,,,,,,,,,,,,,,,,,,,With Brainslug Difficult 2 With Money,12,images/assets/snowy_money.jpg,learning,20,images/assets/success_money.jpg,images/assets/gameover.jpg,,,,,,,,,,,,,0,2,2,2,1,,,,,,,,,,,,,,,,,,,,,,,,,,,,,,,,
,,,,,,,,,,,,67fa651c5c58b6c6be02eede,001,3,2025-04-15_07h00.44.388,avatar_quest_3AFC_legacy,2022.1.3,Win32,60.24096386,67fa651c5c58b6c6be02eede,67fe37cb3bd870bba73819bd,67fe3a1a6112e334bf3f4eae,,,,,,,,,,,,,,,,,,,,,,With Brainslug Difficult 2 No Money,12,images/assets/snowy_original.jpg,learning,20,images/assets/success.jpg,images/assets/gameover.jpg,,,,,,,,,,,,,0,3,3,3,1,,,,,,,,,,,,,,,,,,,,,,,,,,,,,,,,
,,,,,,,,,,,,67fa651c5c58b6c6be02eede,001,3,2025-04-15_07h00.44.388,avatar_quest_3AFC_legacy,2022.1.3,Win32,60.24096386,67fa651c5c58b6c6be02eede,67fe37cb3bd870bba73819bd,67fe3a1a6112e334bf3f4eae,,,,,,,,,,,,,,,,,,,,,,With Brainslug No Barriers No Money,0,images/assets/snowy_original.jpg,learning,10,images/assets/success.jpg,images/assets/gameover.jpg,,,,,,,,,,,,,0,4,4,5,1,,,,,,,,,,,,,,,,,,,,,,,,,,,,,,,,
,,,,,,,,,,,,67fa651c5c58b6c6be02eede,001,3,2025-04-15_07h00.44.388,avatar_quest_3AFC_legacy,2022.1.3,Win32,60.24096386,67fa651c5c58b6c6be02eede,67fe37cb3bd870bba73819bd,67fe3a1a6112e334bf3f4eae,,,,,,,,,,,,,,,,,,,,,,No Brainslug Difficult 2 No Money,12,images/assets/snowy_original.jpg,learning,20,images/assets/success.jpg,images/assets/gameover.jpg,,,,,,,,,,,,,0,5,5,8,1,,,,,,,,,,,,,,,,,,,,,,,,,,,,,,,,
,,,,,,,,,,,,67fa651c5c58b6c6be02eede,001,3,2025-04-15_07h00.44.388,avatar_quest_3AFC_legacy,2022.1.3,Win32,60.24096386,67fa651c5c58b6c6be02eede,67fe37cb3bd870bba73819bd,67fe3a1a6112e334bf3f4eae,,,,,,,,,,,,,,,,,,,,,,No Brainslug Difficult 2 With Money,12,images/assets/snowy_money.jpg,learning,20,images/assets/success_money.jpg,images/assets/gameover.jpg,,,,,,,,,,,,,0,6,6,7,1,,,,,,,,,,,,,,,,,,,,,,,,,,,,,,,,
,,,,,,,,,,,,67fa651c5c58b6c6be02eede,001,3,2025-04-15_07h00.44.388,avatar_quest_3AFC_legacy,2022.1.3,Win32,60.24096386,67fa651c5c58b6c6be02eede,67fe37cb3bd870bba73819bd,67fe3a1a6112e334bf3f4eae,,,,,,,,,,,,,,,,,,,,,,No Brainslug Difficult 1 No Money,6,images/assets/snowy_original.jpg,learning,20,images/assets/success.jpg,images/assets/gameover.jpg,,,,,,,,,,,,,0,7,7,6,1,,,,,,,,,,,,,,,,,,,,,,,,,,,,,,,,
,,,,,,,,,,,,67fa651c5c58b6c6be02eede,001,3,2025-04-15_07h00.44.388,avatar_quest_3AFC_legacy,2022.1.3,Win32,60.24096386,67fa651c5c58b6c6be02eede,67fe37cb3bd870bba73819bd,67fe3a1a6112e334bf3f4eae,,,,,,,,,,,,,,,,,,,,,,No Brainslug No Barriers No Money,0,images/assets/snowy_original.jpg,learning,10,images/assets/success.jpg,images/assets/gameover.jpg,,,,,,,,,,,,,0,8,8,10,1,,,,,,,,,,,,,,,,,,,,,,,,,,,,,,,,
,,,,,,,,,,,,67fa651c5c58b6c6be02eede,001,3,2025-04-15_07h00.44.388,avatar_quest_3AFC_legacy,2022.1.3,Win32,60.24096386,67fa651c5c58b6c6be02eede,67fe37cb3bd870bba73819bd,67fe3a1a6112e334bf3f4eae,,,,,,,,,,,,,,,,,,,,,,With Brainslug Difficult 1 No Money,6,images/assets/snowy_original.jpg,learning,20,images/assets/success.jpg,images/assets/gameover.jpg,,,,,,,,,,,,,0,9,9,1,1,,,,,,,,,,,,,,,,,,,,,,,,,,,,,,,,
,,,,,,,,,,,,67fa651c5c58b6c6be02eede,001,3,2025-04-15_07h00.44.388,avatar_quest_3AFC_legacy,2022.1.3,Win32,60.24096386,67fa651c5c58b6c6be02eede,67fe37cb3bd870bba73819bd,67fe3a1a6112e334bf3f4eae,,,,,,,,,,,,,,,,,,,,,,With Brainslug Difficult 1 With Money,6,images/assets/snowy_money.jpg,learning,20,images/assets/success_money.jpg,images/assets/gameover.jpg,,,,,,,,,,,,,0,10,10,0,1,,,,,,,,,,,,,,,,,,,,,,,,,,,,,,,,
,,,,,,,,,,,,67fa651c5c58b6c6be02eede,001,3,2025-04-15_07h00.44.388,avatar_quest_3AFC_legacy,2022.1.3,Win32,60.24096386,67fa651c5c58b6c6be02eede,67fe37cb3bd870bba73819bd,67fe3a1a6112e334bf3f4eae,,,,,,,,,,,,,,,,,,,,,,,,,,,,,,,,,,,,,,,,,,,,,,,,,,,,,,,2,0,2,0,1,,,,,,,,,,,,,,,,,,
,,,,,,,,,,,,67fa651c5c58b6c6be02eede,001,3,2025-04-15_07h00.44.388,avatar_quest_3AFC_legacy,2022.1.3,Win32,60.24096386,67fa651c5c58b6c6be02eede,67fe37cb3bd870bba73819bd,67fe3a1a6112e334bf3f4eae,"[""left"",""right"",""right"",""left"",""right"",""left"",""right"",""left"",""left"",""right"",""left"",""right"",""left"",""left"",""right"",""left"",""left"",""right"",""left"",""right"",""left"",""right"",""left"",""right"",""right"",""left"",""right"",""right"",""left"",""right"",""right"",""left"",""right"",""left"",""right"",""left"",""right"",""right"",""left"",""right"",""left"",""right"",""left"",""up"",""up"",""up"",""up"",""up"",""left"",""left"",""right"",""left"",""right"",""left"",""right"",""left"",""left"",""left"",""left"",""right"",""right"",""right"",""left"",""right"",""left"",""right"",""right"",""right"",""right"",""right"",""right"",""right"",""right"",""right"",""right"",""right""]","[0.001399999999478041,0.001699999999289048,0.257899999999438,0.2580999999996152,0.5908999999994649,0.6084999999999923,0.8746999999992795,0.875,1.108099999999638,1.2909999999999968,1.4413999999994758,1.6746999999992909,1.7912999999998078,2.0745000000000005,2.324699999999268,2.407599999999661,2.7913999999994417,3.007799999999804,3.1580000000000155,3.274299999999812,3.441299999999842,3.7741999999992686,3.774299999999812,4.007699999999261,4.257699999999261,4.324599999999634,4.4912999999997965,4.674500000000023,4.807999999999993,4.958000000000027,5.091299999999819,5.1243999999994685,5.357799999999827,5.407599999999661,5.574299999999823,5.707599999999616,5.807999999999993,5.9742999999998005,6.041699999999253,6.158699999999271,6.307699999999272,6.591000000000008,6.607899999999461,6.841299999999819,7.024399999999446,7.29079999999982,7.491199999999253,7.657500000000027,7.791499999999985,8.107699999999284,8.341499999999996,8.391399999999464,8.624399999999468,8.67469999999929,8.857500000000016,8.941399999999476,9.39129999999983,9.7242999999998,9.990999999999985,10.157699999999238,10.35789999999946,10.591099999999642,10.94179999999983,11.274599999999623,11.274699999999257,11.491199999999253,11.673899999999435,11.92469999999929,12.091399999999453,12.324799999999811,12.524199999999269,12.724099999999623,12.908000000000015,13.107699999999284,13.290699999999276,13.457599999999616]",,calibration,With Brainslug Difficult 2 With Money,7,13.70655,13.7168,32,8,0,FALSE,na,na,na,na,,,,,,,,,,,,,,,,,,,,With Brainslug Difficult 2 With Money,With Brainslug Difficult 1 No Money,right,0.7176,"[""With Brainslug Difficult 1 No Money"",""With Brainslug Difficult 2 No Money""]",,,,,,,,,,0,0,0,0,1,,,,,,,,,,,,,,,,,,,,,,,
,,,,,,,,,,,,67fa651c5c58b6c6be02eede,001,3,2025-04-15_07h00.44.388,avatar_quest_3AFC_legacy,2022.1.3,Win32,60.24096386,67fa651c5c58b6c6be02eede,67fe37cb3bd870bba73819bd,67fe3a1a6112e334bf3f4eae,,,,,,,,,,,,,,,,,,,,,,With Brainslug Difficult 2 With Money,12,images/assets/snowy_money.jpg,learning,20,images/assets/success_money.jpg,images/assets/gameover.jpg,,,,,,,,,,,,,0,0,0,2,1,,,,,,,,,,,,,,,,,,,,,,,,,,,,,,,,
,,,,,,,,,,,,67fa651c5c58b6c6be02eede,001,3,2025-04-15_07h00.44.388,avatar_quest_3AFC_legacy,2022.1.3,Win32,60.24096386,67fa651c5c58b6c6be02eede,67fe37cb3bd870bba73819bd,67fe3a1a6112e334bf3f4eae,,,,,,,,,,,,,,,,,,,,,,With Brainslug Difficult 1 No Money,6,images/assets/snowy_original.jpg,learning,20,images/assets/success.jpg,images/assets/gameover.jpg,,,,,,,,,,,,,0,1,1,1,1,,,,,,,,,,,,,,,,,,,,,,,,,,,,,,,,
,,,,,,,,,,,,67fa651c5c58b6c6be02eede,001,3,2025-04-15_07h00.44.388,avatar_quest_3AFC_legacy,2022.1.3,Win32,60.24096386,67fa651c5c58b6c6be02eede,67fe37cb3bd870bba73819bd,67fe3a1a6112e334bf3f4eae,,,,,,,,,,,,,,,,,,,,,,No Brainslug Difficult 2 With Money,12,images/assets/snowy_money.jpg,learning,20,images/assets/success_money.jpg,images/assets/gameover.jpg,,,,,,,,,,,,,0,2,2,7,1,,,,,,,,,,,,,,,,,,,,,,,,,,,,,,,,
,,,,,,,,,,,,67fa651c5c58b6c6be02eede,001,3,2025-04-15_07h00.44.388,avatar_quest_3AFC_legacy,2022.1.3,Win32,60.24096386,67fa651c5c58b6c6be02eede,67fe37cb3bd870bba73819bd,67fe3a1a6112e334bf3f4eae,,,,,,,,,,,,,,,,,,,,,,No Brainslug No Barriers With Money,0,images/assets/snowy_money.jpg,learning,10,images/assets/success_money.jpg,images/assets/gameover.jpg,,,,,,,,,,,,,0,3,3,9,1,,,,,,,,,,,,,,,,,,,,,,,,,,,,,,,,
,,,,,,,,,,,,67fa651c5c58b6c6be02eede,001,3,2025-04-15_07h00.44.388,avatar_quest_3AFC_legacy,2022.1.3,Win32,60.24096386,67fa651c5c58b6c6be02eede,67fe37cb3bd870bba73819bd,67fe3a1a6112e334bf3f4eae,,,,,,,,,,,,,,,,,,,,,,With Brainslug Difficult 2 No Money,12,images/assets/snowy_original.jpg,learning,20,images/assets/success.jpg,images/assets/gameover.jpg,,,,,,,,,,,,,0,4,4,3,1,,,,,,,,,,,,,,,,,,,,,,,,,,,,,,,,
,,,,,,,,,,,,67fa651c5c58b6c6be02eede,001,3,2025-04-15_07h00.44.388,avatar_quest_3AFC_legacy,2022.1.3,Win32,60.24096386,67fa651c5c58b6c6be02eede,67fe37cb3bd870bba73819bd,67fe3a1a6112e334bf3f4eae,,,,,,,,,,,,,,,,,,,,,,No Brainslug Difficult 2 No Money,12,images/assets/snowy_original.jpg,learning,20,images/assets/success.jpg,images/assets/gameover.jpg,,,,,,,,,,,,,0,5,5,8,1,,,,,,,,,,,,,,,,,,,,,,,,,,,,,,,,
,,,,,,,,,,,,67fa651c5c58b6c6be02eede,001,3,2025-04-15_07h00.44.388,avatar_quest_3AFC_legacy,2022.1.3,Win32,60.24096386,67fa651c5c58b6c6be02eede,67fe37cb3bd870bba73819bd,67fe3a1a6112e334bf3f4eae,,,,,,,,,,,,,,,,,,,,,,No Brainslug No Barriers No Money,0,images/assets/snowy_original.jpg,learning,10,images/assets/success.jpg,images/assets/gameover.jpg,,,,,,,,,,,,,0,6,6,10,1,,,,,,,,,,,,,,,,,,,,,,,,,,,,,,,,
,,,,,,,,,,,,67fa651c5c58b6c6be02eede,001,3,2025-04-15_07h00.44.388,avatar_quest_3AFC_legacy,2022.1.3,Win32,60.24096386,67fa651c5c58b6c6be02eede,67fe37cb3bd870bba73819bd,67fe3a1a6112e334bf3f4eae,,,,,,,,,,,,,,,,,,,,,,No Brainslug Difficult 1 No Money,6,images/assets/snowy_original.jpg,learning,20,images/assets/success.jpg,images/assets/gameover.jpg,,,,,,,,,,,,,0,7,7,6,1,,,,,,,,,,,,,,,,,,,,,,,,,,,,,,,,
,,,,,,,,,,,,67fa651c5c58b6c6be02eede,001,3,2025-04-15_07h00.44.388,avatar_quest_3AFC_legacy,2022.1.3,Win32,60.24096386,67fa651c5c58b6c6be02eede,67fe37cb3bd870bba73819bd,67fe3a1a6112e334bf3f4eae,,,,,,,,,,,,,,,,,,,,,,With Brainslug Difficult 1 With Money,6,images/assets/snowy_money.jpg,learning,20,images/assets/success_money.jpg,images/assets/gameover.jpg,,,,,,,,,,,,,0,8,8,0,1,,,,,,,,,,,,,,,,,,,,,,,,,,,,,,,,
,,,,,,,,,,,,67fa651c5c58b6c6be02eede,001,3,2025-04-15_07h00.44.388,avatar_quest_3AFC_legacy,2022.1.3,Win32,60.24096386,67fa651c5c58b6c6be02eede,67fe37cb3bd870bba73819bd,67fe3a1a6112e334bf3f4eae,,,,,,,,,,,,,,,,,,,,,,With Brainslug No Barriers No Money,0,images/assets/snowy_original.jpg,learning,10,images/assets/success.jpg,images/assets/gameover.jpg,,,,,,,,,,,,,0,9,9,5,1,,,,,,,,,,,,,,,,,,,,,,,,,,,,,,,,
,,,,,,,,,,,,67fa651c5c58b6c6be02eede,001,3,2025-04-15_07h00.44.388,avatar_quest_3AFC_legacy,2022.1.3,Win32,60.24096386,67fa651c5c58b6c6be02eede,67fe37cb3bd870bba73819bd,67fe3a1a6112e334bf3f4eae,,,,,,,,,,,,,,,,,,,,,,With Brainslug No Barriers With Money,0,images/assets/snowy_money.jpg,learning,10,images/assets/success_money.jpg,images/assets/gameover.jpg,,,,,,,,,,,,,0,10,10,4,1,,,,,,,,,,,,,,,,,,,,,,,,,,,,,,,,
,,,,,,,,,,,,67fa651c5c58b6c6be02eede,001,3,2025-04-15_07h00.44.388,avatar_quest_3AFC_legacy,2022.1.3,Win32,60.24096386,67fa651c5c58b6c6be02eede,67fe37cb3bd870bba73819bd,67fe3a1a6112e334bf3f4eae,,,,,,,,,,,,,,,,,,,,,,,,,,,,,,,,,,,,,,,,,,,,,,,,,,,,,,,3,0,3,0,1,,,,,,,,,,,,,,,,,,
,,,,,,,,,,,,67fa651c5c58b6c6be02eede,001,3,2025-04-15_07h00.44.388,avatar_quest_3AFC_legacy,2022.1.3,Win32,60.24096386,67fa651c5c58b6c6be02eede,67fe37cb3bd870bba73819bd,67fe3a1a6112e334bf3f4eae,,,,,,,,,,,,,,,,,,,,,,With Brainslug No Barriers No Money,0,images/assets/snowy_original.jpg,learning,10,images/assets/success.jpg,images/assets/gameover.jpg,,,,,,,,With Brainslug Difficult 2 With Money,With Brainslug Difficult 1 No Money,right,0.734,"[""With Brainslug Difficult 1 No Money"",""With Brainslug Difficult 2 No Money""]",0,0,0,5,1,,,,,,,,,,,,,,,,,,,,,,,,,,,,,,,,
,,,,,,,,,,,,67fa651c5c58b6c6be02eede,001,3,2025-04-15_07h00.44.388,avatar_quest_3AFC_legacy,2022.1.3,Win32,60.24096386,67fa651c5c58b6c6be02eede,67fe37cb3bd870bba73819bd,67fe3a1a6112e334bf3f4eae,,,,,,,,,,,,,,,,,,,,,,No Brainslug Difficult 2 No Money,12,images/assets/snowy_original.jpg,learning,20,images/assets/success.jpg,images/assets/gameover.jpg,,,,,,,,,,,,,0,1,1,8,1,,,,,,,,,,,,,,,,,,,,,,,,,,,,,,,,
,,,,,,,,,,,,67fa651c5c58b6c6be02eede,001,3,2025-04-15_07h00.44.388,avatar_quest_3AFC_legacy,2022.1.3,Win32,60.24096386,67fa651c5c58b6c6be02eede,67fe37cb3bd870bba73819bd,67fe3a1a6112e334bf3f4eae,,,,,,,,,,,,,,,,,,,,,,With Brainslug Difficult 2 No Money,12,images/assets/snowy_original.jpg,learning,20,images/assets/success.jpg,images/assets/gameover.jpg,,,,,,,,,,,,,0,2,2,3,1,,,,,,,,,,,,,,,,,,,,,,,,,,,,,,,,
,,,,,,,,,,,,67fa651c5c58b6c6be02eede,001,3,2025-04-15_07h00.44.388,avatar_quest_3AFC_legacy,2022.1.3,Win32,60.24096386,67fa651c5c58b6c6be02eede,67fe37cb3bd870bba73819bd,67fe3a1a6112e334bf3f4eae,,,,,,,,,,,,,,,,,,,,,,With Brainslug Difficult 1 No Money,6,images/assets/snowy_original.jpg,learning,20,images/assets/success.jpg,images/assets/gameover.jpg,,,,,,,,,,,,,0,3,3,1,1,,,,,,,,,,,,,,,,,,,,,,,,,,,,,,,,
,,,,,,,,,,,,67fa651c5c58b6c6be02eede,001,3,2025-04-15_07h00.44.388,avatar_quest_3AFC_legacy,2022.1.3,Win32,60.24096386,67fa651c5c58b6c6be02eede,67fe37cb3bd870bba73819bd,67fe3a1a6112e334bf3f4eae,,,,,,,,,,,,,,,,,,,,,,With Brainslug Difficult 1 With Money,6,images/assets/snowy_money.jpg,learning,20,images/assets/success_money.jpg,images/assets/gameover.jpg,,,,,,,,,,,,,0,4,4,0,1,,,,,,,,,,,,,,,,,,,,,,,,,,,,,,,,
,,,,,,,,,,,,67fa651c5c58b6c6be02eede,001,3,2025-04-15_07h00.44.388,avatar_quest_3AFC_legacy,2022.1.3,Win32,60.24096386,67fa651c5c58b6c6be02eede,67fe37cb3bd870bba73819bd,67fe3a1a6112e334bf3f4eae,,,,,,,,,,,,,,,,,,,,,,No Brainslug Difficult 1 No Money,6,images/assets/snowy_original.jpg,learning,20,images/assets/success.jpg,images/assets/gameover.jpg,,,,,,,,,,,,,0,5,5,6,1,,,,,,,,,,,,,,,,,,,,,,,,,,,,,,,,
,,,,,,,,,,,,67fa651c5c58b6c6be02eede,001,3,2025-04-15_07h00.44.388,avatar_quest_3AFC_legacy,2022.1.3,Win32,60.24096386,67fa651c5c58b6c6be02eede,67fe37cb3bd870bba73819bd,67fe3a1a6112e334bf3f4eae,,,,,,,,,,,,,,,,,,,,,,With Brainslug No Barriers With Money,0,images/assets/snowy_money.jpg,learning,10,images/assets/success_money.jpg,images/assets/gameover.jpg,,,,,,,,,,,,,0,6,6,4,1,,,,,,,,,,,,,,,,,,,,,,,,,,,,,,,,
,,,,,,,,,,,,67fa651c5c58b6c6be02eede,001,3,2025-04-15_07h00.44.388,avatar_quest_3AFC_legacy,2022.1.3,Win32,60.24096386,67fa651c5c58b6c6be02eede,67fe37cb3bd870bba73819bd,67fe3a1a6112e334bf3f4eae,,,,,,,,,,,,,,,,,,,,,,No Brainslug No Barriers With Money,0,images/assets/snowy_money.jpg,learning,10,images/assets/success_money.jpg,images/assets/gameover.jpg,,,,,,,,,,,,,0,7,7,9,1,,,,,,,,,,,,,,,,,,,,,,,,,,,,,,,,
,,,,,,,,,,,,67fa651c5c58b6c6be02eede,001,3,2025-04-15_07h00.44.388,avatar_quest_3AFC_legacy,2022.1.3,Win32,60.24096386,67fa651c5c58b6c6be02eede,67fe37cb3bd870bba73819bd,67fe3a1a6112e334bf3f4eae,,,,,,,,,,,,,,,,,,,,,,No Brainslug No Barriers No Money,0,images/assets/snowy_original.jpg,learning,10,images/assets/success.jpg,images/assets/gameover.jpg,,,,,,,,,,,,,0,8,8,10,1,,,,,,,,,,,,,,,,,,,,,,,,,,,,,,,,
,,,,,,,,,,,,67fa651c5c58b6c6be02eede,001,3,2025-04-15_07h00.44.388,avatar_quest_3AFC_legacy,2022.1.3,Win32,60.24096386,67fa651c5c58b6c6be02eede,67fe37cb3bd870bba73819bd,67fe3a1a6112e334bf3f4eae,,,,,,,,,,,,,,,,,,,,,,No Brainslug Difficult 2 With Money,12,images/assets/snowy_money.jpg,learning,20,images/assets/success_money.jpg,images/assets/gameover.jpg,,,,,,,,,,,,,0,9,9,7,1,,,,,,,,,,,,,,,,,,,,,,,,,,,,,,,,
,,,,,,,,,,,,67fa651c5c58b6c6be02eede,001,3,2025-04-15_07h00.44.388,avatar_quest_3AFC_legacy,2022.1.3,Win32,60.24096386,67fa651c5c58b6c6be02eede,67fe37cb3bd870bba73819bd,67fe3a1a6112e334bf3f4eae,"[""right"",""right"",""left"",""right"",""left"",""right"",""left"",""right"",""right"",""left"",""right"",""left"",""right"",""left"",""right"",""left"",""right"",""left"",""right"",""right"",""left"",""right"",""left"",""right"",""right"",""left"",""right"",""right"",""left"",""right"",""right"",""left"",""right"",""right"",""left"",""right"",""right"",""left"",""right"",""left"",""right"",""right"",""left"",""right"",""right"",""right"",""right"",""right"",""right"",""right"",""left"",""right"",""right"",""left"",""right"",""left"",""left"",""left"",""right"",""right"",""left"",""right"",""right"",""right"",""left"",""left"",""right"",""left"",""right"",""right"",""left"",""up"",""up"",""up"",""up"",""up""]","[0.06260000000054333,0.34660000000053515,0.4079000000003816,0.6449999999999818,0.763700000000199,0.909900000000448,1.2102000000002135,1.4022000000002208,1.6041000000005852,1.60450000000003,1.7716000000006034,1.9358000000007678,2.08620000000019,2.2363000000007105,2.4028000000007523,2.6193000000007487,2.819700000000239,2.9694000000004053,3.069100000000617,3.252800000000775,3.3026000000005524,3.486200000000167,3.6192000000002054,3.686300000000756,3.869800000000737,4.1030000000000655,4.1366000000006125,4.319700000000239,4.485900000000356,4.569300000000794,4.752500000000055,4.885900000000447,4.985900000000356,5.16920000000016,5.30280000000073,5.386500000000069,5.602600000000621,5.6366000000006125,5.7861000000006015,5.953200000000152,6.052700000000186,6.236100000000533,6.3694000000003825,6.469500000000039,6.652600000000575,6.8691000000005715,7.052200000000198,7.269200000000183,7.45260000000053,7.635900000000447,7.95260000000053,8.16920000000016,8.35230000000081,8.569300000000794,8.902900000000386,9.135800000000813,9.469200000000228,9.669300000000817,9.785900000000424,9.969300000000771,10.08620000000019,10.269499999999994,10.452400000000353,10.652500000000032,10.869400000000383,11.185900000000402,11.586000000000013,11.769300000000726,12.052400000000375,12.236400000000344,12.402300000000764,12.870100000000548,13.052600000000552,13.219100000000594,13.419300000000817,13.585900000000379]",,calibration,With Brainslug Difficult 2 With Money,8,13.70655,13.7195,28,7,0,FALSE,na,na,na,na,,,,,,,,,,,,,,,,,,,,,,,,,,,,,,,,,,0,0,0,0,1,,,,,,,,,,,,,,,,,,,,,,,
,,,,,,,,,,,,67fa651c5c58b6c6be02eede,001,3,2025-04-15_07h00.44.388,avatar_quest_3AFC_legacy,2022.1.3,Win32,60.24096386,67fa651c5c58b6c6be02eede,67fe37cb3bd870bba73819bd,67fe3a1a6112e334bf3f4eae,,,,,,,,,,,,,,,,,,,,,,With Brainslug Difficult 2 With Money,12,images/assets/snowy_money.jpg,learning,20,images/assets/success_money.jpg,images/assets/gameover.jpg,,,,,,,,,,,,,0,10,10,2,1,,,,,,,,,,,,,,,,,,,,,,,,,,,,,,,,
,,,,,,,,,,,,67fa651c5c58b6c6be02eede,001,3,2025-04-15_07h00.44.388,avatar_quest_3AFC_legacy,2022.1.3,Win32,60.24096386,67fa651c5c58b6c6be02eede,67fe37cb3bd870bba73819bd,67fe3a1a6112e334bf3f4eae,,,,,,,,,,,,,,,,,,,,,,,,,,,,,,,,,,,,,,,,,,,,,,,,,,,,,,,4,0,4,0,1,,,,,,,,,,,,,,,,,,
,,,,,,,,,,,,67fa651c5c58b6c6be02eede,001,3,2025-04-15_07h00.44.388,avatar_quest_3AFC_legacy,2022.1.3,Win32,60.24096386,67fa651c5c58b6c6be02eede,67fe37cb3bd870bba73819bd,67fe3a1a6112e334bf3f4eae,,,,,,,,,,,,,,,,,,,,,,No Brainslug No Barriers With Money,0,images/assets/snowy_money.jpg,learning,10,images/assets/success_money.jpg,images/assets/gameover.jpg,,,,,,,,With Brainslug Difficult 2 With Money,With Brainslug Difficult 1 No Money,right,0.8677,"[""With Brainslug Difficult 1 No Money"",""With Brainslug Difficult 2 No Money""]",0,0,0,9,1,,,,,,,,,,,,,,,,,,,,,,,,,,,,,,,,
,,,,,,,,,,,,67fa651c5c58b6c6be02eede,001,3,2025-04-15_07h00.44.388,avatar_quest_3AFC_legacy,2022.1.3,Win32,60.24096386,67fa651c5c58b6c6be02eede,67fe37cb3bd870bba73819bd,67fe3a1a6112e334bf3f4eae,,,,,,,,,,,,,,,,,,,,,,With Brainslug Difficult 1 No Money,6,images/assets/snowy_original.jpg,learning,20,images/assets/success.jpg,images/assets/gameover.jpg,,,,,,,,,,,,,0,1,1,1,1,,,,,,,,,,,,,,,,,,,,,,,,,,,,,,,,
,,,,,,,,,,,,67fa651c5c58b6c6be02eede,001,3,2025-04-15_07h00.44.388,avatar_quest_3AFC_legacy,2022.1.3,Win32,60.24096386,67fa651c5c58b6c6be02eede,67fe37cb3bd870bba73819bd,67fe3a1a6112e334bf3f4eae,,,,,,,,,,,,,,,,,,,,,,No Brainslug Difficult 2 With Money,12,images/assets/snowy_money.jpg,learning,20,images/assets/success_money.jpg,images/assets/gameover.jpg,,,,,,,,,,,,,0,2,2,7,1,,,,,,,,,,,,,,,,,,,,,,,,,,,,,,,,
,,,,,,,,,,,,67fa651c5c58b6c6be02eede,001,3,2025-04-15_07h00.44.388,avatar_quest_3AFC_legacy,2022.1.3,Win32,60.24096386,67fa651c5c58b6c6be02eede,67fe37cb3bd870bba73819bd,67fe3a1a6112e334bf3f4eae,,,,,,,,,,,,,,,,,,,,,,No Brainslug Difficult 1 No Money,6,images/assets/snowy_original.jpg,learning,20,images/assets/success.jpg,images/assets/gameover.jpg,,,,,,,,,,,,,0,3,3,6,1,,,,,,,,,,,,,,,,,,,,,,,,,,,,,,,,
,,,,,,,,,,,,67fa651c5c58b6c6be02eede,001,3,2025-04-15_07h00.44.388,avatar_quest_3AFC_legacy,2022.1.3,Win32,60.24096386,67fa651c5c58b6c6be02eede,67fe37cb3bd870bba73819bd,67fe3a1a6112e334bf3f4eae,,,,,,,,,,,,,,,,,,,,,,With Brainslug Difficult 1 With Money,6,images/assets/snowy_money.jpg,learning,20,images/assets/success_money.jpg,images/assets/gameover.jpg,,,,,,,,,,,,,0,4,4,0,1,,,,,,,,,,,,,,,,,,,,,,,,,,,,,,,,
,,,,,,,,,,,,67fa651c5c58b6c6be02eede,001,3,2025-04-15_07h00.44.388,avatar_quest_3AFC_legacy,2022.1.3,Win32,60.24096386,67fa651c5c58b6c6be02eede,67fe37cb3bd870bba73819bd,67fe3a1a6112e334bf3f4eae,,,,,,,,,,,,,,,,,,,,,,With Brainslug No Barriers No Money,0,images/assets/snowy_original.jpg,learning,10,images/assets/success.jpg,images/assets/gameover.jpg,,,,,,,,,,,,,0,5,5,5,1,,,,,,,,,,,,,,,,,,,,,,,,,,,,,,,,
,,,,,,,,,,,,67fa651c5c58b6c6be02eede,001,3,2025-04-15_07h00.44.388,avatar_quest_3AFC_legacy,2022.1.3,Win32,60.24096386,67fa651c5c58b6c6be02eede,67fe37cb3bd870bba73819bd,67fe3a1a6112e334bf3f4eae,,,,,,,,,,,,,,,,,,,,,,No Brainslug No Barriers No Money,0,images/assets/snowy_original.jpg,learning,10,images/assets/success.jpg,images/assets/gameover.jpg,,,,,,,,,,,,,0,6,6,10,1,,,,,,,,,,,,,,,,,,,,,,,,,,,,,,,,
,,,,,,,,,,,,67fa651c5c58b6c6be02eede,001,3,2025-04-15_07h00.44.388,avatar_quest_3AFC_legacy,2022.1.3,Win32,60.24096386,67fa651c5c58b6c6be02eede,67fe37cb3bd870bba73819bd,67fe3a1a6112e334bf3f4eae,"[""right"",""left"",""right"",""left"",""right"",""right"",""left"",""right"",""left"",""right"",""right"",""left"",""right"",""right"",""left"",""right"",""right"",""left"",""right"",""left"",""right"",""left"",""left"",""right"",""right"",""right"",""right"",""right"",""left"",""left"",""left"",""left"",""right"",""right"",""right"",""right"",""right"",""left"",""left"",""left"",""left"",""left"",""left"",""left"",""right"",""right"",""right"",""right"",""right"",""right"",""right"",""right"",""right"",""up"",""up"",""up"",""up"",""up"",""up"",""up"",""up"",""left"",""left"",""left"",""left""]","[0.021799999999757347,0.07169999999928223,0.2892999999997983,0.36089999999944666,0.47159999999962565,0.6547999999997955,0.6878999999994448,0.8541999999991958,1.021699999999214,1.0556999999992058,1.260299999999802,1.3557999999998174,1.4736999999992122,1.6712999999998601,1.6725000000000136,1.8555000000000064,2.0720999999996366,2.0720999999996366,2.271399999999403,2.4710999999996375,2.49459999999965,2.754599999999641,3.077399999999443,3.405999999999949,3.6067999999997937,3.8215000000000146,4.021799999999757,4.204799999999864,4.657199999999193,4.922199999999293,5.121399999999426,5.33839999999941,5.705000000000041,5.888299999999845,6.076799999999821,6.271399999999403,6.454899999999384,6.677299999999832,6.943499999999972,7.1547999999997955,7.342799999999784,7.6547999999997955,7.888000000000034,8.105000000000018,8.271699999999214,8.456099999999651,8.639399999999455,8.825099999999566,9.004799999999818,9.17129999999986,9.355199999999286,9.537899999999468,9.73819999999921,10.304799999999773,10.52800000000002,10.770799999999781,11.121699999999237,11.307299999999827,11.487699999999222,11.67209999999966,11.854899999999475,12.371499999999969,12.6376999999992,12.938099999999622,13.271399999999403]",,calibration,With Brainslug Difficult 2 With Money,9,13.70655,13.7156,25,9,0,FALSE,na,na,na,na,,,,,,,,,,,,,,,,,,,,,,,,,,,,,,,,,,0,0,0,0,1,,,,,,,,,,,,,,,,,,,,,,,
,,,,,,,,,,,,67fa651c5c58b6c6be02eede,001,3,2025-04-15_07h00.44.388,avatar_quest_3AFC_legacy,2022.1.3,Win32,60.24096386,67fa651c5c58b6c6be02eede,67fe37cb3bd870bba73819bd,67fe3a1a6112e334bf3f4eae,,,,,,,,,,,,,,,,,,,,,,With Brainslug Difficult 2 With Money,12,images/assets/snowy_money.jpg,learning,20,images/assets/success_money.jpg,images/assets/gameover.jpg,,,,,,,,,,,,,0,7,7,2,1,,,,,,,,,,,,,,,,,,,,,,,,,,,,,,,,
,,,,,,,,,,,,67fa651c5c58b6c6be02eede,001,3,2025-04-15_07h00.44.388,avatar_quest_3AFC_legacy,2022.1.3,Win32,60.24096386,67fa651c5c58b6c6be02eede,67fe37cb3bd870bba73819bd,67fe3a1a6112e334bf3f4eae,,,,,,,,,,,,,,,,,,,,,,No Brainslug Difficult 2 No Money,12,images/assets/snowy_original.jpg,learning,20,images/assets/success.jpg,images/assets/gameover.jpg,,,,,,,,,,,,,0,8,8,8,1,,,,,,,,,,,,,,,,,,,,,,,,,,,,,,,,
,,,,,,,,,,,,67fa651c5c58b6c6be02eede,001,3,2025-04-15_07h00.44.388,avatar_quest_3AFC_legacy,2022.1.3,Win32,60.24096386,67fa651c5c58b6c6be02eede,67fe37cb3bd870bba73819bd,67fe3a1a6112e334bf3f4eae,,,,,,,,,,,,,,,,,,,,,,With Brainslug Difficult 2 No Money,12,images/assets/snowy_original.jpg,learning,20,images/assets/success.jpg,images/assets/gameover.jpg,,,,,,,,,,,,,0,9,9,3,1,,,,,,,,,,,,,,,,,,,,,,,,,,,,,,,,
,,,,,,,,,,,,67fa651c5c58b6c6be02eede,001,3,2025-04-15_07h00.44.388,avatar_quest_3AFC_legacy,2022.1.3,Win32,60.24096386,67fa651c5c58b6c6be02eede,67fe37cb3bd870bba73819bd,67fe3a1a6112e334bf3f4eae,,,,,,,,,,,,,,,,,,,,,,With Brainslug No Barriers With Money,0,images/assets/snowy_money.jpg,learning,10,images/assets/success_money.jpg,images/assets/gameover.jpg,,,,,,,,,,,,,0,10,10,4,1,,,,,,,,,,,,,,,,,,,,,,,,,,,,,,,,
,,,,,,,,,,,,67fa651c5c58b6c6be02eede,001,3,2025-04-15_07h00.44.388,avatar_quest_3AFC_legacy,2022.1.3,Win32,60.24096386,67fa651c5c58b6c6be02eede,67fe37cb3bd870bba73819bd,67fe3a1a6112e334bf3f4eae,,,,,,,,,,,,,,,,,,,,,,,,,,,,,,,,,,,,,,,,,,,,,,,,,,,,,,,5,0,5,0,1,,,,,,,,,,,,,,,,,,
,,,,,,,,,,,,67fa651c5c58b6c6be02eede,001,3,2025-04-15_07h00.44.388,avatar_quest_3AFC_legacy,2022.1.3,Win32,60.24096386,67fa651c5c58b6c6be02eede,67fe37cb3bd870bba73819bd,67fe3a1a6112e334bf3f4eae,,,,,,,,,,,,,,,,,,,,,,No Brainslug Difficult 1 No Money,6,images/assets/snowy_original.jpg,learning,20,images/assets/success.jpg,images/assets/gameover.jpg,,,,,,,,With Brainslug Difficult 2 With Money,With Brainslug Difficult 1 No Money,right,0.6336,"[""With Brainslug Difficult 1 No Money"",""With Brainslug Difficult 2 No Money""]",0,0,0,6,1,,,,,,,,,,,,,,,,,,,,,,,,,,,,,,,,
,,,,,,,,,,,,67fa651c5c58b6c6be02eede,001,3,2025-04-15_07h00.44.388,avatar_quest_3AFC_legacy,2022.1.3,Win32,60.24096386,67fa651c5c58b6c6be02eede,67fe37cb3bd870bba73819bd,67fe3a1a6112e334bf3f4eae,,,,,,,,,,,,,,,,,,,,,,No Brainslug No Barriers With Money,0,images/assets/snowy_money.jpg,learning,10,images/assets/success_money.jpg,images/assets/gameover.jpg,,,,,,,,,,,,,0,1,1,9,1,,,,,,,,,,,,,,,,,,,,,,,,,,,,,,,,
,,,,,,,,,,,,67fa651c5c58b6c6be02eede,001,3,2025-04-15_07h00.44.388,avatar_quest_3AFC_legacy,2022.1.3,Win32,60.24096386,67fa651c5c58b6c6be02eede,67fe37cb3bd870bba73819bd,67fe3a1a6112e334bf3f4eae,,,,,,,,,,,,,,,,,,,,,,No Brainslug Difficult 2 No Money,12,images/assets/snowy_original.jpg,learning,20,images/assets/success.jpg,images/assets/gameover.jpg,,,,,,,,,,,,,0,2,2,8,1,,,,,,,,,,,,,,,,,,,,,,,,,,,,,,,,
,,,,,,,,,,,,67fa651c5c58b6c6be02eede,001,3,2025-04-15_07h00.44.388,avatar_quest_3AFC_legacy,2022.1.3,Win32,60.24096386,67fa651c5c58b6c6be02eede,67fe37cb3bd870bba73819bd,67fe3a1a6112e334bf3f4eae,,,,,,,,,,,,,,,,,,,,,,With Brainslug Difficult 1 With Money,6,images/assets/snowy_money.jpg,learning,20,images/assets/success_money.jpg,images/assets/gameover.jpg,,,,,,,,,,,,,0,3,3,0,1,,,,,,,,,,,,,,,,,,,,,,,,,,,,,,,,
,,,,,,,,,,,,67fa651c5c58b6c6be02eede,001,3,2025-04-15_07h00.44.388,avatar_quest_3AFC_legacy,2022.1.3,Win32,60.24096386,67fa651c5c58b6c6be02eede,67fe37cb3bd870bba73819bd,67fe3a1a6112e334bf3f4eae,,,,,,,,,,,,,,,,,,,,,,With Brainslug Difficult 1 No Money,6,images/assets/snowy_original.jpg,learning,20,images/assets/success.jpg,images/assets/gameover.jpg,,,,,,,,,,,,,0,4,4,1,1,,,,,,,,,,,,,,,,,,,,,,,,,,,,,,,,
,,,,,,,,,,,,67fa651c5c58b6c6be02eede,001,3,2025-04-15_07h00.44.388,avatar_quest_3AFC_legacy,2022.1.3,Win32,60.24096386,67fa651c5c58b6c6be02eede,67fe37cb3bd870bba73819bd,67fe3a1a6112e334bf3f4eae,,,,,,,,,,,,,,,,,,,,,,With Brainslug Difficult 2 No Money,12,images/assets/snowy_original.jpg,learning,20,images/assets/success.jpg,images/assets/gameover.jpg,,,,,,,,,,,,,0,5,5,3,1,,,,,,,,,,,,,,,,,,,,,,,,,,,,,,,,
,,,,,,,,,,,,67fa651c5c58b6c6be02eede,001,3,2025-04-15_07h00.44.388,avatar_quest_3AFC_legacy,2022.1.3,Win32,60.24096386,67fa651c5c58b6c6be02eede,67fe37cb3bd870bba73819bd,67fe3a1a6112e334bf3f4eae,,,,,,,,,,,,,,,,,,,,,,With Brainslug No Barriers No Money,0,images/assets/snowy_original.jpg,learning,10,images/assets/success.jpg,images/assets/gameover.jpg,,,,,,,,,,,,,0,6,6,5,1,,,,,,,,,,,,,,,,,,,,,,,,,,,,,,,,
,,,,,,,,,,,,67fa651c5c58b6c6be02eede,001,3,2025-04-15_07h00.44.388,avatar_quest_3AFC_legacy,2022.1.3,Win32,60.24096386,67fa651c5c58b6c6be02eede,67fe37cb3bd870bba73819bd,67fe3a1a6112e334bf3f4eae,"[""left"",""right"",""right"",""left"",""right"",""left"",""right"",""left"",""right"",""right"",""right"",""right"",""left"",""right"",""left"",""left"",""right"",""left"",""right"",""left"",""right"",""left"",""right"",""right"",""left"",""left"",""left"",""left"",""left"",""right"",""right"",""right"",""right"",""right"",""left"",""left"",""right"",""right"",""left"",""right"",""left"",""right"",""left"",""right"",""right"",""left"",""right"",""left"",""right"",""left"",""right"",""right"",""left"",""right"",""left"",""right"",""right"",""left"",""right"",""right"",""right"",""left"",""right"",""right"",""right"",""right"",""right"",""right"",""left"",""right"",""right"",""right"",""left"",""right"",""right"",""left"",""right"",""right"",""right"",""right"",""right"",""right"",""right"",""left""]","[0.04170000000010532,0.10779999999977008,0.2907999999997628,0.35799999999994725,0.4922999999997728,0.5582999999998037,0.707700000000159,0.8572999999997819,0.8742000000000871,1.0912000000001854,1.3413999999993393,1.9077000000000908,2.2413999999994303,2.408999999999992,2.4912000000001626,2.7412000000001626,2.9743999999993775,3.0247000000001663,3.1909999999999172,3.2412000000001626,3.39120000000014,3.541200000000117,3.5577000000001817,3.7582999999997355,3.791099999999574,4.040700000000129,4.274299999999812,4.5077000000001135,4.7412999999997965,5.024499999999989,5.290899999999397,5.524099999999635,5.7409999999999854,5.924200000000155,6.040700000000129,6.291299999999751,6.374499999999898,6.541599999999562,6.541799999999739,6.774000000000001,6.85779999999977,7.007299999999759,7.124399999999355,7.240599999999631,7.424299999999789,7.45799999999997,7.657499999999914,7.708799999999769,7.874499999999898,8.040899999999397,8.073999999999955,8.274499999999989,8.324499999999944,8.491799999999785,8.673899999999435,8.723700000000122,8.90770000000009,9.107499999999959,9.124799999999823,9.30820000000017,9.490599999999631,9.490700000000174,9.674200000000155,9.874299999999721,10.057599999999638,10.240899999999442,10.407299999999736,10.590899999999351,10.724399999999378,10.90709999999956,11.091000000000008,11.274700000000166,11.441099999999551,11.673999999999978,11.841200000000185,11.957299999999805,12.141099999999597,12.323700000000144,12.508200000000102,12.691099999999551,12.874599999999532,13.073799999999778,13.257799999999747,13.4245999999996]",,calibration,With Brainslug Difficult 2 With Money,10,13.70655,13.7216,33,9,0,FALSE,na,na,na,na,,,,,,,,,,,,,,,,,,,,,,,,,,,,,,,,,,0,0,0,0,1,,,,,,,,,,,,,,,,,,,,,,,
,,,,,,,,,,,,67fa651c5c58b6c6be02eede,001,3,2025-04-15_07h00.44.388,avatar_quest_3AFC_legacy,2022.1.3,Win32,60.24096386,67fa651c5c58b6c6be02eede,67fe37cb3bd870bba73819bd,67fe3a1a6112e334bf3f4eae,,,,,,,,,,,,,,,,,,,,,,With Brainslug Difficult 2 With Money,12,images/assets/snowy_money.jpg,learning,20,images/assets/success_money.jpg,images/assets/gameover.jpg,,,,,,,,,,,,,0,7,7,2,1,,,,,,,,,,,,,,,,,,,,,,,,,,,,,,,,
,,,,,,,,,,,,67fa651c5c58b6c6be02eede,001,3,2025-04-15_07h00.44.388,avatar_quest_3AFC_legacy,2022.1.3,Win32,60.24096386,67fa651c5c58b6c6be02eede,67fe37cb3bd870bba73819bd,67fe3a1a6112e334bf3f4eae,,,,,,,,,,,,,,,,,,,,,,No Brainslug No Barriers No Money,0,images/assets/snowy_original.jpg,learning,10,images/assets/success.jpg,images/assets/gameover.jpg,,,,,,,,,,,,,0,8,8,10,1,,,,,,,,,,,,,,,,,,,,,,,,,,,,,,,,
,,,,,,,,,,,,67fa651c5c58b6c6be02eede,001,3,2025-04-15_07h00.44.388,avatar_quest_3AFC_legacy,2022.1.3,Win32,60.24096386,67fa651c5c58b6c6be02eede,67fe37cb3bd870bba73819bd,67fe3a1a6112e334bf3f4eae,,,,,,,,,,,,,,,,,,,,,,With Brainslug No Barriers With Money,0,images/assets/snowy_money.jpg,learning,10,images/assets/success_money.jpg,images/assets/gameover.jpg,,,,,,,,,,,,,0,9,9,4,1,,,,,,,,,,,,,,,,,,,,,,,,,,,,,,,,
,,,,,,,,,,,,67fa651c5c58b6c6be02eede,001,3,2025-04-15_07h00.44.388,avatar_quest_3AFC_legacy,2022.1.3,Win32,60.24096386,67fa651c5c58b6c6be02eede,67fe37cb3bd870bba73819bd,67fe3a1a6112e334bf3f4eae,,,,,,,,,,,,,,,,,,,,,,No Brainslug Difficult 2 With Money,12,images/assets/snowy_money.jpg,learning,20,images/assets/success_money.jpg,images/assets/gameover.jpg,,,,,,,,,,,,,0,10,10,7,1,,,,,,,,,,,,,,,,,,,,,,,,,,,,,,,,
,,,,,,,,,,,,67fa651c5c58b6c6be02eede,001,3,2025-04-15_07h00.44.388,avatar_quest_3AFC_legacy,2022.1.3,Win32,60.24096386,67fa651c5c58b6c6be02eede,67fe37cb3bd870bba73819bd,67fe3a1a6112e334bf3f4eae,,,,,,,,,,,,,,,,,,,,,,,,,,,,,,,,,,,,,,,,,,,,,,,,,,,,,,,6,0,6,0,1,,,,,,,,,,,,,,,,,,
,,,,,,,,,,,,67fa651c5c58b6c6be02eede,001,3,2025-04-15_07h00.44.388,avatar_quest_3AFC_legacy,2022.1.3,Win32,60.24096386,67fa651c5c58b6c6be02eede,67fe37cb3bd870bba73819bd,67fe3a1a6112e334bf3f4eae,,,,,,,,,,,,,,,,,,,,,,No Brainslug Difficult 2 With Money,12,images/assets/snowy_money.jpg,learning,20,images/assets/success_money.jpg,images/assets/gameover.jpg,,,,,,,,With Brainslug Difficult 2 With Money,With Brainslug Difficult 1 No Money,right,0.0006,"[""With Brainslug Difficult 1 No Money"",""With Brainslug Difficult 2 No Money""]",0,0,0,7,1,,,,,,,,,,,,,,,,,,,,,,,,,,,,,,,,
,,,,,,,,,,,,67fa651c5c58b6c6be02eede,001,3,2025-04-15_07h00.44.388,avatar_quest_3AFC_legacy,2022.1.3,Win32,60.24096386,67fa651c5c58b6c6be02eede,67fe37cb3bd870bba73819bd,67fe3a1a6112e334bf3f4eae,,,,,,,,,,,,,,,,,,,,,,No Brainslug No Barriers With Money,0,images/assets/snowy_money.jpg,learning,10,images/assets/success_money.jpg,images/assets/gameover.jpg,,,,,,,,,,,,,0,1,1,9,1,,,,,,,,,,,,,,,,,,,,,,,,,,,,,,,,
,,,,,,,,,,,,67fa651c5c58b6c6be02eede,001,3,2025-04-15_07h00.44.388,avatar_quest_3AFC_legacy,2022.1.3,Win32,60.24096386,67fa651c5c58b6c6be02eede,67fe37cb3bd870bba73819bd,67fe3a1a6112e334bf3f4eae,,,,,,,,,,,,,,,,,,,,,,No Brainslug Difficult 1 No Money,6,images/assets/snowy_original.jpg,learning,20,images/assets/success.jpg,images/assets/gameover.jpg,,,,,,,,,,,,,0,2,2,6,1,,,,,,,,,,,,,,,,,,,,,,,,,,,,,,,,
,,,,,,,,,,,,67fa651c5c58b6c6be02eede,001,3,2025-04-15_07h00.44.388,avatar_quest_3AFC_legacy,2022.1.3,Win32,60.24096386,67fa651c5c58b6c6be02eede,67fe37cb3bd870bba73819bd,67fe3a1a6112e334bf3f4eae,,,,,,,,,,,,,,,,,,,,,,With Brainslug Difficult 2 No Money,12,images/assets/snowy_original.jpg,learning,20,images/assets/success.jpg,images/assets/gameover.jpg,,,,,,,,,,,,,0,3,3,3,1,,,,,,,,,,,,,,,,,,,,,,,,,,,,,,,,
,,,,,,,,,,,,67fa651c5c58b6c6be02eede,001,3,2025-04-15_07h00.44.388,avatar_quest_3AFC_legacy,2022.1.3,Win32,60.24096386,67fa651c5c58b6c6be02eede,67fe37cb3bd870bba73819bd,67fe3a1a6112e334bf3f4eae,,,,,,,,,,,,,,,,,,,,,,With Brainslug No Barriers With Money,0,images/assets/snowy_money.jpg,learning,10,images/assets/success_money.jpg,images/assets/gameover.jpg,,,,,,,,,,,,,0,4,4,4,1,,,,,,,,,,,,,,,,,,,,,,,,,,,,,,,,
,,,,,,,,,,,,67fa651c5c58b6c6be02eede,001,3,2025-04-15_07h00.44.388,avatar_quest_3AFC_legacy,2022.1.3,Win32,60.24096386,67fa651c5c58b6c6be02eede,67fe37cb3bd870bba73819bd,67fe3a1a6112e334bf3f4eae,,,,,,,,,,,,,,,,,,,,,,No Brainslug Difficult 2 No Money,12,images/assets/snowy_original.jpg,learning,20,images/assets/success.jpg,images/assets/gameover.jpg,,,,,,,,,,,,,0,5,5,8,1,,,,,,,,,,,,,,,,,,,,,,,,,,,,,,,,
,,,,,,,,,,,,67fa651c5c58b6c6be02eede,001,3,2025-04-15_07h00.44.388,avatar_quest_3AFC_legacy,2022.1.3,Win32,60.24096386,67fa651c5c58b6c6be02eede,67fe37cb3bd870bba73819bd,67fe3a1a6112e334bf3f4eae,"[""right"",""right"",""right"",""right"",""right"",""left"",""left"",""right"",""left"",""right"",""left"",""right"",""right"",""right"",""right"",""right"",""right"",""right"",""right"",""right"",""right"",""right"",""right"",""right"",""right"",""right"",""right"",""right"",""right"",""right"",""left"",""right"",""right"",""left"",""right"",""right"",""left"",""right"",""right"",""left"",""right"",""left"",""right"",""right"",""right"",""left"",""right"",""right"",""left"",""right"",""left"",""right"",""right"",""left"",""right"",""right"",""left"",""right"",""left"",""right"",""left"",""right"",""right"",""left"",""right"",""left"",""right"",""right"",""left"",""right"",""left"",""right"",""right"",""left""]","[0.09839999999951488,0.452399999999443,0.6481999999992922,0.8501999999992904,1.015199999999254,1.5023999999995112,1.8503999999994676,2.048000000000002,2.050299999999879,2.2145000000000437,2.2146999999993113,2.3820999999996957,2.6148999999994658,2.8476999999993495,3.2641999999992777,3.4327999999998156,3.61529999999982,3.820500000000038,4.031000000000063,4.247399999999516,4.448299999999904,4.604000000000042,5.002699999999322,5.2309999999999945,5.448199999999247,6.447699999999259,6.61629999999991,6.830899999999474,7.014699999999266,7.187399999999457,8.097399999999539,8.414099999999621,8.58800000000008,8.73059999999964,8.801099999999678,8.9643999999995,9.081199999999285,9.148099999999658,9.300399999999513,9.398199999999292,9.530699999999342,9.700199999999313,9.730799999999817,9.915099999999711,10.097000000000094,10.165199999999345,10.301099999999678,10.485399999999458,10.516399999999521,10.698599999999715,10.847599999999716,10.914199999999255,11.09800000000007,11.198599999999715,11.320500000000038,11.514199999999278,11.514299999999821,11.681099999999674,11.797699999999281,11.91450000000009,12.081099999999651,12.114399999999478,12.297599999999647,12.369500000000016,12.498000000000047,12.663999999999987,12.698199999999247,12.885699999999247,12.967199999999252,13.101899999999432,13.253699999999299,13.284399999999437,13.48139999999944,13.49969999999928]",,calibration,With Brainslug Difficult 2 With Money,11,13.70655,13.7163,27,5,0,FALSE,na,na,na,na,,,,,,,,,,,,,,,,,,,,,,,,,,,,,,,,,,0,0,0,0,1,,,,,,,,,,,,,,,,,,,,,,,
,,,,,,,,,,,,67fa651c5c58b6c6be02eede,001,3,2025-04-15_07h00.44.388,avatar_quest_3AFC_legacy,2022.1.3,Win32,60.24096386,67fa651c5c58b6c6be02eede,67fe37cb3bd870bba73819bd,67fe3a1a6112e334bf3f4eae,,,,,,,,,,,,,,,,,,,,,,With Brainslug Difficult 2 With Money,12,images/assets/snowy_money.jpg,learning,20,images/assets/success_money.jpg,images/assets/gameover.jpg,,,,,,,,,,,,,0,6,6,2,1,,,,,,,,,,,,,,,,,,,,,,,,,,,,,,,,
,,,,,,,,,,,,67fa651c5c58b6c6be02eede,001,3,2025-04-15_07h00.44.388,avatar_quest_3AFC_legacy,2022.1.3,Win32,60.24096386,67fa651c5c58b6c6be02eede,67fe37cb3bd870bba73819bd,67fe3a1a6112e334bf3f4eae,,,,,,,,,,,,,,,,,,,,,,With Brainslug No Barriers No Money,0,images/assets/snowy_original.jpg,learning,10,images/assets/success.jpg,images/assets/gameover.jpg,,,,,,,,,,,,,0,7,7,5,1,,,,,,,,,,,,,,,,,,,,,,,,,,,,,,,,
,,,,,,,,,,,,67fa651c5c58b6c6be02eede,001,3,2025-04-15_07h00.44.388,avatar_quest_3AFC_legacy,2022.1.3,Win32,60.24096386,67fa651c5c58b6c6be02eede,67fe37cb3bd870bba73819bd,67fe3a1a6112e334bf3f4eae,,,,,,,,,,,,,,,,,,,,,,With Brainslug Difficult 1 No Money,6,images/assets/snowy_original.jpg,learning,20,images/assets/success.jpg,images/assets/gameover.jpg,,,,,,,,,,,,,0,8,8,1,1,,,,,,,,,,,,,,,,,,,,,,,,,,,,,,,,
,,,,,,,,,,,,67fa651c5c58b6c6be02eede,001,3,2025-04-15_07h00.44.388,avatar_quest_3AFC_legacy,2022.1.3,Win32,60.24096386,67fa651c5c58b6c6be02eede,67fe37cb3bd870bba73819bd,67fe3a1a6112e334bf3f4eae,,,,,,,,,,,,,,,,,,,,,,No Brainslug No Barriers No Money,0,images/assets/snowy_original.jpg,learning,10,images/assets/success.jpg,images/assets/gameover.jpg,,,,,,,,,,,,,0,9,9,10,1,,,,,,,,,,,,,,,,,,,,,,,,,,,,,,,,
,,,,,,,,,,,,67fa651c5c58b6c6be02eede,001,3,2025-04-15_07h00.44.388,avatar_quest_3AFC_legacy,2022.1.3,Win32,60.24096386,67fa651c5c58b6c6be02eede,67fe37cb3bd870bba73819bd,67fe3a1a6112e334bf3f4eae,,,,,,,,,,,,,,,,,,,,,,With Brainslug Difficult 1 With Money,6,images/assets/snowy_money.jpg,learning,20,images/assets/success_money.jpg,images/assets/gameover.jpg,,,,,,,,,,,,,0,10,10,0,1,,,,,,,,,,,,,,,,,,,,,,,,,,,,,,,,
,,,,,,,,,,,,67fa651c5c58b6c6be02eede,001,3,2025-04-15_07h00.44.388,avatar_quest_3AFC_legacy,2022.1.3,Win32,60.24096386,67fa651c5c58b6c6be02eede,67fe37cb3bd870bba73819bd,67fe3a1a6112e334bf3f4eae,,,,,,,,,,,,,,,,,,,,,,,,,,,,,,,,,,,,,,,,,,,,,,,,,,,,,,,7,0,7,0,1,,,,,,,,,,,,,,,,,,
,,,,,,,,,,,,67fa651c5c58b6c6be02eede,001,3,2025-04-15_07h00.44.388,avatar_quest_3AFC_legacy,2022.1.3,Win32,60.24096386,67fa651c5c58b6c6be02eede,67fe37cb3bd870bba73819bd,67fe3a1a6112e334bf3f4eae,,,,,,,,,,,,,,,,,,,,,,With Brainslug Difficult 2 No Money,12,images/assets/snowy_original.jpg,learning,20,images/assets/success.jpg,images/assets/gameover.jpg,,,,,,,,With Brainslug Difficult 2 With Money,With Brainslug Difficult 1 No Money,right,0.024,"[""With Brainslug Difficult 1 No Money"",""With Brainslug Difficult 2 No Money""]",0,0,0,3,1,,,,,,,,,,,,,,,,,,,,,,,,,,,,,,,,
,,,,,,,,,,,,67fa651c5c58b6c6be02eede,001,3,2025-04-15_07h00.44.388,avatar_quest_3AFC_legacy,2022.1.3,Win32,60.24096386,67fa651c5c58b6c6be02eede,67fe37cb3bd870bba73819bd,67fe3a1a6112e334bf3f4eae,,,,,,,,,,,,,,,,,,,,,,No Brainslug Difficult 1 No Money,6,images/assets/snowy_original.jpg,learning,20,images/assets/success.jpg,images/assets/gameover.jpg,,,,,,,,,,,,,0,1,1,6,1,,,,,,,,,,,,,,,,,,,,,,,,,,,,,,,,
,,,,,,,,,,,,67fa651c5c58b6c6be02eede,001,3,2025-04-15_07h00.44.388,avatar_quest_3AFC_legacy,2022.1.3,Win32,60.24096386,67fa651c5c58b6c6be02eede,67fe37cb3bd870bba73819bd,67fe3a1a6112e334bf3f4eae,,,,,,,,,,,,,,,,,,,,,,With Brainslug Difficult 1 No Money,6,images/assets/snowy_original.jpg,learning,20,images/assets/success.jpg,images/assets/gameover.jpg,,,,,,,,,,,,,0,2,2,1,1,,,,,,,,,,,,,,,,,,,,,,,,,,,,,,,,
,,,,,,,,,,,,67fa651c5c58b6c6be02eede,001,3,2025-04-15_07h00.44.388,avatar_quest_3AFC_legacy,2022.1.3,Win32,60.24096386,67fa651c5c58b6c6be02eede,67fe37cb3bd870bba73819bd,67fe3a1a6112e334bf3f4eae,,,,,,,,,,,,,,,,,,,,,,With Brainslug Difficult 1 With Money,6,images/assets/snowy_money.jpg,learning,20,images/assets/success_money.jpg,images/assets/gameover.jpg,,,,,,,,,,,,,0,3,3,0,1,,,,,,,,,,,,,,,,,,,,,,,,,,,,,,,,
,,,,,,,,,,,,67fa651c5c58b6c6be02eede,001,3,2025-04-15_07h00.44.388,avatar_quest_3AFC_legacy,2022.1.3,Win32,60.24096386,67fa651c5c58b6c6be02eede,67fe37cb3bd870bba73819bd,67fe3a1a6112e334bf3f4eae,,,,,,,,,,,,,,,,,,,,,,No Brainslug No Barriers With Money,0,images/assets/snowy_money.jpg,learning,10,images/assets/success_money.jpg,images/assets/gameover.jpg,,,,,,,,,,,,,0,4,4,9,1,,,,,,,,,,,,,,,,,,,,,,,,,,,,,,,,
,,,,,,,,,,,,67fa651c5c58b6c6be02eede,001,3,2025-04-15_07h00.44.388,avatar_quest_3AFC_legacy,2022.1.3,Win32,60.24096386,67fa651c5c58b6c6be02eede,67fe37cb3bd870bba73819bd,67fe3a1a6112e334bf3f4eae,,,,,,,,,,,,,,,,,,,,,,With Brainslug No Barriers With Money,0,images/assets/snowy_money.jpg,learning,10,images/assets/success_money.jpg,images/assets/gameover.jpg,,,,,,,,,,,,,0,5,5,4,1,,,,,,,,,,,,,,,,,,,,,,,,,,,,,,,,
,,,,,,,,,,,,67fa651c5c58b6c6be02eede,001,3,2025-04-15_07h00.44.388,avatar_quest_3AFC_legacy,2022.1.3,Win32,60.24096386,67fa651c5c58b6c6be02eede,67fe37cb3bd870bba73819bd,67fe3a1a6112e334bf3f4eae,,,,,,,,,,,,,,,,,,,,,,With Brainslug No Barriers No Money,0,images/assets/snowy_original.jpg,learning,10,images/assets/success.jpg,images/assets/gameover.jpg,,,,,,,,,,,,,0,6,6,5,1,,,,,,,,,,,,,,,,,,,,,,,,,,,,,,,,
,,,,,,,,,,,,67fa651c5c58b6c6be02eede,001,3,2025-04-15_07h00.44.388,avatar_quest_3AFC_legacy,2022.1.3,Win32,60.24096386,67fa651c5c58b6c6be02eede,67fe37cb3bd870bba73819bd,67fe3a1a6112e334bf3f4eae,,,,,,,,,,,,,,,,,,,,,,No Brainslug No Barriers No Money,0,images/assets/snowy_original.jpg,learning,10,images/assets/success.jpg,images/assets/gameover.jpg,,,,,,,,,,,,,0,7,7,10,1,,,,,,,,,,,,,,,,,,,,,,,,,,,,,,,,
,,,,,,,,,,,,67fa651c5c58b6c6be02eede,001,3,2025-04-15_07h00.44.388,avatar_quest_3AFC_legacy,2022.1.3,Win32,60.24096386,67fa651c5c58b6c6be02eede,67fe37cb3bd870bba73819bd,67fe3a1a6112e334bf3f4eae,,,,,,,,,,,,,,,,,,,,,,No Brainslug Difficult 2 With Money,12,images/assets/snowy_money.jpg,learning,20,images/assets/success_money.jpg,images/assets/gameover.jpg,,,,,,,,,,,,,0,8,8,7,1,,,,,,,,,,,,,,,,,,,,,,,,,,,,,,,,
,,,,,,,,,,,,67fa651c5c58b6c6be02eede,001,3,2025-04-15_07h00.44.388,avatar_quest_3AFC_legacy,2022.1.3,Win32,60.24096386,67fa651c5c58b6c6be02eede,67fe37cb3bd870bba73819bd,67fe3a1a6112e334bf3f4eae,,,,,,,,,,,,,,,,,,,,,,No Brainslug Difficult 2 No Money,12,images/assets/snowy_original.jpg,learning,20,images/assets/success.jpg,images/assets/gameover.jpg,,,,,,,,,,,,,0,9,9,8,1,,,,,,,,,,,,,,,,,,,,,,,,,,,,,,,,
,,,,,,,,,,,,67fa651c5c58b6c6be02eede,001,3,2025-04-15_07h00.44.388,avatar_quest_3AFC_legacy,2022.1.3,Win32,60.24096386,67fa651c5c58b6c6be02eede,67fe37cb3bd870bba73819bd,67fe3a1a6112e334bf3f4eae,"[""left"",""left"",""right"",""right"",""right"",""right"",""right"",""right"",""right"",""right"",""right"",""right"",""right"",""right"",""left"",""left"",""left"",""left"",""left"",""left"",""left"",""left"",""left"",""left"",""right"",""right"",""right"",""right"",""right"",""right"",""right"",""right"",""right"",""right""]","[6.040100000000621,6.2067999999998165,6.590299999999843,6.77370000000019,6.940299999999866,7.123600000000579,7.2902000000002545,7.4736000000006015,7.6237999999998465,7.806799999999839,7.9736000000006015,8.139999999999986,8.323799999999892,8.49029999999982,8.939700000000244,9.389900000000466,9.590299999999843,9.923600000000647,10.123799999999846,10.45690000000036,10.70720000000017,10.923400000000356,11.123600000000579,11.473500000000058,11.490200000000186,11.773400000000379,11.973900000000413,12.140299999999797,12.35690000000045,12.54010000000062,12.723600000000602,12.907100000000582,13.07400000000007,13.25640000000044]",,calibration,With Brainslug Difficult 2 With Money,12,13.70655,13.7194,12,5,0,FALSE,na,na,na,na,,,,,,,,,,,,,,,,,,,,,,,,,,,,,,,,,,0,0,0,0,1,,,,,,,,,,,,,,,,,,,,,,,
,,,,,,,,,,,,67fa651c5c58b6c6be02eede,001,3,2025-04-15_07h00.44.388,avatar_quest_3AFC_legacy,2022.1.3,Win32,60.24096386,67fa651c5c58b6c6be02eede,67fe37cb3bd870bba73819bd,67fe3a1a6112e334bf3f4eae,,,,,,,,,,,,,,,,,,,,,,With Brainslug Difficult 2 With Money,12,images/assets/snowy_money.jpg,learning,20,images/assets/success_money.jpg,images/assets/gameover.jpg,,,,,,,,,,,,,0,10,10,2,1,,,,,,,,,,,,,,,,,,,,,,,,,,,,,,,,
,,,,,,,,,,,,67fa651c5c58b6c6be02eede,001,3,2025-04-15_07h00.44.388,avatar_quest_3AFC_legacy,2022.1.3,Win32,60.24096386,67fa651c5c58b6c6be02eede,67fe37cb3bd870bba73819bd,67fe3a1a6112e334bf3f4eae,,,,,,,,,,,,,,,,,,,,,,,,,,,,,,,,,,,,,,,,,,,,,,,,,,,,,,,8,0,8,0,1,,,,,,,,,,,,,,,,,,
,,,,,,,,,,,,67fa651c5c58b6c6be02eede,001,3,2025-04-15_07h00.44.388,avatar_quest_3AFC_legacy,2022.1.3,Win32,60.24096386,67fa651c5c58b6c6be02eede,67fe37cb3bd870bba73819bd,67fe3a1a6112e334bf3f4eae,,,,,,,,,,,,,,,,,,,,,,No Brainslug No Barriers No Money,0,images/assets/snowy_original.jpg,learning,10,images/assets/success.jpg,images/assets/gameover.jpg,,,,,,,,With Brainslug Difficult 1 No Money,With Brainslug Difficult 1 No Money,left,0.1354,"[""With Brainslug Difficult 2 No Money"",""With Brainslug Difficult 2 With Money""]",0,0,0,10,1,,,,,,,,,,,,,,,,,,,,,,,,,,,,,,,,
,,,,,,,,,,,,67fa651c5c58b6c6be02eede,001,3,2025-04-15_07h00.44.388,avatar_quest_3AFC_legacy,2022.1.3,Win32,60.24096386,67fa651c5c58b6c6be02eede,67fe37cb3bd870bba73819bd,67fe3a1a6112e334bf3f4eae,,,,,,,,,,,,,,,,,,,,,,With Brainslug No Barriers No Money,0,images/assets/snowy_original.jpg,learning,10,images/assets/success.jpg,images/assets/gameover.jpg,,,,,,,,,,,,,0,1,1,5,1,,,,,,,,,,,,,,,,,,,,,,,,,,,,,,,,
,,,,,,,,,,,,67fa651c5c58b6c6be02eede,001,3,2025-04-15_07h00.44.388,avatar_quest_3AFC_legacy,2022.1.3,Win32,60.24096386,67fa651c5c58b6c6be02eede,67fe37cb3bd870bba73819bd,67fe3a1a6112e334bf3f4eae,,,,,,,,,,,,,,,,,,,,,,No Brainslug No Barriers With Money,0,images/assets/snowy_money.jpg,learning,10,images/assets/success_money.jpg,images/assets/gameover.jpg,,,,,,,,,,,,,0,2,2,9,1,,,,,,,,,,,,,,,,,,,,,,,,,,,,,,,,
,,,,,,,,,,,,67fa651c5c58b6c6be02eede,001,3,2025-04-15_07h00.44.388,avatar_quest_3AFC_legacy,2022.1.3,Win32,60.24096386,67fa651c5c58b6c6be02eede,67fe37cb3bd870bba73819bd,67fe3a1a6112e334bf3f4eae,,,,,,,,,,,,,,,,,,,,,,No Brainslug Difficult 2 No Money,12,images/assets/snowy_original.jpg,learning,20,images/assets/success.jpg,images/assets/gameover.jpg,,,,,,,,,,,,,0,3,3,8,1,,,,,,,,,,,,,,,,,,,,,,,,,,,,,,,,
,,,,,,,,,,,,67fa651c5c58b6c6be02eede,001,3,2025-04-15_07h00.44.388,avatar_quest_3AFC_legacy,2022.1.3,Win32,60.24096386,67fa651c5c58b6c6be02eede,67fe37cb3bd870bba73819bd,67fe3a1a6112e334bf3f4eae,,,,,,,,,,,,,,,,,,,,,,With Brainslug Difficult 1 With Money,6,images/assets/snowy_money.jpg,learning,20,images/assets/success_money.jpg,images/assets/gameover.jpg,,,,,,,,,,,,,0,4,4,0,1,,,,,,,,,,,,,,,,,,,,,,,,,,,,,,,,
,,,,,,,,,,,,67fa651c5c58b6c6be02eede,001,3,2025-04-15_07h00.44.388,avatar_quest_3AFC_legacy,2022.1.3,Win32,60.24096386,67fa651c5c58b6c6be02eede,67fe37cb3bd870bba73819bd,67fe3a1a6112e334bf3f4eae,"[""right"",""right"",""right"",""right"",""right"",""left"",""right"",""left"",""right"",""left"",""right"",""right"",""left"",""right"",""right"",""right"",""right"",""right"",""left"",""right"",""left"",""right"",""right"",""left"",""right"",""right"",""left"",""right"",""left"",""left"",""left"",""right"",""right"",""right"",""right"",""right"",""right"",""right"",""up"",""up"",""up"",""up"",""up"",""up"",""right"",""right"",""right"",""right"",""right"",""right"",""right"",""left"",""right"",""right"",""right"",""down"",""down"",""right"",""right"",""left"",""right"",""left"",""right"",""right"",""left"",""right"",""right"",""right"",""right"",""right"",""right""]","[0.0009000000003425157,0.18729999999982283,0.3869999999999436,0.6045999999996639,1.790400000000318,1.8105999999995674,1.9724999999999682,2.10670000000016,2.205000000000041,2.3600999999996475,2.39120000000014,2.591099999999642,2.7234000000003107,2.790799999999763,2.9569999999999936,3.1569000000004053,3.3390999999995756,3.5072000000001253,3.5572999999998274,3.7399000000003753,3.90629999999976,3.9405000000000427,4.1232000000002245,4.193200000000161,4.307000000000016,4.505999999999972,4.539200000000164,4.7065000000000055,4.788999999999987,5.053200000000174,5.282599999999661,5.548900000000344,5.748400000000402,5.932999999999993,6.115900000000352,6.299200000000155,6.465299999999843,6.68209999999965,7.399599999999623,7.582200000000171,7.748599999999669,7.965599999999654,8.165599999999586,8.333200000000147,8.548700000000167,8.732900000000313,8.915299999999775,9.132099999999582,9.315400000000409,9.515200000000164,9.71550000000002,9.882200000000125,10.099000000000046,10.315400000000409,10.515900000000329,10.998700000000213,11.182000000000016,11.414999999999964,11.666099999999574,11.66620000000023,11.88229999999976,12.031799999999862,12.065599999999677,12.31490000000042,12.31499999999994,12.531900000000405,12.715400000000386,12.948900000000322,13.14870000000019,13.365400000000363,13.56499999999994]",,calibration,With Brainslug Difficult 1 No Money,13,13.70655,13.7173,15,2,0,FALSE,na,na,na,na,,,,,,,,,,,,,,,,,,,,,,,,,,,,,,,,,,0,0,0,0,1,,,,,,,,,,,,,,,,,,,,,,,
,,,,,,,,,,,,67fa651c5c58b6c6be02eede,001,3,2025-04-15_07h00.44.388,avatar_quest_3AFC_legacy,2022.1.3,Win32,60.24096386,67fa651c5c58b6c6be02eede,67fe37cb3bd870bba73819bd,67fe3a1a6112e334bf3f4eae,,,,,,,,,,,,,,,,,,,,,,With Brainslug Difficult 1 No Money,6,images/assets/snowy_original.jpg,learning,20,images/assets/success.jpg,images/assets/gameover.jpg,,,,,,,,,,,,,0,5,5,1,1,,,,,,,,,,,,,,,,,,,,,,,,,,,,,,,,
,,,,,,,,,,,,67fa651c5c58b6c6be02eede,001,3,2025-04-15_07h00.44.388,avatar_quest_3AFC_legacy,2022.1.3,Win32,60.24096386,67fa651c5c58b6c6be02eede,67fe37cb3bd870bba73819bd,67fe3a1a6112e334bf3f4eae,,,,,,,,,,,,,,,,,,,,,,With Brainslug Difficult 2 No Money,12,images/assets/snowy_original.jpg,learning,20,images/assets/success.jpg,images/assets/gameover.jpg,,,,,,,,,,,,,0,6,6,3,1,,,,,,,,,,,,,,,,,,,,,,,,,,,,,,,,
,,,,,,,,,,,,67fa651c5c58b6c6be02eede,001,3,2025-04-15_07h00.44.388,avatar_quest_3AFC_legacy,2022.1.3,Win32,60.24096386,67fa651c5c58b6c6be02eede,67fe37cb3bd870bba73819bd,67fe3a1a6112e334bf3f4eae,,,,,,,,,,,,,,,,,,,,,,With Brainslug No Barriers With Money,0,images/assets/snowy_money.jpg,learning,10,images/assets/success_money.jpg,images/assets/gameover.jpg,,,,,,,,,,,,,0,7,7,4,1,,,,,,,,,,,,,,,,,,,,,,,,,,,,,,,,
,,,,,,,,,,,,67fa651c5c58b6c6be02eede,001,3,2025-04-15_07h00.44.388,avatar_quest_3AFC_legacy,2022.1.3,Win32,60.24096386,67fa651c5c58b6c6be02eede,67fe37cb3bd870bba73819bd,67fe3a1a6112e334bf3f4eae,,,,,,,,,,,,,,,,,,,,,,With Brainslug Difficult 2 With Money,12,images/assets/snowy_money.jpg,learning,20,images/assets/success_money.jpg,images/assets/gameover.jpg,,,,,,,,,,,,,0,8,8,2,1,,,,,,,,,,,,,,,,,,,,,,,,,,,,,,,,
,,,,,,,,,,,,67fa651c5c58b6c6be02eede,001,3,2025-04-15_07h00.44.388,avatar_quest_3AFC_legacy,2022.1.3,Win32,60.24096386,67fa651c5c58b6c6be02eede,67fe37cb3bd870bba73819bd,67fe3a1a6112e334bf3f4eae,,,,,,,,,,,,,,,,,,,,,,No Brainslug Difficult 1 No Money,6,images/assets/snowy_original.jpg,learning,20,images/assets/success.jpg,images/assets/gameover.jpg,,,,,,,,,,,,,0,9,9,6,1,,,,,,,,,,,,,,,,,,,,,,,,,,,,,,,,
,,,,,,,,,,,,67fa651c5c58b6c6be02eede,001,3,2025-04-15_07h00.44.388,avatar_quest_3AFC_legacy,2022.1.3,Win32,60.24096386,67fa651c5c58b6c6be02eede,67fe37cb3bd870bba73819bd,67fe3a1a6112e334bf3f4eae,,,,,,,,,,,,,,,,,,,,,,No Brainslug Difficult 2 With Money,12,images/assets/snowy_money.jpg,learning,20,images/assets/success_money.jpg,images/assets/gameover.jpg,,,,,,,,,,,,,0,10,10,7,1,,,,,,,,,,,,,,,,,,,,,,,,,,,,,,,,
,,,,,,,,,,,,67fa651c5c58b6c6be02eede,001,3,2025-04-15_07h00.44.388,avatar_quest_3AFC_legacy,2022.1.3,Win32,60.24096386,67fa651c5c58b6c6be02eede,67fe37cb3bd870bba73819bd,67fe3a1a6112e334bf3f4eae,,,,,,,,,,,,,,,,,,,,,,,,,,,,,,,,,,,,,,,,,,,,,,,,,,,,,,,9,0,9,0,1,,,,,,,,,,,,,,,,,,
,,,,,,,,,,,,67fa651c5c58b6c6be02eede,001,3,2025-04-15_07h00.44.388,avatar_quest_3AFC_legacy,2022.1.3,Win32,60.24096386,67fa651c5c58b6c6be02eede,67fe37cb3bd870bba73819bd,67fe3a1a6112e334bf3f4eae,,,,,,,,,,,,,,,,,,,,,,With Brainslug Difficult 1 With Money,6,images/assets/snowy_money.jpg,learning,20,images/assets/success_money.jpg,images/assets/gameover.jpg,,,,,,,,With Brainslug Difficult 2 With Money,With Brainslug Difficult 1 No Money,right,0.0859,"[""With Brainslug Difficult 1 No Money"",""With Brainslug Difficult 2 No Money""]",0,0,0,0,1,,,,,,,,,,,,,,,,,,,,,,,,,,,,,,,,
,,,,,,,,,,,,67fa651c5c58b6c6be02eede,001,3,2025-04-15_07h00.44.388,avatar_quest_3AFC_legacy,2022.1.3,Win32,60.24096386,67fa651c5c58b6c6be02eede,67fe37cb3bd870bba73819bd,67fe3a1a6112e334bf3f4eae,,,,,,,,,,,,,,,,,,,,,,With Brainslug Difficult 2 No Money,12,images/assets/snowy_original.jpg,learning,20,images/assets/success.jpg,images/assets/gameover.jpg,,,,,,,,,,,,,0,1,1,3,1,,,,,,,,,,,,,,,,,,,,,,,,,,,,,,,,
,,,,,,,,,,,,67fa651c5c58b6c6be02eede,001,3,2025-04-15_07h00.44.388,avatar_quest_3AFC_legacy,2022.1.3,Win32,60.24096386,67fa651c5c58b6c6be02eede,67fe37cb3bd870bba73819bd,67fe3a1a6112e334bf3f4eae,,,,,,,,,,,,,,,,,,,,,,With Brainslug No Barriers No Money,0,images/assets/snowy_original.jpg,learning,10,images/assets/success.jpg,images/assets/gameover.jpg,,,,,,,,,,,,,0,2,2,5,1,,,,,,,,,,,,,,,,,,,,,,,,,,,,,,,,
,,,,,,,,,,,,67fa651c5c58b6c6be02eede,001,3,2025-04-15_07h00.44.388,avatar_quest_3AFC_legacy,2022.1.3,Win32,60.24096386,67fa651c5c58b6c6be02eede,67fe37cb3bd870bba73819bd,67fe3a1a6112e334bf3f4eae,"[""right"",""right"",""left"",""right"",""right"",""left"",""right"",""right"",""left"",""right"",""left"",""right"",""right"",""left"",""right"",""right"",""left"",""right"",""right"",""left"",""right"",""left"",""right"",""right"",""left"",""right"",""right"",""left"",""right"",""left"",""right"",""right"",""right"",""right"",""left"",""left"",""right"",""left"",""left"",""left"",""left"",""left"",""left"",""left"",""left"",""right"",""right"",""right"",""right"",""right"",""right"",""right"",""right"",""right"",""right"",""right"",""right"",""right"",""left"",""left"",""left"",""left"",""left"",""left"",""left"",""left"",""left"",""left"",""right"",""right"",""right"",""right"",""right"",""right"",""right"",""right"",""right"",""right"",""left"",""left"",""left"",""left""]","[0.07040000000040436,0.2817000000002281,0.28179999999986194,0.46550000000002,0.6481000000005679,0.6497000000002799,0.8322999999998046,1.0155000000000882,1.0156000000006316,1.1842999999998938,1.336900000000469,1.3979000000003907,1.570299999999861,1.6712999999998601,1.766600000000608,1.9486000000006243,2.0325000000000273,2.148400000000379,2.333100000000627,2.3494000000004007,2.515200000000277,2.6867999999998347,2.718100000000618,2.898600000000556,3.0324000000003934,3.1660000000000537,3.3490000000000464,3.382200000000239,3.5521000000005643,3.715200000000209,3.819799999999873,3.9982999999998583,4.165299999999888,4.3322000000002845,4.531600000000594,4.768600000000561,4.949000000000069,5.04840000000047,5.265299999999911,5.481500000000096,5.6657999999998765,5.881700000000251,6.083000000000084,6.2697000000002845,6.452299999999809,6.798000000000002,6.982600000000616,7.165299999999888,7.3319000000004735,7.531400000000417,7.698299999999904,7.881700000000251,8.048500000000104,8.217400000000453,8.382299999999873,8.565400000000409,8.748400000000402,8.884400000000369,8.952600000000643,9.197799999999916,9.384799999999814,9.582700000000273,9.764900000000466,9.967700000000264,10.198100000000636,10.415000000000077,10.598299999999881,10.8035000000001,11.0150000000001,11.198900000000435,11.385500000000093,11.567600000000652,11.748299999999858,11.931400000000394,12.11529999999982,12.27070000000026,12.435799999999858,12.614799999999832,12.782400000000393,13.05029999999988,13.2650000000001,13.498400000000402]",,calibration,With Brainslug Difficult 2 With Money,14,13.70655,13.716,30,6,0,FALSE,na,na,na,na,,,,,,,,,,,,,,,,,,,,,,,,,,,,,,,,,,0,0,0,0,1,,,,,,,,,,,,,,,,,,,,,,,
,,,,,,,,,,,,67fa651c5c58b6c6be02eede,001,3,2025-04-15_07h00.44.388,avatar_quest_3AFC_legacy,2022.1.3,Win32,60.24096386,67fa651c5c58b6c6be02eede,67fe37cb3bd870bba73819bd,67fe3a1a6112e334bf3f4eae,,,,,,,,,,,,,,,,,,,,,,With Brainslug Difficult 2 With Money,12,images/assets/snowy_money.jpg,learning,20,images/assets/success_money.jpg,images/assets/gameover.jpg,,,,,,,,,,,,,0,3,3,2,1,,,,,,,,,,,,,,,,,,,,,,,,,,,,,,,,
,,,,,,,,,,,,67fa651c5c58b6c6be02eede,001,3,2025-04-15_07h00.44.388,avatar_quest_3AFC_legacy,2022.1.3,Win32,60.24096386,67fa651c5c58b6c6be02eede,67fe37cb3bd870bba73819bd,67fe3a1a6112e334bf3f4eae,,,,,,,,,,,,,,,,,,,,,,No Brainslug No Barriers With Money,0,images/assets/snowy_money.jpg,learning,10,images/assets/success_money.jpg,images/assets/gameover.jpg,,,,,,,,,,,,,0,4,4,9,1,,,,,,,,,,,,,,,,,,,,,,,,,,,,,,,,
,,,,,,,,,,,,67fa651c5c58b6c6be02eede,001,3,2025-04-15_07h00.44.388,avatar_quest_3AFC_legacy,2022.1.3,Win32,60.24096386,67fa651c5c58b6c6be02eede,67fe37cb3bd870bba73819bd,67fe3a1a6112e334bf3f4eae,,,,,,,,,,,,,,,,,,,,,,With Brainslug Difficult 1 No Money,6,images/assets/snowy_original.jpg,learning,20,images/assets/success.jpg,images/assets/gameover.jpg,,,,,,,,,,,,,0,5,5,1,1,,,,,,,,,,,,,,,,,,,,,,,,,,,,,,,,
,,,,,,,,,,,,67fa651c5c58b6c6be02eede,001,3,2025-04-15_07h00.44.388,avatar_quest_3AFC_legacy,2022.1.3,Win32,60.24096386,67fa651c5c58b6c6be02eede,67fe37cb3bd870bba73819bd,67fe3a1a6112e334bf3f4eae,,,,,,,,,,,,,,,,,,,,,,No Brainslug No Barriers No Money,0,images/assets/snowy_original.jpg,learning,10,images/assets/success.jpg,images/assets/gameover.jpg,,,,,,,,,,,,,0,6,6,10,1,,,,,,,,,,,,,,,,,,,,,,,,,,,,,,,,
,,,,,,,,,,,,67fa651c5c58b6c6be02eede,001,3,2025-04-15_07h00.44.388,avatar_quest_3AFC_legacy,2022.1.3,Win32,60.24096386,67fa651c5c58b6c6be02eede,67fe37cb3bd870bba73819bd,67fe3a1a6112e334bf3f4eae,,,,,,,,,,,,,,,,,,,,,,No Brainslug Difficult 2 No Money,12,images/assets/snowy_original.jpg,learning,20,images/assets/success.jpg,images/assets/gameover.jpg,,,,,,,,,,,,,0,7,7,8,1,,,,,,,,,,,,,,,,,,,,,,,,,,,,,,,,
,,,,,,,,,,,,67fa651c5c58b6c6be02eede,001,3,2025-04-15_07h00.44.388,avatar_quest_3AFC_legacy,2022.1.3,Win32,60.24096386,67fa651c5c58b6c6be02eede,67fe37cb3bd870bba73819bd,67fe3a1a6112e334bf3f4eae,,,,,,,,,,,,,,,,,,,,,,No Brainslug Difficult 2 With Money,12,images/assets/snowy_money.jpg,learning,20,images/assets/success_money.jpg,images/assets/gameover.jpg,,,,,,,,,,,,,0,8,8,7,1,,,,,,,,,,,,,,,,,,,,,,,,,,,,,,,,
,,,,,,,,,,,,67fa651c5c58b6c6be02eede,001,3,2025-04-15_07h00.44.388,avatar_quest_3AFC_legacy,2022.1.3,Win32,60.24096386,67fa651c5c58b6c6be02eede,67fe37cb3bd870bba73819bd,67fe3a1a6112e334bf3f4eae,,,,,,,,,,,,,,,,,,,,,,With Brainslug No Barriers With Money,0,images/assets/snowy_money.jpg,learning,10,images/assets/success_money.jpg,images/assets/gameover.jpg,,,,,,,,,,,,,0,9,9,4,1,,,,,,,,,,,,,,,,,,,,,,,,,,,,,,,,
,,,,,,,,,,,,67fa651c5c58b6c6be02eede,001,3,2025-04-15_07h00.44.388,avatar_quest_3AFC_legacy,2022.1.3,Win32,60.24096386,67fa651c5c58b6c6be02eede,67fe37cb3bd870bba73819bd,67fe3a1a6112e334bf3f4eae,,,,,,,,,,,,,,,,,,,,,,No Brainslug Difficult 1 No Money,6,images/assets/snowy_original.jpg,learning,20,images/assets/success.jpg,images/assets/gameover.jpg,,,,,,,,,,,,,0,10,10,6,1,,,,,,,,,,,,,,,,,,,,,,,,,,,,,,,,
,,,,,,,,,,,,67fa651c5c58b6c6be02eede,001,3,2025-04-15_07h00.44.388,avatar_quest_3AFC_legacy,2022.1.3,Win32,60.24096386,67fa651c5c58b6c6be02eede,67fe37cb3bd870bba73819bd,67fe3a1a6112e334bf3f4eae,,,,,,,,,,,,,,,,,,,,,,,,,,,,,,,,,,,,,,,,,,,,,,,,,,,,,,,10,0,10,0,1,,,,,,,,,,,,,,,,,,
,,,,,,,,,,,,67fa651c5c58b6c6be02eede,001,3,2025-04-15_07h00.44.388,avatar_quest_3AFC_legacy,2022.1.3,Win32,60.24096386,67fa651c5c58b6c6be02eede,67fe37cb3bd870bba73819bd,67fe3a1a6112e334bf3f4eae,,,,,,,,,,,,,,,,,,,,,,With Brainslug Difficult 2 No Money,12,images/assets/snowy_original.jpg,learning,20,images/assets/success.jpg,images/assets/gameover.jpg,,,,,,,,With Brainslug Difficult 2 With Money,With Brainslug Difficult 1 No Money,right,0.4948,"[""With Brainslug Difficult 1 No Money"",""With Brainslug Difficult 2 No Money""]",0,0,0,3,1,,,,,,,,,,,,,,,,,,,,,,,,,,,,,,,,
,,,,,,,,,,,,67fa651c5c58b6c6be02eede,001,3,2025-04-15_07h00.44.388,avatar_quest_3AFC_legacy,2022.1.3,Win32,60.24096386,67fa651c5c58b6c6be02eede,67fe37cb3bd870bba73819bd,67fe3a1a6112e334bf3f4eae,,,,,,,,,,,,,,,,,,,,,,With Brainslug Difficult 1 No Money,6,images/assets/snowy_original.jpg,learning,20,images/assets/success.jpg,images/assets/gameover.jpg,,,,,,,,,,,,,0,1,1,1,1,,,,,,,,,,,,,,,,,,,,,,,,,,,,,,,,
,,,,,,,,,,,,67fa651c5c58b6c6be02eede,001,3,2025-04-15_07h00.44.388,avatar_quest_3AFC_legacy,2022.1.3,Win32,60.24096386,67fa651c5c58b6c6be02eede,67fe37cb3bd870bba73819bd,67fe3a1a6112e334bf3f4eae,,,,,,,,,,,,,,,,,,,,,,No Brainslug Difficult 2 With Money,12,images/assets/snowy_money.jpg,learning,20,images/assets/success_money.jpg,images/assets/gameover.jpg,,,,,,,,,,,,,0,2,2,7,1,,,,,,,,,,,,,,,,,,,,,,,,,,,,,,,,
,,,,,,,,,,,,67fa651c5c58b6c6be02eede,001,3,2025-04-15_07h00.44.388,avatar_quest_3AFC_legacy,2022.1.3,Win32,60.24096386,67fa651c5c58b6c6be02eede,67fe37cb3bd870bba73819bd,67fe3a1a6112e334bf3f4eae,,,,,,,,,,,,,,,,,,,,,,No Brainslug No Barriers No Money,0,images/assets/snowy_original.jpg,learning,10,images/assets/success.jpg,images/assets/gameover.jpg,,,,,,,,,,,,,0,3,3,10,1,,,,,,,,,,,,,,,,,,,,,,,,,,,,,,,,
,,,,,,,,,,,,67fa651c5c58b6c6be02eede,001,3,2025-04-15_07h00.44.388,avatar_quest_3AFC_legacy,2022.1.3,Win32,60.24096386,67fa651c5c58b6c6be02eede,67fe37cb3bd870bba73819bd,67fe3a1a6112e334bf3f4eae,,,,,,,,,,,,,,,,,,,,,,No Brainslug Difficult 2 No Money,12,images/assets/snowy_original.jpg,learning,20,images/assets/success.jpg,images/assets/gameover.jpg,,,,,,,,,,,,,0,4,4,8,1,,,,,,,,,,,,,,,,,,,,,,,,,,,,,,,,
,,,,,,,,,,,,67fa651c5c58b6c6be02eede,001,3,2025-04-15_07h00.44.388,avatar_quest_3AFC_legacy,2022.1.3,Win32,60.24096386,67fa651c5c58b6c6be02eede,67fe37cb3bd870bba73819bd,67fe3a1a6112e334bf3f4eae,,,,,,,,,,,,,,,,,,,,,,With Brainslug No Barriers With Money,0,images/assets/snowy_money.jpg,learning,10,images/assets/success_money.jpg,images/assets/gameover.jpg,,,,,,,,,,,,,0,5,5,4,1,,,,,,,,,,,,,,,,,,,,,,,,,,,,,,,,
,,,,,,,,,,,,67fa651c5c58b6c6be02eede,001,3,2025-04-15_07h00.44.388,avatar_quest_3AFC_legacy,2022.1.3,Win32,60.24096386,67fa651c5c58b6c6be02eede,67fe37cb3bd870bba73819bd,67fe3a1a6112e334bf3f4eae,,,,,,,,,,,,,,,,,,,,,,With Brainslug Difficult 1 With Money,6,images/assets/snowy_money.jpg,learning,20,images/assets/success_money.jpg,images/assets/gameover.jpg,,,,,,,,,,,,,0,6,6,0,1,,,,,,,,,,,,,,,,,,,,,,,,,,,,,,,,
,,,,,,,,,,,,67fa651c5c58b6c6be02eede,001,3,2025-04-15_07h00.44.388,avatar_quest_3AFC_legacy,2022.1.3,Win32,60.24096386,67fa651c5c58b6c6be02eede,67fe37cb3bd870bba73819bd,67fe3a1a6112e334bf3f4eae,"[""right"",""right"",""right"",""right"",""right"",""right"",""right"",""right"",""right"",""right"",""right"",""left"",""left"",""right"",""left"",""left"",""left"",""right"",""right"",""right"",""right"",""left"",""right"",""right"",""right"",""left"",""right"",""right"",""right"",""right"",""left"",""right"",""right"",""right"",""left"",""left"",""left"",""left"",""left"",""left"",""right"",""right"",""right"",""right"",""right"",""right"",""right"",""right"",""right"",""right"",""right"",""right"",""right"",""left"",""left"",""left"",""left"",""left"",""left"",""left"",""left"",""left"",""right"",""right"",""right"",""right"",""right"",""right"",""right"",""right"",""right"",""left"",""left"",""left""]","[0.01110000000051059,0.19000000000005457,0.35920000000021446,0.5418000000007623,0.7246000000005779,0.9227000000001908,1.1056000000005497,1.3059000000004062,1.4918000000006941,1.6897000000002436,1.8891000000005533,1.8893000000007305,2.156400000000417,2.3061000000005833,2.42240000000038,2.6896000000006097,2.941200000000208,2.961500000000001,3.1582000000001926,3.35670000000016,3.5571000000005597,3.69399999999996,3.8899000000003525,4.089700000000221,4.257100000000605,4.3066000000005715,4.489700000000198,4.6748000000008005,4.859600000000569,5.039300000000708,5.123300000000768,5.245800000000713,5.411900000000401,5.589200000000233,5.722700000000145,5.9726000000005115,6.176500000000033,6.422900000000368,6.640600000000518,6.8732000000002245,7.177100000000564,7.373700000000213,7.5569000000003825,7.739100000000576,7.907100000000582,8.074400000000423,8.273200000000202,8.440400000000409,8.60670000000016,8.789400000000342,8.956999999999994,9.156400000000417,9.340000000000032,9.52510000000052,9.758200000000215,9.973700000000235,10.172600000000557,10.389400000000364,10.628500000000031,10.822499999999991,11.02610000000061,11.239600000000564,11.4723000000007,11.656300000000783,11.839300000000776,12.023600000000556,12.206200000000194,12.390300000000707,12.556400000000394,12.739300000000753,12.911200000000235,13.005800000000704,13.289400000000342,13.5258000000008]",,calibration,With Brainslug Difficult 2 With Money,15,13.70655,13.7165,18,8,0,FALSE,na,na,na,na,,,,,,,,,,,,,,,,,,,,,,,,,,,,,,,,,,0,0,0,0,1,,,,,,,,,,,,,,,,,,,,,,,
,,,,,,,,,,,,67fa651c5c58b6c6be02eede,001,3,2025-04-15_07h00.44.388,avatar_quest_3AFC_legacy,2022.1.3,Win32,60.24096386,67fa651c5c58b6c6be02eede,67fe37cb3bd870bba73819bd,67fe3a1a6112e334bf3f4eae,,,,,,,,,,,,,,,,,,,,,,With Brainslug Difficult 2 With Money,12,images/assets/snowy_money.jpg,learning,20,images/assets/success_money.jpg,images/assets/gameover.jpg,,,,,,,,,,,,,0,7,7,2,1,,,,,,,,,,,,,,,,,,,,,,,,,,,,,,,,
,,,,,,,,,,,,67fa651c5c58b6c6be02eede,001,3,2025-04-15_07h00.44.388,avatar_quest_3AFC_legacy,2022.1.3,Win32,60.24096386,67fa651c5c58b6c6be02eede,67fe37cb3bd870bba73819bd,67fe3a1a6112e334bf3f4eae,,,,,,,,,,,,,,,,,,,,,,With Brainslug No Barriers No Money,0,images/assets/snowy_original.jpg,learning,10,images/assets/success.jpg,images/assets/gameover.jpg,,,,,,,,,,,,,0,8,8,5,1,,,,,,,,,,,,,,,,,,,,,,,,,,,,,,,,
,,,,,,,,,,,,67fa651c5c58b6c6be02eede,001,3,2025-04-15_07h00.44.388,avatar_quest_3AFC_legacy,2022.1.3,Win32,60.24096386,67fa651c5c58b6c6be02eede,67fe37cb3bd870bba73819bd,67fe3a1a6112e334bf3f4eae,,,,,,,,,,,,,,,,,,,,,,No Brainslug Difficult 1 No Money,6,images/assets/snowy_original.jpg,learning,20,images/assets/success.jpg,images/assets/gameover.jpg,,,,,,,,,,,,,0,9,9,6,1,,,,,,,,,,,,,,,,,,,,,,,,,,,,,,,,
,,,,,,,,,,,,67fa651c5c58b6c6be02eede,001,3,2025-04-15_07h00.44.388,avatar_quest_3AFC_legacy,2022.1.3,Win32,60.24096386,67fa651c5c58b6c6be02eede,67fe37cb3bd870bba73819bd,67fe3a1a6112e334bf3f4eae,,,,,,,,,,,,,,,,,,,,,,No Brainslug No Barriers With Money,0,images/assets/snowy_money.jpg,learning,10,images/assets/success_money.jpg,images/assets/gameover.jpg,,,,,,,,,,,,,0,10,10,9,1,,,,,,,,,,,,,,,,,,,,,,,,,,,,,,,,
,,,,,,,,,,,,67fa651c5c58b6c6be02eede,001,3,2025-04-15_07h00.44.388,avatar_quest_3AFC_legacy,2022.1.3,Win32,60.24096386,67fa651c5c58b6c6be02eede,67fe37cb3bd870bba73819bd,67fe3a1a6112e334bf3f4eae,,,,,,,,,,,,,,,,,,,,,,,,,,,,,,,,,,,,,,,,,,,,,,,,,,,,,,,11,0,11,0,1,,,,,,,,,,,,,,,,,,
,,,,,,,,,,,,67fa651c5c58b6c6be02eede,001,3,2025-04-15_07h00.44.388,avatar_quest_3AFC_legacy,2022.1.3,Win32,60.24096386,67fa651c5c58b6c6be02eede,67fe37cb3bd870bba73819bd,67fe3a1a6112e334bf3f4eae,,,,,,,,,,,,,,,,,,,,,,,,,,,,,,,,,,,,,,,,,,,,,,,,,,,,,,,,,,,,0,0,0,0,1,1,With Brainslug Difficult 1 No Money,images/assets/With Brainslug Difficult 1 No Money.png,With Brainslug Difficult 2 No Money,images/assets/With Brainslug Difficult 2 No Money.png,With Brainslug Difficult 2 With Money,images/assets/With Brainslug Difficult 2 With Money.png,Achievement vs. money,,,,,
,,,,,,,,,,,,67fa651c5c58b6c6be02eede,001,3,2025-04-15_07h00.44.388,avatar_quest_3AFC_legacy,2022.1.3,Win32,60.24096386,67fa651c5c58b6c6be02eede,67fe37cb3bd870bba73819bd,67fe3a1a6112e334bf3f4eae,,,,,,,,,,,,,,,,,,,,,,With Brainslug No Barriers No Money,0,images/assets/snowy_original.jpg,learning,10,images/assets/success.jpg,images/assets/gameover.jpg,,,,,,,,No Brainslug No Barriers With Money,No Brainslug No Barriers No Money,right,0.7969,"[""No Brainslug No Barriers No Money"",""No Brainslug Difficult 1 No Money""]",0,0,0,5,1,,,,,,,,,,,,,,,,,,,,,,,,,,,,,,,,
,,,,,,,,,,,,67fa651c5c58b6c6be02eede,001,3,2025-04-15_07h00.44.388,avatar_quest_3AFC_legacy,2022.1.3,Win32,60.24096386,67fa651c5c58b6c6be02eede,67fe37cb3bd870bba73819bd,67fe3a1a6112e334bf3f4eae,,,,,,,,,,,,,,,,,,,,,,No Brainslug No Barriers No Money,0,images/assets/snowy_original.jpg,learning,10,images/assets/success.jpg,images/assets/gameover.jpg,,,,,,,,,,,,,0,1,1,10,1,,,,,,,,,,,,,,,,,,,,,,,,,,,,,,,,
,,,,,,,,,,,,67fa651c5c58b6c6be02eede,001,3,2025-04-15_07h00.44.388,avatar_quest_3AFC_legacy,2022.1.3,Win32,60.24096386,67fa651c5c58b6c6be02eede,67fe37cb3bd870bba73819bd,67fe3a1a6112e334bf3f4eae,,,,,,,,,,,,,,,,,,,,,,No Brainslug Difficult 2 No Money,12,images/assets/snowy_original.jpg,learning,20,images/assets/success.jpg,images/assets/gameover.jpg,,,,,,,,,,,,,0,2,2,8,1,,,,,,,,,,,,,,,,,,,,,,,,,,,,,,,,
,,,,,,,,,,,,67fa651c5c58b6c6be02eede,001,3,2025-04-15_07h00.44.388,avatar_quest_3AFC_legacy,2022.1.3,Win32,60.24096386,67fa651c5c58b6c6be02eede,67fe37cb3bd870bba73819bd,67fe3a1a6112e334bf3f4eae,,,,,,,,,,,,,,,,,,,,,,No Brainslug Difficult 2 With Money,12,images/assets/snowy_money.jpg,learning,20,images/assets/success_money.jpg,images/assets/gameover.jpg,,,,,,,,,,,,,0,3,3,7,1,,,,,,,,,,,,,,,,,,,,,,,,,,,,,,,,
,,,,,,,,,,,,67fa651c5c58b6c6be02eede,001,3,2025-04-15_07h00.44.388,avatar_quest_3AFC_legacy,2022.1.3,Win32,60.24096386,67fa651c5c58b6c6be02eede,67fe37cb3bd870bba73819bd,67fe3a1a6112e334bf3f4eae,,,,,,,,,,,,,,,,,,,,,,With Brainslug Difficult 1 No Money,6,images/assets/snowy_original.jpg,learning,20,images/assets/success.jpg,images/assets/gameover.jpg,,,,,,,,,,,,,0,4,4,1,1,,,,,,,,,,,,,,,,,,,,,,,,,,,,,,,,
,,,,,,,,,,,,67fa651c5c58b6c6be02eede,001,3,2025-04-15_07h00.44.388,avatar_quest_3AFC_legacy,2022.1.3,Win32,60.24096386,67fa651c5c58b6c6be02eede,67fe37cb3bd870bba73819bd,67fe3a1a6112e334bf3f4eae,,,,,,,,,,,,,,,,,,,,,,With Brainslug Difficult 2 With Money,12,images/assets/snowy_money.jpg,learning,20,images/assets/success_money.jpg,images/assets/gameover.jpg,,,,,,,,,,,,,0,5,5,2,1,,,,,,,,,,,,,,,,,,,,,,,,,,,,,,,,
,,,,,,,,,,,,67fa651c5c58b6c6be02eede,001,3,2025-04-15_07h00.44.388,avatar_quest_3AFC_legacy,2022.1.3,Win32,60.24096386,67fa651c5c58b6c6be02eede,67fe37cb3bd870bba73819bd,67fe3a1a6112e334bf3f4eae,,,,,,,,,,,,,,,,,,,,,,With Brainslug Difficult 1 With Money,6,images/assets/snowy_money.jpg,learning,20,images/assets/success_money.jpg,images/assets/gameover.jpg,,,,,,,,,,,,,0,6,6,0,1,,,,,,,,,,,,,,,,,,,,,,,,,,,,,,,,
,,,,,,,,,,,,67fa651c5c58b6c6be02eede,001,3,2025-04-15_07h00.44.388,avatar_quest_3AFC_legacy,2022.1.3,Win32,60.24096386,67fa651c5c58b6c6be02eede,67fe37cb3bd870bba73819bd,67fe3a1a6112e334bf3f4eae,,,,,,,,,,,,,,,,,,,,,,With Brainslug No Barriers With Money,0,images/assets/snowy_money.jpg,learning,10,images/assets/success_money.jpg,images/assets/gameover.jpg,,,,,,,,,,,,,0,7,7,4,1,,,,,,,,,,,,,,,,,,,,,,,,,,,,,,,,
,,,,,,,,,,,,67fa651c5c58b6c6be02eede,001,3,2025-04-15_07h00.44.388,avatar_quest_3AFC_legacy,2022.1.3,Win32,60.24096386,67fa651c5c58b6c6be02eede,67fe37cb3bd870bba73819bd,67fe3a1a6112e334bf3f4eae,,,,,,,,,,,,,,,,,,,,,,No Brainslug Difficult 1 No Money,6,images/assets/snowy_original.jpg,learning,20,images/assets/success.jpg,images/assets/gameover.jpg,,,,,,,,,,,,,0,8,8,6,1,,,,,,,,,,,,,,,,,,,,,,,,,,,,,,,,
,,,,,,,,,,,,67fa651c5c58b6c6be02eede,001,3,2025-04-15_07h00.44.388,avatar_quest_3AFC_legacy,2022.1.3,Win32,60.24096386,67fa651c5c58b6c6be02eede,67fe37cb3bd870bba73819bd,67fe3a1a6112e334bf3f4eae,"[""right"",""right"",""right"",""right"",""right"",""right"",""right"",""left"",""right"",""left"",""left"",""left"",""left"",""right"",""right"",""right"",""right"",""right"",""left"",""left"",""left"",""left"",""right"",""right"",""right"",""right"",""right"",""right"",""right""]","[0.08730000000070959,0.30180000000075324,0.5045000000000073,0.6998000000006641,0.902100000000587,1.09699999999998,1.3107000000001108,1.4327000000001817,1.668800000000715,1.763400000000388,2.074700000000121,2.3724999999999454,2.5854000000003907,2.94290000000035,3.140600000000518,3.57870000000014,3.773600000000556,3.9861000000005333,4.140700000000152,4.4658000000007405,4.712499999999977,4.9459000000003925,5.16380000000072,5.366300000000706,5.569700000000125,5.774400000000355,5.9667000000001735,6.196400000000381,6.387400000000298]",,calibration,No Brainslug No Barriers With Money,16,10.96524,6.4329,19,0,1,TRUE,na,na,na,na,,,,,,,,,,,,,,,,,,,,,,,,,,,,,,,,,,0,0,0,0,1,,,,,,,,,,,,,,,,,,,,,,,
,,,,,,,,,,,,67fa651c5c58b6c6be02eede,001,3,2025-04-15_07h00.44.388,avatar_quest_3AFC_legacy,2022.1.3,Win32,60.24096386,67fa651c5c58b6c6be02eede,67fe37cb3bd870bba73819bd,67fe3a1a6112e334bf3f4eae,,,,,,,,,,,,,,,,,,,,,,No Brainslug No Barriers With Money,0,images/assets/snowy_money.jpg,learning,10,images/assets/success_money.jpg,images/assets/gameover.jpg,,,,,,,,,,,,,0,9,9,9,1,,,,,,,,,,,,,,,,,,,,,,,,,,,,,,,,
,,,,,,,,,,,,67fa651c5c58b6c6be02eede,001,3,2025-04-15_07h00.44.388,avatar_quest_3AFC_legacy,2022.1.3,Win32,60.24096386,67fa651c5c58b6c6be02eede,67fe37cb3bd870bba73819bd,67fe3a1a6112e334bf3f4eae,,,,,,,,,,,,,,,,,,,,,,With Brainslug Difficult 2 No Money,12,images/assets/snowy_original.jpg,learning,20,images/assets/success.jpg,images/assets/gameover.jpg,,,,,,,,,,,,,0,10,10,3,1,,,,,,,,,,,,,,,,,,,,,,,,,,,,,,,,
,,,,,,,,,,,,67fa651c5c58b6c6be02eede,001,3,2025-04-15_07h00.44.388,avatar_quest_3AFC_legacy,2022.1.3,Win32,60.24096386,67fa651c5c58b6c6be02eede,67fe37cb3bd870bba73819bd,67fe3a1a6112e334bf3f4eae,,,,,,,,,,,,,,,,,,,,,,,,,,,,,,,,,,,,,,,,,,,,,,,,,,,,,,,0,0,0,0,1,,,,,,,,,,,,,,,,,,
