instruction_mouse.x,instruction_mouse.y,instruction_mouse.leftButton,instruction_mouse.midButton,instruction_mouse.rightButton,instruction_mouse.clicked_name,introduce_general.thisRepN,introduce_general.thisTrialN,introduce_general.thisN,introduce_general.thisIndex,introduce_general.ran,thisInstruction,participant,session,game version,date,expName,psychopyVersion,OS,frameRate,PROLIFIC PID,STUDY ID,SESSION ID,move_resp.keys,move_resp.rt,end_resp.keys,phase,condition,trial_num,time_limit,completion_time,left_right_steps,number_of_obsticle_blocks,number_of_tree_blocks,quest_complete,responsivity_summary,av_inter_brainslug_intervals,proportion_jitter,jitter_direction_proportion_right,calibration_phase.thisRepN,calibration_phase.thisTrialN,calibration_phase.thisN,calibration_phase.thisIndex,calibration_phase.ran,BlockLabel,nObsticles,backgroundImage,phaseLabel,n_side_steps,success_im,gameover_im,success_condition,introduce_learning_or_choice.thisRepN,introduce_learning_or_choice.thisTrialN,introduce_learning_or_choice.thisN,introduce_learning_or_choice.thisIndex,introduce_learning_or_choice.ran,choice_resp.keys,chosen_quest,unchosen_quest,choice_resp_3afc.keys,choice_resp_3afc.rt,unchosen_quests,forced_choice_trial.thisRepN,forced_choice_trial.thisTrialN,forced_choice_trial.thisN,forced_choice_trial.thisIndex,forced_choice_trial.ran,enjoyment_slider.response,enjoyment_slider.rt,effort_slider.response,effort_slider.rt,show_loop2.thisRepN,show_loop2.thisTrialN,show_loop2.thisN,show_loop2.thisIndex,show_loop2.ran,trials_per_block.thisRepN,trials_per_block.thisTrialN,trials_per_block.thisN,trials_per_block.thisIndex,trials_per_block.ran,decision_phase_AFC.thisRepN,decision_phase_AFC.thisTrialN,decision_phase_AFC.thisN,decision_phase_AFC.thisIndex,decision_phase_AFC.ran,blockN,BlockLabel1,questIm1,BlockLabel2,questIm2,BlockLabel3,questIm3,quest_condition,showForcedChoice.thisRepN,showForcedChoice.thisTrialN,showForcedChoice.thisN,showForcedChoice.thisIndex,showForcedChoice.ran
0.428385417,-0.403645833,1,0,0,instruction_button,0,0,0,0,1,images/instructions_part1_LSM_taskversion1/Slide1.JPG,67fb8746a1f516fb0e54cfda,001,3,2025-04-15_07h07.24.532,avatar_quest_3AFC_legacy,2022.1.3,Win32,60.97560976,67fb8746a1f516fb0e54cfda,67fe37cb3bd870bba73819bd,67fe3b3a022cce8a95a1808e,,,,,,,,,,,,,,,,,,,,,,,,,,,,,,,,,,,,,,,,,,,,,,,,,,,,,,,,,,,,,,,,,,,,,,,,,,,,,
0.428385417,-0.403645833,1,0,0,instruction_button,0,1,1,1,1,images/instructions_part1_LSM_taskversion1/Slide2.JPG,67fb8746a1f516fb0e54cfda,001,3,2025-04-15_07h07.24.532,avatar_quest_3AFC_legacy,2022.1.3,Win32,60.97560976,67fb8746a1f516fb0e54cfda,67fe37cb3bd870bba73819bd,67fe3b3a022cce8a95a1808e,,,,,,,,,,,,,,,,,,,,,,,,,,,,,,,,,,,,,,,,,,,,,,,,,,,,,,,,,,,,,,,,,,,,,,,,,,,,,
0.428385417,-0.403645833,1,0,0,instruction_button,0,2,2,2,1,images/instructions_part1_LSM_taskversion1/Slide3.JPG,67fb8746a1f516fb0e54cfda,001,3,2025-04-15_07h07.24.532,avatar_quest_3AFC_legacy,2022.1.3,Win32,60.97560976,67fb8746a1f516fb0e54cfda,67fe37cb3bd870bba73819bd,67fe3b3a022cce8a95a1808e,,,,,,,,,,,,,,,,,,,,,,,,,,,,,,,,,,,,,,,,,,,,,,,,,,,,,,,,,,,,,,,,,,,,,,,,,,,,,
0.428385417,-0.403645833,1,0,0,instruction_button,0,3,3,3,1,images/instructions_part1_LSM_taskversion1/Slide3.5.JPG,67fb8746a1f516fb0e54cfda,001,3,2025-04-15_07h07.24.532,avatar_quest_3AFC_legacy,2022.1.3,Win32,60.97560976,67fb8746a1f516fb0e54cfda,67fe37cb3bd870bba73819bd,67fe3b3a022cce8a95a1808e,,,,,,,,,,,,,,,,,,,,,,,,,,,,,,,,,,,,,,,,,,,,,,,,,,,,,,,,,,,,,,,,,,,,,,,,,,,,,
0.428385417,-0.403645833,1,0,0,instruction_button,0,4,4,4,1,images/instructions_part1_LSM_taskversion1/Slide4.JPG,67fb8746a1f516fb0e54cfda,001,3,2025-04-15_07h07.24.532,avatar_quest_3AFC_legacy,2022.1.3,Win32,60.97560976,67fb8746a1f516fb0e54cfda,67fe37cb3bd870bba73819bd,67fe3b3a022cce8a95a1808e,,,,,,,,,,,,,,,,,,,,,,,,,,,,,,,,,,,,,,,,,,,,,,,,,,,,,,,,,,,,,,,,,,,,,,,,,,,,,
0.428385417,-0.403645833,1,0,0,instruction_button,0,5,5,5,1,images/instructions_part1_LSM_taskversion1/Slide6.5.JPG,67fb8746a1f516fb0e54cfda,001,3,2025-04-15_07h07.24.532,avatar_quest_3AFC_legacy,2022.1.3,Win32,60.97560976,67fb8746a1f516fb0e54cfda,67fe37cb3bd870bba73819bd,67fe3b3a022cce8a95a1808e,,,,,,,,,,,,,,,,,,,,,,,,,,,,,,,,,,,,,,,,,,,,,,,,,,,,,,,,,,,,,,,,,,,,,,,,,,,,,
,,,,,,,,,,,,67fb8746a1f516fb0e54cfda,001,3,2025-04-15_07h07.24.532,avatar_quest_3AFC_legacy,2022.1.3,Win32,60.97560976,67fb8746a1f516fb0e54cfda,67fe37cb3bd870bba73819bd,67fe3b3a022cce8a95a1808e,"[""left"",""right"",""left"",""left"",""left"",""right"",""right"",""right"",""right"",""right""]","[1.5824999999999818,2.0380999999940173,3.0511999999955037,3.4526999999955024,3.852999999999952,4.0687999999969975,4.569999999999993,4.960799999996993,5.177399999998499,5.551499999999976]",,calibration,No Brainslug No Barriers No Money,1,100,5.6934,9,0,17,TRUE,na,na,na,na,0,0,0,1,1,No Brainslug No Barriers No Money,0,images/assets/snowy_original.jpg,calibration,10,images/assets/success.jpg,images/assets/gameover.jpg,never,,,,,,,,,,,,,,,,,,,,,,,,,,,,,,,,,,,,,,,,,,,,,,,,
,,,,,,,,,,,,67fb8746a1f516fb0e54cfda,001,3,2025-04-15_07h07.24.532,avatar_quest_3AFC_legacy,2022.1.3,Win32,60.97560976,67fb8746a1f516fb0e54cfda,67fe37cb3bd870bba73819bd,67fe3b3a022cce8a95a1808e,"[""right"",""right"",""right"",""left"",""left"",""left"",""left"",""left"",""left"",""right"",""right"",""right""]","[0.8162000000029934,1.285000000000025,1.8921000000015056,2.6983999999985144,3.182700000003024,3.383600000001536,3.5666000000015288,3.7350000000000136,4.133700000002989,5.097000000000037,5.376500000000021,5.610100000001523]",,calibration,No Brainslug No Barriers No Money,2,100,5.7063,8,0,20,TRUE,na,na,na,na,0,1,1,2,1,No Brainslug No Barriers No Money,0,images/assets/snowy_original.jpg,calibration,10,images/assets/success.jpg,images/assets/gameover.jpg,never,,,,,,,,,,,,,,,,,,,,,,,,,,,,,,,,,,,,,,,,,,,,,,,,
,,,,,,,,,,,,67fb8746a1f516fb0e54cfda,001,3,2025-04-15_07h07.24.532,avatar_quest_3AFC_legacy,2022.1.3,Win32,60.97560976,67fb8746a1f516fb0e54cfda,67fe37cb3bd870bba73819bd,67fe3b3a022cce8a95a1808e,"[""right"",""left"",""right"",""left"",""right"",""right"",""left"",""left"",""left"",""left"",""left"",""left"",""left"",""left"",""right"",""right"",""right""]","[0.18829999999701386,0.557100000001526,1.0886000000015201,1.6375000000000455,1.9447000000030243,2.5447999999970534,2.724200000003009,2.9399999999999977,3.460700000002987,3.6586000000015133,3.852899999998556,4.079299999997033,4.322499999999991,4.534200000003011,4.811200000002998,5.1176000000015165,5.26779999999701]",,calibration,No Brainslug No Barriers No Money,3,100,5.415,12,0,6,TRUE,na,na,na,na,0,2,2,0,1,No Brainslug No Barriers No Money,0,images/assets/snowy_original.jpg,calibration,10,images/assets/success.jpg,images/assets/gameover.jpg,never,,,,,,,,,,,,,,,,,,,,,,,,,,,,,,,,,,,,,,,,,,,,,,,,
0.4453125,-0.385416667,1,0,0,instruction_button,,,,,,images/instructions_part2_LSM_taskversion3.jpg,67fb8746a1f516fb0e54cfda,001,3,2025-04-15_07h07.24.532,avatar_quest_3AFC_legacy,2022.1.3,Win32,60.97560976,67fb8746a1f516fb0e54cfda,67fe37cb3bd870bba73819bd,67fe3b3a022cce8a95a1808e,,,,,,,,,,,,,,,,,,,,,,,,,,,,,,0,0,0,0,1,,,,,,,,,,,,,,,,,,,,,,,,,,,,,,,,,,,,,,,,,,,
,,,,,,,,,,,,67fb8746a1f516fb0e54cfda,001,3,2025-04-15_07h07.24.532,avatar_quest_3AFC_legacy,2022.1.3,Win32,60.97560976,67fb8746a1f516fb0e54cfda,67fe37cb3bd870bba73819bd,67fe3b3a022cce8a95a1808e,,,,,,,,,,,,,,,,,,,,,,With Brainslug No Barriers With Money,0,images/assets/snowy_money.jpg,learning,10,images/assets/success_money.jpg,images/assets/gameover.jpg,,,,,,,,With Brainslug Difficult 2 With Money,With Brainslug Difficult 1 No Money,right,3.205,"[""With Brainslug Difficult 1 No Money"",""With Brainslug Difficult 2 No Money""]",0,0,0,4,1,,,,,,,,,,,,,,,,,,,,,,,,,,,,,,,,
,,,,,,,,,,,,67fb8746a1f516fb0e54cfda,001,3,2025-04-15_07h07.24.532,avatar_quest_3AFC_legacy,2022.1.3,Win32,60.97560976,67fb8746a1f516fb0e54cfda,67fe37cb3bd870bba73819bd,67fe3b3a022cce8a95a1808e,,,,,,,,,,,,,,,,,,,,,,With Brainslug Difficult 1 No Money,6,images/assets/snowy_original.jpg,learning,20,images/assets/success.jpg,images/assets/gameover.jpg,,,,,,,,,,,,,0,1,1,1,1,,,,,,,,,,,,,,,,,,,,,,,,,,,,,,,,
,,,,,,,,,,,,67fb8746a1f516fb0e54cfda,001,3,2025-04-15_07h07.24.532,avatar_quest_3AFC_legacy,2022.1.3,Win32,60.97560976,67fb8746a1f516fb0e54cfda,67fe37cb3bd870bba73819bd,67fe3b3a022cce8a95a1808e,,,,,,,,,,,,,,,,,,,,,,No Brainslug Difficult 2 With Money,12,images/assets/snowy_money.jpg,learning,20,images/assets/success_money.jpg,images/assets/gameover.jpg,,,,,,,,,,,,,0,2,2,7,1,,,,,,,,,,,,,,,,,,,,,,,,,,,,,,,,
,,,,,,,,,,,,67fb8746a1f516fb0e54cfda,001,3,2025-04-15_07h07.24.532,avatar_quest_3AFC_legacy,2022.1.3,Win32,60.97560976,67fb8746a1f516fb0e54cfda,67fe37cb3bd870bba73819bd,67fe3b3a022cce8a95a1808e,,,,,,,,,,,,,,,,,,,,,,No Brainslug No Barriers No Money,0,images/assets/snowy_original.jpg,learning,10,images/assets/success.jpg,images/assets/gameover.jpg,,,,,,,,,,,,,0,3,3,10,1,,,,,,,,,,,,,,,,,,,,,,,,,,,,,,,,
,,,,,,,,,,,,67fb8746a1f516fb0e54cfda,001,3,2025-04-15_07h07.24.532,avatar_quest_3AFC_legacy,2022.1.3,Win32,60.97560976,67fb8746a1f516fb0e54cfda,67fe37cb3bd870bba73819bd,67fe3b3a022cce8a95a1808e,,,,,,,,,,,,,,,,,,,,,,With Brainslug Difficult 2 No Money,12,images/assets/snowy_original.jpg,learning,20,images/assets/success.jpg,images/assets/gameover.jpg,,,,,,,,,,,,,0,4,4,3,1,,,,,,,,,,,,,,,,,,,,,,,,,,,,,,,,
,,,,,,,,,,,,67fb8746a1f516fb0e54cfda,001,3,2025-04-15_07h07.24.532,avatar_quest_3AFC_legacy,2022.1.3,Win32,60.97560976,67fb8746a1f516fb0e54cfda,67fe37cb3bd870bba73819bd,67fe3b3a022cce8a95a1808e,,,,,,,,,,,,,,,,,,,,,,With Brainslug Difficult 1 With Money,6,images/assets/snowy_money.jpg,learning,20,images/assets/success_money.jpg,images/assets/gameover.jpg,,,,,,,,,,,,,0,5,5,0,1,,,,,,,,,,,,,,,,,,,,,,,,,,,,,,,,
,,,,,,,,,,,,67fb8746a1f516fb0e54cfda,001,3,2025-04-15_07h07.24.532,avatar_quest_3AFC_legacy,2022.1.3,Win32,60.97560976,67fb8746a1f516fb0e54cfda,67fe37cb3bd870bba73819bd,67fe3b3a022cce8a95a1808e,,,,,,,,,,,,,,,,,,,,,,No Brainslug Difficult 1 No Money,6,images/assets/snowy_original.jpg,learning,20,images/assets/success.jpg,images/assets/gameover.jpg,,,,,,,,,,,,,0,6,6,6,1,,,,,,,,,,,,,,,,,,,,,,,,,,,,,,,,
,,,,,,,,,,,,67fb8746a1f516fb0e54cfda,001,3,2025-04-15_07h07.24.532,avatar_quest_3AFC_legacy,2022.1.3,Win32,60.97560976,67fb8746a1f516fb0e54cfda,67fe37cb3bd870bba73819bd,67fe3b3a022cce8a95a1808e,"[""right"",""left"",""right"",""right"",""left"",""left"",""left"",""left"",""left"",""left""]","[1.0227000000029989,1.6293999999984976,2.3652000000029716,2.886799999997038,3.4750000000000227,3.8256000000014865,4.722600000001478,4.985899999998537,5.949299999997038,6.762799999997014]",,calibration,With Brainslug Difficult 2 With Money,4,8.40735,8.4343,5,5,0,FALSE,na,na,na,na,,,,,,,,,,,,,,,,,,,,,,,,,,,,,,,,,,0,0,0,0,1,,,,,,,,,,,,,,,,,,,,,,,
,,,,,,,,,,,,67fb8746a1f516fb0e54cfda,001,3,2025-04-15_07h07.24.532,avatar_quest_3AFC_legacy,2022.1.3,Win32,60.97560976,67fb8746a1f516fb0e54cfda,67fe37cb3bd870bba73819bd,67fe3b3a022cce8a95a1808e,,,,,,,,,,,,,,,,,,,,,,With Brainslug Difficult 2 With Money,12,images/assets/snowy_money.jpg,learning,20,images/assets/success_money.jpg,images/assets/gameover.jpg,,,,,,,,,,,,,0,7,7,2,1,,,,,,,,,,,,,,,,,,,,,,,,,,,,,,,,
,,,,,,,,,,,,67fb8746a1f516fb0e54cfda,001,3,2025-04-15_07h07.24.532,avatar_quest_3AFC_legacy,2022.1.3,Win32,60.97560976,67fb8746a1f516fb0e54cfda,67fe37cb3bd870bba73819bd,67fe3b3a022cce8a95a1808e,,,,,,,,,,,,,,,,,,,,,,No Brainslug No Barriers With Money,0,images/assets/snowy_money.jpg,learning,10,images/assets/success_money.jpg,images/assets/gameover.jpg,,,,,,,,,,,,,0,8,8,9,1,,,,,,,,,,,,,,,,,,,,,,,,,,,,,,,,
,,,,,,,,,,,,67fb8746a1f516fb0e54cfda,001,3,2025-04-15_07h07.24.532,avatar_quest_3AFC_legacy,2022.1.3,Win32,60.97560976,67fb8746a1f516fb0e54cfda,67fe37cb3bd870bba73819bd,67fe3b3a022cce8a95a1808e,,,,,,,,,,,,,,,,,,,,,,With Brainslug No Barriers No Money,0,images/assets/snowy_original.jpg,learning,10,images/assets/success.jpg,images/assets/gameover.jpg,,,,,,,,,,,,,0,9,9,5,1,,,,,,,,,,,,,,,,,,,,,,,,,,,,,,,,
,,,,,,,,,,,,67fb8746a1f516fb0e54cfda,001,3,2025-04-15_07h07.24.532,avatar_quest_3AFC_legacy,2022.1.3,Win32,60.97560976,67fb8746a1f516fb0e54cfda,67fe37cb3bd870bba73819bd,67fe3b3a022cce8a95a1808e,,,,,,,,,,,,,,,,,,,,,,No Brainslug Difficult 2 No Money,12,images/assets/snowy_original.jpg,learning,20,images/assets/success.jpg,images/assets/gameover.jpg,,,,,,,,,,,,,0,10,10,8,1,,,,,,,,,,,,,,,,,,,,,,,,,,,,,,,,
,,,,,,,,,,,,67fb8746a1f516fb0e54cfda,001,3,2025-04-15_07h07.24.532,avatar_quest_3AFC_legacy,2022.1.3,Win32,60.97560976,67fb8746a1f516fb0e54cfda,67fe37cb3bd870bba73819bd,67fe3b3a022cce8a95a1808e,,,,,,,,,,,,,,,,,,,,,,,,,,,,,,,,,,,,,,,,,,,,,,,,,,,,,,,0,0,0,0,1,,,,,,,,,,,,,,,,,,
,,,,,,,,,,,,67fb8746a1f516fb0e54cfda,001,3,2025-04-15_07h07.24.532,avatar_quest_3AFC_legacy,2022.1.3,Win32,60.97560976,67fb8746a1f516fb0e54cfda,67fe37cb3bd870bba73819bd,67fe3b3a022cce8a95a1808e,,,,,,,,,,,,,,,,,,,,,,With Brainslug Difficult 2 No Money,12,images/assets/snowy_original.jpg,learning,20,images/assets/success.jpg,images/assets/gameover.jpg,,,,,,,,With Brainslug Difficult 2 With Money,With Brainslug Difficult 1 No Money,right,7.775,"[""With Brainslug Difficult 1 No Money"",""With Brainslug Difficult 2 No Money""]",0,0,0,3,1,,,,,,,,,,,,,,,,,,,,,,,,,,,,,,,,
,,,,,,,,,,,,67fb8746a1f516fb0e54cfda,001,3,2025-04-15_07h07.24.532,avatar_quest_3AFC_legacy,2022.1.3,Win32,60.97560976,67fb8746a1f516fb0e54cfda,67fe37cb3bd870bba73819bd,67fe3b3a022cce8a95a1808e,,,,,,,,,,,,,,,,,,,,,,No Brainslug No Barriers With Money,0,images/assets/snowy_money.jpg,learning,10,images/assets/success_money.jpg,images/assets/gameover.jpg,,,,,,,,,,,,,0,1,1,9,1,,,,,,,,,,,,,,,,,,,,,,,,,,,,,,,,
,,,,,,,,,,,,67fb8746a1f516fb0e54cfda,001,3,2025-04-15_07h07.24.532,avatar_quest_3AFC_legacy,2022.1.3,Win32,60.97560976,67fb8746a1f516fb0e54cfda,67fe37cb3bd870bba73819bd,67fe3b3a022cce8a95a1808e,"[""left"",""left"",""right"",""right"",""left"",""left"",""left"",""right"",""right"",""left"",""left"",""left"",""left"",""left"",""left"",""left"",""left"",""right"",""right"",""right"",""right"",""right"",""left"",""left"",""left""]","[0.4355999999939968,1.076199999995481,1.593099999994024,1.8605000000000018,2.168599999994001,2.3758999999984667,2.669099999993989,3.0354999999999563,3.314599999994016,3.345299999996996,3.646299999996984,3.8344999999999914,3.996499999999969,4.234799999996994,4.6854999999999905,5.3036999999955015,5.718699999995522,6.078799999996988,6.340199999995491,6.639799999996967,6.8801999999955115,7.091499999999996,7.360699999995518,7.846599999993998,8.145999999999958]",,calibration,With Brainslug Difficult 2 With Money,5,8.40735,8.4106,12,7,0,FALSE,na,na,na,na,,,,,,,,,,,,,,,,,,,,,,,,,,,,,,,,,,0,0,0,0,1,,,,,,,,,,,,,,,,,,,,,,,
,,,,,,,,,,,,67fb8746a1f516fb0e54cfda,001,3,2025-04-15_07h07.24.532,avatar_quest_3AFC_legacy,2022.1.3,Win32,60.97560976,67fb8746a1f516fb0e54cfda,67fe37cb3bd870bba73819bd,67fe3b3a022cce8a95a1808e,,,,,,,,,,,,,,,,,,,,,,With Brainslug Difficult 2 With Money,12,images/assets/snowy_money.jpg,learning,20,images/assets/success_money.jpg,images/assets/gameover.jpg,,,,,,,,,,,,,0,2,2,2,1,,,,,,,,,,,,,,,,,,,,,,,,,,,,,,,,
,,,,,,,,,,,,67fb8746a1f516fb0e54cfda,001,3,2025-04-15_07h07.24.532,avatar_quest_3AFC_legacy,2022.1.3,Win32,60.97560976,67fb8746a1f516fb0e54cfda,67fe37cb3bd870bba73819bd,67fe3b3a022cce8a95a1808e,,,,,,,,,,,,,,,,,,,,,,With Brainslug No Barriers With Money,0,images/assets/snowy_money.jpg,learning,10,images/assets/success_money.jpg,images/assets/gameover.jpg,,,,,,,,,,,,,0,3,3,4,1,,,,,,,,,,,,,,,,,,,,,,,,,,,,,,,,
,,,,,,,,,,,,67fb8746a1f516fb0e54cfda,001,3,2025-04-15_07h07.24.532,avatar_quest_3AFC_legacy,2022.1.3,Win32,60.97560976,67fb8746a1f516fb0e54cfda,67fe37cb3bd870bba73819bd,67fe3b3a022cce8a95a1808e,,,,,,,,,,,,,,,,,,,,,,No Brainslug No Barriers No Money,0,images/assets/snowy_original.jpg,learning,10,images/assets/success.jpg,images/assets/gameover.jpg,,,,,,,,,,,,,0,4,4,10,1,,,,,,,,,,,,,,,,,,,,,,,,,,,,,,,,
,,,,,,,,,,,,67fb8746a1f516fb0e54cfda,001,3,2025-04-15_07h07.24.532,avatar_quest_3AFC_legacy,2022.1.3,Win32,60.97560976,67fb8746a1f516fb0e54cfda,67fe37cb3bd870bba73819bd,67fe3b3a022cce8a95a1808e,,,,,,,,,,,,,,,,,,,,,,With Brainslug No Barriers No Money,0,images/assets/snowy_original.jpg,learning,10,images/assets/success.jpg,images/assets/gameover.jpg,,,,,,,,,,,,,0,5,5,5,1,,,,,,,,,,,,,,,,,,,,,,,,,,,,,,,,
,,,,,,,,,,,,67fb8746a1f516fb0e54cfda,001,3,2025-04-15_07h07.24.532,avatar_quest_3AFC_legacy,2022.1.3,Win32,60.97560976,67fb8746a1f516fb0e54cfda,67fe37cb3bd870bba73819bd,67fe3b3a022cce8a95a1808e,,,,,,,,,,,,,,,,,,,,,,No Brainslug Difficult 1 No Money,6,images/assets/snowy_original.jpg,learning,20,images/assets/success.jpg,images/assets/gameover.jpg,,,,,,,,,,,,,0,6,6,6,1,,,,,,,,,,,,,,,,,,,,,,,,,,,,,,,,
,,,,,,,,,,,,67fb8746a1f516fb0e54cfda,001,3,2025-04-15_07h07.24.532,avatar_quest_3AFC_legacy,2022.1.3,Win32,60.97560976,67fb8746a1f516fb0e54cfda,67fe37cb3bd870bba73819bd,67fe3b3a022cce8a95a1808e,,,,,,,,,,,,,,,,,,,,,,No Brainslug Difficult 2 No Money,12,images/assets/snowy_original.jpg,learning,20,images/assets/success.jpg,images/assets/gameover.jpg,,,,,,,,,,,,,0,7,7,8,1,,,,,,,,,,,,,,,,,,,,,,,,,,,,,,,,
,,,,,,,,,,,,67fb8746a1f516fb0e54cfda,001,3,2025-04-15_07h07.24.532,avatar_quest_3AFC_legacy,2022.1.3,Win32,60.97560976,67fb8746a1f516fb0e54cfda,67fe37cb3bd870bba73819bd,67fe3b3a022cce8a95a1808e,,,,,,,,,,,,,,,,,,,,,,With Brainslug Difficult 1 No Money,6,images/assets/snowy_original.jpg,learning,20,images/assets/success.jpg,images/assets/gameover.jpg,,,,,,,,,,,,,0,8,8,1,1,,,,,,,,,,,,,,,,,,,,,,,,,,,,,,,,
,,,,,,,,,,,,67fb8746a1f516fb0e54cfda,001,3,2025-04-15_07h07.24.532,avatar_quest_3AFC_legacy,2022.1.3,Win32,60.97560976,67fb8746a1f516fb0e54cfda,67fe37cb3bd870bba73819bd,67fe3b3a022cce8a95a1808e,,,,,,,,,,,,,,,,,,,,,,No Brainslug Difficult 2 With Money,12,images/assets/snowy_money.jpg,learning,20,images/assets/success_money.jpg,images/assets/gameover.jpg,,,,,,,,,,,,,0,9,9,7,1,,,,,,,,,,,,,,,,,,,,,,,,,,,,,,,,
,,,,,,,,,,,,67fb8746a1f516fb0e54cfda,001,3,2025-04-15_07h07.24.532,avatar_quest_3AFC_legacy,2022.1.3,Win32,60.97560976,67fb8746a1f516fb0e54cfda,67fe37cb3bd870bba73819bd,67fe3b3a022cce8a95a1808e,,,,,,,,,,,,,,,,,,,,,,With Brainslug Difficult 1 With Money,6,images/assets/snowy_money.jpg,learning,20,images/assets/success_money.jpg,images/assets/gameover.jpg,,,,,,,,,,,,,0,10,10,0,1,,,,,,,,,,,,,,,,,,,,,,,,,,,,,,,,
,,,,,,,,,,,,67fb8746a1f516fb0e54cfda,001,3,2025-04-15_07h07.24.532,avatar_quest_3AFC_legacy,2022.1.3,Win32,60.97560976,67fb8746a1f516fb0e54cfda,67fe37cb3bd870bba73819bd,67fe3b3a022cce8a95a1808e,,,,,,,,,,,,,,,,,,,,,,,,,,,,,,,,,,,,,,,,,,,,,,,,,,,,,,,1,0,1,0,1,,,,,,,,,,,,,,,,,,
,,,,,,,,,,,,67fb8746a1f516fb0e54cfda,001,3,2025-04-15_07h07.24.532,avatar_quest_3AFC_legacy,2022.1.3,Win32,60.97560976,67fb8746a1f516fb0e54cfda,67fe37cb3bd870bba73819bd,67fe3b3a022cce8a95a1808e,,,,,,,,,,,,,,,,,,,,,,No Brainslug Difficult 2 With Money,12,images/assets/snowy_money.jpg,learning,20,images/assets/success_money.jpg,images/assets/gameover.jpg,,,,,,,,With Brainslug Difficult 1 No Money,With Brainslug Difficult 1 No Money,left,4.5731,"[""With Brainslug Difficult 2 No Money"",""With Brainslug Difficult 2 With Money""]",0,0,0,7,1,,,,,,,,,,,,,,,,,,,,,,,,,,,,,,,,
,,,,,,,,,,,,67fb8746a1f516fb0e54cfda,001,3,2025-04-15_07h07.24.532,avatar_quest_3AFC_legacy,2022.1.3,Win32,60.97560976,67fb8746a1f516fb0e54cfda,67fe37cb3bd870bba73819bd,67fe3b3a022cce8a95a1808e,,,,,,,,,,,,,,,,,,,,,,With Brainslug Difficult 2 No Money,12,images/assets/snowy_original.jpg,learning,20,images/assets/success.jpg,images/assets/gameover.jpg,,,,,,,,,,,,,0,1,1,3,1,,,,,,,,,,,,,,,,,,,,,,,,,,,,,,,,
,,,,,,,,,,,,67fb8746a1f516fb0e54cfda,001,3,2025-04-15_07h07.24.532,avatar_quest_3AFC_legacy,2022.1.3,Win32,60.97560976,67fb8746a1f516fb0e54cfda,67fe37cb3bd870bba73819bd,67fe3b3a022cce8a95a1808e,,,,,,,,,,,,,,,,,,,,,,With Brainslug No Barriers No Money,0,images/assets/snowy_original.jpg,learning,10,images/assets/success.jpg,images/assets/gameover.jpg,,,,,,,,,,,,,0,2,2,5,1,,,,,,,,,,,,,,,,,,,,,,,,,,,,,,,,
,,,,,,,,,,,,67fb8746a1f516fb0e54cfda,001,3,2025-04-15_07h07.24.532,avatar_quest_3AFC_legacy,2022.1.3,Win32,60.97560976,67fb8746a1f516fb0e54cfda,67fe37cb3bd870bba73819bd,67fe3b3a022cce8a95a1808e,,,,,,,,,,,,,,,,,,,,,,No Brainslug Difficult 1 No Money,6,images/assets/snowy_original.jpg,learning,20,images/assets/success.jpg,images/assets/gameover.jpg,,,,,,,,,,,,,0,3,3,6,1,,,,,,,,,,,,,,,,,,,,,,,,,,,,,,,,
,,,,,,,,,,,,67fb8746a1f516fb0e54cfda,001,3,2025-04-15_07h07.24.532,avatar_quest_3AFC_legacy,2022.1.3,Win32,60.97560976,67fb8746a1f516fb0e54cfda,67fe37cb3bd870bba73819bd,67fe3b3a022cce8a95a1808e,,,,,,,,,,,,,,,,,,,,,,With Brainslug No Barriers With Money,0,images/assets/snowy_money.jpg,learning,10,images/assets/success_money.jpg,images/assets/gameover.jpg,,,,,,,,,,,,,0,4,4,4,1,,,,,,,,,,,,,,,,,,,,,,,,,,,,,,,,
,,,,,,,,,,,,67fb8746a1f516fb0e54cfda,001,3,2025-04-15_07h07.24.532,avatar_quest_3AFC_legacy,2022.1.3,Win32,60.97560976,67fb8746a1f516fb0e54cfda,67fe37cb3bd870bba73819bd,67fe3b3a022cce8a95a1808e,,,,,,,,,,,,,,,,,,,,,,With Brainslug Difficult 2 With Money,12,images/assets/snowy_money.jpg,learning,20,images/assets/success_money.jpg,images/assets/gameover.jpg,,,,,,,,,,,,,0,5,5,2,1,,,,,,,,,,,,,,,,,,,,,,,,,,,,,,,,
,,,,,,,,,,,,67fb8746a1f516fb0e54cfda,001,3,2025-04-15_07h07.24.532,avatar_quest_3AFC_legacy,2022.1.3,Win32,60.97560976,67fb8746a1f516fb0e54cfda,67fe37cb3bd870bba73819bd,67fe3b3a022cce8a95a1808e,,,,,,,,,,,,,,,,,,,,,,No Brainslug No Barriers No Money,0,images/assets/snowy_original.jpg,learning,10,images/assets/success.jpg,images/assets/gameover.jpg,,,,,,,,,,,,,0,6,6,10,1,,,,,,,,,,,,,,,,,,,,,,,,,,,,,,,,
,,,,,,,,,,,,67fb8746a1f516fb0e54cfda,001,3,2025-04-15_07h07.24.532,avatar_quest_3AFC_legacy,2022.1.3,Win32,60.97560976,67fb8746a1f516fb0e54cfda,67fe37cb3bd870bba73819bd,67fe3b3a022cce8a95a1808e,"[""left"",""left"",""left"",""left"",""left"",""left"",""left"",""left"",""left"",""left"",""left"",""right"",""left""]","[0.34570000000297796,0.8230000000000359,1.378800000004503,1.7098000000044635,3.183499999999981,3.680800000004467,4.815899999998521,6.013200000002996,6.476700000003007,6.57839999999851,7.092300000004457,7.559800000004486,8.195100000001503]",,calibration,With Brainslug Difficult 1 No Money,6,8.40735,8.4355,4,3,0,FALSE,na,na,na,na,,,,,,,,,,,,,,,,,,,,,,,,,,,,,,,,,,0,0,0,0,1,,,,,,,,,,,,,,,,,,,,,,,
,,,,,,,,,,,,67fb8746a1f516fb0e54cfda,001,3,2025-04-15_07h07.24.532,avatar_quest_3AFC_legacy,2022.1.3,Win32,60.97560976,67fb8746a1f516fb0e54cfda,67fe37cb3bd870bba73819bd,67fe3b3a022cce8a95a1808e,,,,,,,,,,,,,,,,,,,,,,With Brainslug Difficult 1 No Money,6,images/assets/snowy_original.jpg,learning,20,images/assets/success.jpg,images/assets/gameover.jpg,,,,,,,,,,,,,0,7,7,1,1,,,,,,,,,,,,,,,,,,,,,,,,,,,,,,,,
,,,,,,,,,,,,67fb8746a1f516fb0e54cfda,001,3,2025-04-15_07h07.24.532,avatar_quest_3AFC_legacy,2022.1.3,Win32,60.97560976,67fb8746a1f516fb0e54cfda,67fe37cb3bd870bba73819bd,67fe3b3a022cce8a95a1808e,,,,,,,,,,,,,,,,,,,,,,No Brainslug No Barriers With Money,0,images/assets/snowy_money.jpg,learning,10,images/assets/success_money.jpg,images/assets/gameover.jpg,,,,,,,,,,,,,0,8,8,9,1,,,,,,,,,,,,,,,,,,,,,,,,,,,,,,,,
,,,,,,,,,,,,67fb8746a1f516fb0e54cfda,001,3,2025-04-15_07h07.24.532,avatar_quest_3AFC_legacy,2022.1.3,Win32,60.97560976,67fb8746a1f516fb0e54cfda,67fe37cb3bd870bba73819bd,67fe3b3a022cce8a95a1808e,,,,,,,,,,,,,,,,,,,,,,No Brainslug Difficult 2 No Money,12,images/assets/snowy_original.jpg,learning,20,images/assets/success.jpg,images/assets/gameover.jpg,,,,,,,,,,,,,0,9,9,8,1,,,,,,,,,,,,,,,,,,,,,,,,,,,,,,,,
,,,,,,,,,,,,67fb8746a1f516fb0e54cfda,001,3,2025-04-15_07h07.24.532,avatar_quest_3AFC_legacy,2022.1.3,Win32,60.97560976,67fb8746a1f516fb0e54cfda,67fe37cb3bd870bba73819bd,67fe3b3a022cce8a95a1808e,,,,,,,,,,,,,,,,,,,,,,With Brainslug Difficult 1 With Money,6,images/assets/snowy_money.jpg,learning,20,images/assets/success_money.jpg,images/assets/gameover.jpg,,,,,,,,,,,,,0,10,10,0,1,,,,,,,,,,,,,,,,,,,,,,,,,,,,,,,,
,,,,,,,,,,,,67fb8746a1f516fb0e54cfda,001,3,2025-04-15_07h07.24.532,avatar_quest_3AFC_legacy,2022.1.3,Win32,60.97560976,67fb8746a1f516fb0e54cfda,67fe37cb3bd870bba73819bd,67fe3b3a022cce8a95a1808e,,,,,,,,,,,,,,,,,,,,,,,,,,,,,,,,,,,,,,,,,,,,,,,,,,,,,,,2,0,2,0,1,,,,,,,,,,,,,,,,,,
,,,,,,,,,,,,67fb8746a1f516fb0e54cfda,001,3,2025-04-15_07h07.24.532,avatar_quest_3AFC_legacy,2022.1.3,Win32,60.97560976,67fb8746a1f516fb0e54cfda,67fe37cb3bd870bba73819bd,67fe3b3a022cce8a95a1808e,,,,,,,,,,,,,,,,,,,,,,With Brainslug Difficult 2 No Money,12,images/assets/snowy_original.jpg,learning,20,images/assets/success.jpg,images/assets/gameover.jpg,,,,,,,,With Brainslug Difficult 2 With Money,With Brainslug Difficult 1 No Money,right,1.3863,"[""With Brainslug Difficult 1 No Money"",""With Brainslug Difficult 2 No Money""]",0,0,0,3,1,,,,,,,,,,,,,,,,,,,,,,,,,,,,,,,,
,,,,,,,,,,,,67fb8746a1f516fb0e54cfda,001,3,2025-04-15_07h07.24.532,avatar_quest_3AFC_legacy,2022.1.3,Win32,60.97560976,67fb8746a1f516fb0e54cfda,67fe37cb3bd870bba73819bd,67fe3b3a022cce8a95a1808e,,,,,,,,,,,,,,,,,,,,,,No Brainslug No Barriers No Money,0,images/assets/snowy_original.jpg,learning,10,images/assets/success.jpg,images/assets/gameover.jpg,,,,,,,,,,,,,0,1,1,10,1,,,,,,,,,,,,,,,,,,,,,,,,,,,,,,,,
,,,,,,,,,,,,67fb8746a1f516fb0e54cfda,001,3,2025-04-15_07h07.24.532,avatar_quest_3AFC_legacy,2022.1.3,Win32,60.97560976,67fb8746a1f516fb0e54cfda,67fe37cb3bd870bba73819bd,67fe3b3a022cce8a95a1808e,,,,,,,,,,,,,,,,,,,,,,With Brainslug No Barriers No Money,0,images/assets/snowy_original.jpg,learning,10,images/assets/success.jpg,images/assets/gameover.jpg,,,,,,,,,,,,,0,2,2,5,1,,,,,,,,,,,,,,,,,,,,,,,,,,,,,,,,
,,,,,,,,,,,,67fb8746a1f516fb0e54cfda,001,3,2025-04-15_07h07.24.532,avatar_quest_3AFC_legacy,2022.1.3,Win32,60.97560976,67fb8746a1f516fb0e54cfda,67fe37cb3bd870bba73819bd,67fe3b3a022cce8a95a1808e,,,,,,,,,,,,,,,,,,,,,,With Brainslug Difficult 1 No Money,6,images/assets/snowy_original.jpg,learning,20,images/assets/success.jpg,images/assets/gameover.jpg,,,,,,,,,,,,,0,3,3,1,1,,,,,,,,,,,,,,,,,,,,,,,,,,,,,,,,
,,,,,,,,,,,,67fb8746a1f516fb0e54cfda,001,3,2025-04-15_07h07.24.532,avatar_quest_3AFC_legacy,2022.1.3,Win32,60.97560976,67fb8746a1f516fb0e54cfda,67fe37cb3bd870bba73819bd,67fe3b3a022cce8a95a1808e,"[""left"",""left"",""left"",""left"",""left"",""left"",""left"",""left"",""left"",""left"",""left""]","[0.3795000000000073,0.8457999999970411,1.4694999999999823,2.7680999999940354,4.793599999994058,5.128899999998509,5.401299999997036,5.636500000000012,6.514499999999998,6.871299999997007,7.6965000000000146]",,calibration,With Brainslug Difficult 2 With Money,7,8.40735,8.4182,3,4,0,FALSE,na,na,na,na,,,,,,,,,,,,,,,,,,,,,,,,,,,,,,,,,,0,0,0,0,1,,,,,,,,,,,,,,,,,,,,,,,
,,,,,,,,,,,,67fb8746a1f516fb0e54cfda,001,3,2025-04-15_07h07.24.532,avatar_quest_3AFC_legacy,2022.1.3,Win32,60.97560976,67fb8746a1f516fb0e54cfda,67fe37cb3bd870bba73819bd,67fe3b3a022cce8a95a1808e,,,,,,,,,,,,,,,,,,,,,,With Brainslug Difficult 2 With Money,12,images/assets/snowy_money.jpg,learning,20,images/assets/success_money.jpg,images/assets/gameover.jpg,,,,,,,,,,,,,0,4,4,2,1,,,,,,,,,,,,,,,,,,,,,,,,,,,,,,,,
,,,,,,,,,,,,67fb8746a1f516fb0e54cfda,001,3,2025-04-15_07h07.24.532,avatar_quest_3AFC_legacy,2022.1.3,Win32,60.97560976,67fb8746a1f516fb0e54cfda,67fe37cb3bd870bba73819bd,67fe3b3a022cce8a95a1808e,,,,,,,,,,,,,,,,,,,,,,No Brainslug No Barriers With Money,0,images/assets/snowy_money.jpg,learning,10,images/assets/success_money.jpg,images/assets/gameover.jpg,,,,,,,,,,,,,0,5,5,9,1,,,,,,,,,,,,,,,,,,,,,,,,,,,,,,,,
,,,,,,,,,,,,67fb8746a1f516fb0e54cfda,001,3,2025-04-15_07h07.24.532,avatar_quest_3AFC_legacy,2022.1.3,Win32,60.97560976,67fb8746a1f516fb0e54cfda,67fe37cb3bd870bba73819bd,67fe3b3a022cce8a95a1808e,,,,,,,,,,,,,,,,,,,,,,With Brainslug No Barriers With Money,0,images/assets/snowy_money.jpg,learning,10,images/assets/success_money.jpg,images/assets/gameover.jpg,,,,,,,,,,,,,0,6,6,4,1,,,,,,,,,,,,,,,,,,,,,,,,,,,,,,,,
,,,,,,,,,,,,67fb8746a1f516fb0e54cfda,001,3,2025-04-15_07h07.24.532,avatar_quest_3AFC_legacy,2022.1.3,Win32,60.97560976,67fb8746a1f516fb0e54cfda,67fe37cb3bd870bba73819bd,67fe3b3a022cce8a95a1808e,,,,,,,,,,,,,,,,,,,,,,With Brainslug Difficult 1 With Money,6,images/assets/snowy_money.jpg,learning,20,images/assets/success_money.jpg,images/assets/gameover.jpg,,,,,,,,,,,,,0,7,7,0,1,,,,,,,,,,,,,,,,,,,,,,,,,,,,,,,,
,,,,,,,,,,,,67fb8746a1f516fb0e54cfda,001,3,2025-04-15_07h07.24.532,avatar_quest_3AFC_legacy,2022.1.3,Win32,60.97560976,67fb8746a1f516fb0e54cfda,67fe37cb3bd870bba73819bd,67fe3b3a022cce8a95a1808e,,,,,,,,,,,,,,,,,,,,,,No Brainslug Difficult 2 No Money,12,images/assets/snowy_original.jpg,learning,20,images/assets/success.jpg,images/assets/gameover.jpg,,,,,,,,,,,,,0,8,8,8,1,,,,,,,,,,,,,,,,,,,,,,,,,,,,,,,,
,,,,,,,,,,,,67fb8746a1f516fb0e54cfda,001,3,2025-04-15_07h07.24.532,avatar_quest_3AFC_legacy,2022.1.3,Win32,60.97560976,67fb8746a1f516fb0e54cfda,67fe37cb3bd870bba73819bd,67fe3b3a022cce8a95a1808e,,,,,,,,,,,,,,,,,,,,,,No Brainslug Difficult 2 With Money,12,images/assets/snowy_money.jpg,learning,20,images/assets/success_money.jpg,images/assets/gameover.jpg,,,,,,,,,,,,,0,9,9,7,1,,,,,,,,,,,,,,,,,,,,,,,,,,,,,,,,
,,,,,,,,,,,,67fb8746a1f516fb0e54cfda,001,3,2025-04-15_07h07.24.532,avatar_quest_3AFC_legacy,2022.1.3,Win32,60.97560976,67fb8746a1f516fb0e54cfda,67fe37cb3bd870bba73819bd,67fe3b3a022cce8a95a1808e,,,,,,,,,,,,,,,,,,,,,,No Brainslug Difficult 1 No Money,6,images/assets/snowy_original.jpg,learning,20,images/assets/success.jpg,images/assets/gameover.jpg,,,,,,,,,,,,,0,10,10,6,1,,,,,,,,,,,,,,,,,,,,,,,,,,,,,,,,
,,,,,,,,,,,,67fb8746a1f516fb0e54cfda,001,3,2025-04-15_07h07.24.532,avatar_quest_3AFC_legacy,2022.1.3,Win32,60.97560976,67fb8746a1f516fb0e54cfda,67fe37cb3bd870bba73819bd,67fe3b3a022cce8a95a1808e,,,,,,,,,,,,,,,,,,,,,,,,,,,,,,,,,,,,,,,,,,,,,,,,,,,,,,,3,0,3,0,1,,,,,,,,,,,,,,,,,,
,,,,,,,,,,,,67fb8746a1f516fb0e54cfda,001,3,2025-04-15_07h07.24.532,avatar_quest_3AFC_legacy,2022.1.3,Win32,60.97560976,67fb8746a1f516fb0e54cfda,67fe37cb3bd870bba73819bd,67fe3b3a022cce8a95a1808e,,,,,,,,,,,,,,,,,,,,,,With Brainslug No Barriers With Money,0,images/assets/snowy_money.jpg,learning,10,images/assets/success_money.jpg,images/assets/gameover.jpg,,,,,,,,With Brainslug Difficult 1 No Money,With Brainslug Difficult 1 No Money,left,1.7241,"[""With Brainslug Difficult 2 No Money"",""With Brainslug Difficult 2 With Money""]",0,0,0,4,1,,,,,,,,,,,,,,,,,,,,,,,,,,,,,,,,
,,,,,,,,,,,,67fb8746a1f516fb0e54cfda,001,3,2025-04-15_07h07.24.532,avatar_quest_3AFC_legacy,2022.1.3,Win32,60.97560976,67fb8746a1f516fb0e54cfda,67fe37cb3bd870bba73819bd,67fe3b3a022cce8a95a1808e,,,,,,,,,,,,,,,,,,,,,,With Brainslug Difficult 2 With Money,12,images/assets/snowy_money.jpg,learning,20,images/assets/success_money.jpg,images/assets/gameover.jpg,,,,,,,,,,,,,0,1,1,2,1,,,,,,,,,,,,,,,,,,,,,,,,,,,,,,,,
,,,,,,,,,,,,67fb8746a1f516fb0e54cfda,001,3,2025-04-15_07h07.24.532,avatar_quest_3AFC_legacy,2022.1.3,Win32,60.97560976,67fb8746a1f516fb0e54cfda,67fe37cb3bd870bba73819bd,67fe3b3a022cce8a95a1808e,,,,,,,,,,,,,,,,,,,,,,With Brainslug Difficult 1 With Money,6,images/assets/snowy_money.jpg,learning,20,images/assets/success_money.jpg,images/assets/gameover.jpg,,,,,,,,,,,,,0,2,2,0,1,,,,,,,,,,,,,,,,,,,,,,,,,,,,,,,,
,,,,,,,,,,,,67fb8746a1f516fb0e54cfda,001,3,2025-04-15_07h07.24.532,avatar_quest_3AFC_legacy,2022.1.3,Win32,60.97560976,67fb8746a1f516fb0e54cfda,67fe37cb3bd870bba73819bd,67fe3b3a022cce8a95a1808e,,,,,,,,,,,,,,,,,,,,,,With Brainslug No Barriers No Money,0,images/assets/snowy_original.jpg,learning,10,images/assets/success.jpg,images/assets/gameover.jpg,,,,,,,,,,,,,0,3,3,5,1,,,,,,,,,,,,,,,,,,,,,,,,,,,,,,,,
,,,,,,,,,,,,67fb8746a1f516fb0e54cfda,001,3,2025-04-15_07h07.24.532,avatar_quest_3AFC_legacy,2022.1.3,Win32,60.97560976,67fb8746a1f516fb0e54cfda,67fe37cb3bd870bba73819bd,67fe3b3a022cce8a95a1808e,"[""left"",""left"",""left"",""left"",""left"",""left"",""left""]","[0.46660000000150603,1.05969999999553,2.9256999999955724,5.8106000000015,7.127799999997023,7.6306999999955565,8.006100000001481]",,calibration,With Brainslug Difficult 1 No Money,8,8.40735,8.4383,2,3,0,FALSE,na,na,na,na,,,,,,,,,,,,,,,,,,,,,,,,,,,,,,,,,,0,0,0,0,1,,,,,,,,,,,,,,,,,,,,,,,
,,,,,,,,,,,,67fb8746a1f516fb0e54cfda,001,3,2025-04-15_07h07.24.532,avatar_quest_3AFC_legacy,2022.1.3,Win32,60.97560976,67fb8746a1f516fb0e54cfda,67fe37cb3bd870bba73819bd,67fe3b3a022cce8a95a1808e,,,,,,,,,,,,,,,,,,,,,,With Brainslug Difficult 1 No Money,6,images/assets/snowy_original.jpg,learning,20,images/assets/success.jpg,images/assets/gameover.jpg,,,,,,,,,,,,,0,4,4,1,1,,,,,,,,,,,,,,,,,,,,,,,,,,,,,,,,
,,,,,,,,,,,,67fb8746a1f516fb0e54cfda,001,3,2025-04-15_07h07.24.532,avatar_quest_3AFC_legacy,2022.1.3,Win32,60.97560976,67fb8746a1f516fb0e54cfda,67fe37cb3bd870bba73819bd,67fe3b3a022cce8a95a1808e,,,,,,,,,,,,,,,,,,,,,,No Brainslug Difficult 2 With Money,12,images/assets/snowy_money.jpg,learning,20,images/assets/success_money.jpg,images/assets/gameover.jpg,,,,,,,,,,,,,0,5,5,7,1,,,,,,,,,,,,,,,,,,,,,,,,,,,,,,,,
,,,,,,,,,,,,67fb8746a1f516fb0e54cfda,001,3,2025-04-15_07h07.24.532,avatar_quest_3AFC_legacy,2022.1.3,Win32,60.97560976,67fb8746a1f516fb0e54cfda,67fe37cb3bd870bba73819bd,67fe3b3a022cce8a95a1808e,,,,,,,,,,,,,,,,,,,,,,No Brainslug No Barriers With Money,0,images/assets/snowy_money.jpg,learning,10,images/assets/success_money.jpg,images/assets/gameover.jpg,,,,,,,,,,,,,0,6,6,9,1,,,,,,,,,,,,,,,,,,,,,,,,,,,,,,,,
,,,,,,,,,,,,67fb8746a1f516fb0e54cfda,001,3,2025-04-15_07h07.24.532,avatar_quest_3AFC_legacy,2022.1.3,Win32,60.97560976,67fb8746a1f516fb0e54cfda,67fe37cb3bd870bba73819bd,67fe3b3a022cce8a95a1808e,,,,,,,,,,,,,,,,,,,,,,No Brainslug No Barriers No Money,0,images/assets/snowy_original.jpg,learning,10,images/assets/success.jpg,images/assets/gameover.jpg,,,,,,,,,,,,,0,7,7,10,1,,,,,,,,,,,,,,,,,,,,,,,,,,,,,,,,
,,,,,,,,,,,,67fb8746a1f516fb0e54cfda,001,3,2025-04-15_07h07.24.532,avatar_quest_3AFC_legacy,2022.1.3,Win32,60.97560976,67fb8746a1f516fb0e54cfda,67fe37cb3bd870bba73819bd,67fe3b3a022cce8a95a1808e,,,,,,,,,,,,,,,,,,,,,,No Brainslug Difficult 2 No Money,12,images/assets/snowy_original.jpg,learning,20,images/assets/success.jpg,images/assets/gameover.jpg,,,,,,,,,,,,,0,8,8,8,1,,,,,,,,,,,,,,,,,,,,,,,,,,,,,,,,
,,,,,,,,,,,,67fb8746a1f516fb0e54cfda,001,3,2025-04-15_07h07.24.532,avatar_quest_3AFC_legacy,2022.1.3,Win32,60.97560976,67fb8746a1f516fb0e54cfda,67fe37cb3bd870bba73819bd,67fe3b3a022cce8a95a1808e,,,,,,,,,,,,,,,,,,,,,,No Brainslug Difficult 1 No Money,6,images/assets/snowy_original.jpg,learning,20,images/assets/success.jpg,images/assets/gameover.jpg,,,,,,,,,,,,,0,9,9,6,1,,,,,,,,,,,,,,,,,,,,,,,,,,,,,,,,
,,,,,,,,,,,,67fb8746a1f516fb0e54cfda,001,3,2025-04-15_07h07.24.532,avatar_quest_3AFC_legacy,2022.1.3,Win32,60.97560976,67fb8746a1f516fb0e54cfda,67fe37cb3bd870bba73819bd,67fe3b3a022cce8a95a1808e,,,,,,,,,,,,,,,,,,,,,,With Brainslug Difficult 2 No Money,12,images/assets/snowy_original.jpg,learning,20,images/assets/success.jpg,images/assets/gameover.jpg,,,,,,,,,,,,,0,10,10,3,1,,,,,,,,,,,,,,,,,,,,,,,,,,,,,,,,
,,,,,,,,,,,,67fb8746a1f516fb0e54cfda,001,3,2025-04-15_07h07.24.532,avatar_quest_3AFC_legacy,2022.1.3,Win32,60.97560976,67fb8746a1f516fb0e54cfda,67fe37cb3bd870bba73819bd,67fe3b3a022cce8a95a1808e,,,,,,,,,,,,,,,,,,,,,,,,,,,,,,,,,,,,,,,,,,,,,,,,,,,,,,,4,0,4,0,1,,,,,,,,,,,,,,,,,,
,,,,,,,,,,,,67fb8746a1f516fb0e54cfda,001,3,2025-04-15_07h07.24.532,avatar_quest_3AFC_legacy,2022.1.3,Win32,60.97560976,67fb8746a1f516fb0e54cfda,67fe37cb3bd870bba73819bd,67fe3b3a022cce8a95a1808e,,,,,,,,,,,,,,,,,,,,,,With Brainslug No Barriers With Money,0,images/assets/snowy_money.jpg,learning,10,images/assets/success_money.jpg,images/assets/gameover.jpg,,,,,,,,With Brainslug Difficult 2 No Money,With Brainslug Difficult 1 No Money,down,1.3294,"[""With Brainslug Difficult 1 No Money"",""With Brainslug Difficult 2 With Money""]",0,0,0,4,1,,,,,,,,,,,,,,,,,,,,,,,,,,,,,,,,
,,,,,,,,,,,,67fb8746a1f516fb0e54cfda,001,3,2025-04-15_07h07.24.532,avatar_quest_3AFC_legacy,2022.1.3,Win32,60.97560976,67fb8746a1f516fb0e54cfda,67fe37cb3bd870bba73819bd,67fe3b3a022cce8a95a1808e,,,,,,,,,,,,,,,,,,,,,,No Brainslug No Barriers No Money,0,images/assets/snowy_original.jpg,learning,10,images/assets/success.jpg,images/assets/gameover.jpg,,,,,,,,,,,,,0,1,1,10,1,,,,,,,,,,,,,,,,,,,,,,,,,,,,,,,,
,,,,,,,,,,,,67fb8746a1f516fb0e54cfda,001,3,2025-04-15_07h07.24.532,avatar_quest_3AFC_legacy,2022.1.3,Win32,60.97560976,67fb8746a1f516fb0e54cfda,67fe37cb3bd870bba73819bd,67fe3b3a022cce8a95a1808e,"[""left"",""left"",""left"",""left"",""left"",""left"",""left"",""left"",""left""]","[0.4071999999955551,0.7886999999955151,1.0841999999955192,2.817299999997033,3.2321999999955437,4.032799999997053,4.709000000000003,5.2099999999999795,6.717899999998508]",,calibration,With Brainslug Difficult 2 No Money,9,8.40735,8.4278,2,3,0,FALSE,na,na,na,na,,,,,,,,,,,,,,,,,,,,,,,,,,,,,,,,,,0,0,0,0,1,,,,,,,,,,,,,,,,,,,,,,,
,,,,,,,,,,,,67fb8746a1f516fb0e54cfda,001,3,2025-04-15_07h07.24.532,avatar_quest_3AFC_legacy,2022.1.3,Win32,60.97560976,67fb8746a1f516fb0e54cfda,67fe37cb3bd870bba73819bd,67fe3b3a022cce8a95a1808e,,,,,,,,,,,,,,,,,,,,,,With Brainslug Difficult 2 No Money,12,images/assets/snowy_original.jpg,learning,20,images/assets/success.jpg,images/assets/gameover.jpg,,,,,,,,,,,,,0,2,2,3,1,,,,,,,,,,,,,,,,,,,,,,,,,,,,,,,,
,,,,,,,,,,,,67fb8746a1f516fb0e54cfda,001,3,2025-04-15_07h07.24.532,avatar_quest_3AFC_legacy,2022.1.3,Win32,60.97560976,67fb8746a1f516fb0e54cfda,67fe37cb3bd870bba73819bd,67fe3b3a022cce8a95a1808e,,,,,,,,,,,,,,,,,,,,,,With Brainslug Difficult 1 With Money,6,images/assets/snowy_money.jpg,learning,20,images/assets/success_money.jpg,images/assets/gameover.jpg,,,,,,,,,,,,,0,3,3,0,1,,,,,,,,,,,,,,,,,,,,,,,,,,,,,,,,
,,,,,,,,,,,,67fb8746a1f516fb0e54cfda,001,3,2025-04-15_07h07.24.532,avatar_quest_3AFC_legacy,2022.1.3,Win32,60.97560976,67fb8746a1f516fb0e54cfda,67fe37cb3bd870bba73819bd,67fe3b3a022cce8a95a1808e,,,,,,,,,,,,,,,,,,,,,,With Brainslug Difficult 2 With Money,12,images/assets/snowy_money.jpg,learning,20,images/assets/success_money.jpg,images/assets/gameover.jpg,,,,,,,,,,,,,0,4,4,2,1,,,,,,,,,,,,,,,,,,,,,,,,,,,,,,,,
,,,,,,,,,,,,67fb8746a1f516fb0e54cfda,001,3,2025-04-15_07h07.24.532,avatar_quest_3AFC_legacy,2022.1.3,Win32,60.97560976,67fb8746a1f516fb0e54cfda,67fe37cb3bd870bba73819bd,67fe3b3a022cce8a95a1808e,,,,,,,,,,,,,,,,,,,,,,No Brainslug Difficult 2 No Money,12,images/assets/snowy_original.jpg,learning,20,images/assets/success.jpg,images/assets/gameover.jpg,,,,,,,,,,,,,0,5,5,8,1,,,,,,,,,,,,,,,,,,,,,,,,,,,,,,,,
,,,,,,,,,,,,67fb8746a1f516fb0e54cfda,001,3,2025-04-15_07h07.24.532,avatar_quest_3AFC_legacy,2022.1.3,Win32,60.97560976,67fb8746a1f516fb0e54cfda,67fe37cb3bd870bba73819bd,67fe3b3a022cce8a95a1808e,,,,,,,,,,,,,,,,,,,,,,No Brainslug Difficult 1 No Money,6,images/assets/snowy_original.jpg,learning,20,images/assets/success.jpg,images/assets/gameover.jpg,,,,,,,,,,,,,0,6,6,6,1,,,,,,,,,,,,,,,,,,,,,,,,,,,,,,,,
,,,,,,,,,,,,67fb8746a1f516fb0e54cfda,001,3,2025-04-15_07h07.24.532,avatar_quest_3AFC_legacy,2022.1.3,Win32,60.97560976,67fb8746a1f516fb0e54cfda,67fe37cb3bd870bba73819bd,67fe3b3a022cce8a95a1808e,,,,,,,,,,,,,,,,,,,,,,No Brainslug No Barriers With Money,0,images/assets/snowy_money.jpg,learning,10,images/assets/success_money.jpg,images/assets/gameover.jpg,,,,,,,,,,,,,0,7,7,9,1,,,,,,,,,,,,,,,,,,,,,,,,,,,,,,,,
,,,,,,,,,,,,67fb8746a1f516fb0e54cfda,001,3,2025-04-15_07h07.24.532,avatar_quest_3AFC_legacy,2022.1.3,Win32,60.97560976,67fb8746a1f516fb0e54cfda,67fe37cb3bd870bba73819bd,67fe3b3a022cce8a95a1808e,,,,,,,,,,,,,,,,,,,,,,With Brainslug Difficult 1 No Money,6,images/assets/snowy_original.jpg,learning,20,images/assets/success.jpg,images/assets/gameover.jpg,,,,,,,,,,,,,0,8,8,1,1,,,,,,,,,,,,,,,,,,,,,,,,,,,,,,,,
,,,,,,,,,,,,67fb8746a1f516fb0e54cfda,001,3,2025-04-15_07h07.24.532,avatar_quest_3AFC_legacy,2022.1.3,Win32,60.97560976,67fb8746a1f516fb0e54cfda,67fe37cb3bd870bba73819bd,67fe3b3a022cce8a95a1808e,,,,,,,,,,,,,,,,,,,,,,With Brainslug No Barriers No Money,0,images/assets/snowy_original.jpg,learning,10,images/assets/success.jpg,images/assets/gameover.jpg,,,,,,,,,,,,,0,9,9,5,1,,,,,,,,,,,,,,,,,,,,,,,,,,,,,,,,
,,,,,,,,,,,,67fb8746a1f516fb0e54cfda,001,3,2025-04-15_07h07.24.532,avatar_quest_3AFC_legacy,2022.1.3,Win32,60.97560976,67fb8746a1f516fb0e54cfda,67fe37cb3bd870bba73819bd,67fe3b3a022cce8a95a1808e,,,,,,,,,,,,,,,,,,,,,,No Brainslug Difficult 2 With Money,12,images/assets/snowy_money.jpg,learning,20,images/assets/success_money.jpg,images/assets/gameover.jpg,,,,,,,,,,,,,0,10,10,7,1,,,,,,,,,,,,,,,,,,,,,,,,,,,,,,,,
,,,,,,,,,,,,67fb8746a1f516fb0e54cfda,001,3,2025-04-15_07h07.24.532,avatar_quest_3AFC_legacy,2022.1.3,Win32,60.97560976,67fb8746a1f516fb0e54cfda,67fe37cb3bd870bba73819bd,67fe3b3a022cce8a95a1808e,,,,,,,,,,,,,,,,,,,,,,,,,,,,,,,,,,,,,,,,,,,,,,,,,,,,,,,5,0,5,0,1,,,,,,,,,,,,,,,,,,
,,,,,,,,,,,,67fb8746a1f516fb0e54cfda,001,3,2025-04-15_07h07.24.532,avatar_quest_3AFC_legacy,2022.1.3,Win32,60.97560976,67fb8746a1f516fb0e54cfda,67fe37cb3bd870bba73819bd,67fe3b3a022cce8a95a1808e,,,,,,,,,,,,,,,,,,,,,,With Brainslug Difficult 1 With Money,6,images/assets/snowy_money.jpg,learning,20,images/assets/success_money.jpg,images/assets/gameover.jpg,,,,,,,,With Brainslug Difficult 2 No Money,With Brainslug Difficult 1 No Money,down,1.2825,"[""With Brainslug Difficult 1 No Money"",""With Brainslug Difficult 2 With Money""]",0,0,0,0,1,,,,,,,,,,,,,,,,,,,,,,,,,,,,,,,,
,,,,,,,,,,,,67fb8746a1f516fb0e54cfda,001,3,2025-04-15_07h07.24.532,avatar_quest_3AFC_legacy,2022.1.3,Win32,60.97560976,67fb8746a1f516fb0e54cfda,67fe37cb3bd870bba73819bd,67fe3b3a022cce8a95a1808e,,,,,,,,,,,,,,,,,,,,,,No Brainslug No Barriers No Money,0,images/assets/snowy_original.jpg,learning,10,images/assets/success.jpg,images/assets/gameover.jpg,,,,,,,,,,,,,0,1,1,10,1,,,,,,,,,,,,,,,,,,,,,,,,,,,,,,,,
,,,,,,,,,,,,67fb8746a1f516fb0e54cfda,001,3,2025-04-15_07h07.24.532,avatar_quest_3AFC_legacy,2022.1.3,Win32,60.97560976,67fb8746a1f516fb0e54cfda,67fe37cb3bd870bba73819bd,67fe3b3a022cce8a95a1808e,"[""left"",""left"",""right"",""right"",""right"",""left"",""left"",""left"",""right"",""right"",""right"",""right"",""right""]","[0.5469000000059623,1.0903000000044472,1.4085000000000036,2.160900000005938,2.8418000000044685,3.635499999999979,4.867900000005932,5.135999999999967,5.401700000002961,5.851200000002962,6.314400000005946,7.08299999999997,7.551800000004448]",,calibration,With Brainslug Difficult 2 No Money,10,8.40735,8.4179,5,1,0,FALSE,na,na,na,na,,,,,,,,,,,,,,,,,,,,,,,,,,,,,,,,,,0,0,0,0,1,,,,,,,,,,,,,,,,,,,,,,,
,,,,,,,,,,,,67fb8746a1f516fb0e54cfda,001,3,2025-04-15_07h07.24.532,avatar_quest_3AFC_legacy,2022.1.3,Win32,60.97560976,67fb8746a1f516fb0e54cfda,67fe37cb3bd870bba73819bd,67fe3b3a022cce8a95a1808e,,,,,,,,,,,,,,,,,,,,,,With Brainslug Difficult 2 No Money,12,images/assets/snowy_original.jpg,learning,20,images/assets/success.jpg,images/assets/gameover.jpg,,,,,,,,,,,,,0,2,2,3,1,,,,,,,,,,,,,,,,,,,,,,,,,,,,,,,,
,,,,,,,,,,,,67fb8746a1f516fb0e54cfda,001,3,2025-04-15_07h07.24.532,avatar_quest_3AFC_legacy,2022.1.3,Win32,60.97560976,67fb8746a1f516fb0e54cfda,67fe37cb3bd870bba73819bd,67fe3b3a022cce8a95a1808e,,,,,,,,,,,,,,,,,,,,,,No Brainslug No Barriers With Money,0,images/assets/snowy_money.jpg,learning,10,images/assets/success_money.jpg,images/assets/gameover.jpg,,,,,,,,,,,,,0,3,3,9,1,,,,,,,,,,,,,,,,,,,,,,,,,,,,,,,,
,,,,,,,,,,,,67fb8746a1f516fb0e54cfda,001,3,2025-04-15_07h07.24.532,avatar_quest_3AFC_legacy,2022.1.3,Win32,60.97560976,67fb8746a1f516fb0e54cfda,67fe37cb3bd870bba73819bd,67fe3b3a022cce8a95a1808e,,,,,,,,,,,,,,,,,,,,,,No Brainslug Difficult 1 No Money,6,images/assets/snowy_original.jpg,learning,20,images/assets/success.jpg,images/assets/gameover.jpg,,,,,,,,,,,,,0,4,4,6,1,,,,,,,,,,,,,,,,,,,,,,,,,,,,,,,,
,,,,,,,,,,,,67fb8746a1f516fb0e54cfda,001,3,2025-04-15_07h07.24.532,avatar_quest_3AFC_legacy,2022.1.3,Win32,60.97560976,67fb8746a1f516fb0e54cfda,67fe37cb3bd870bba73819bd,67fe3b3a022cce8a95a1808e,,,,,,,,,,,,,,,,,,,,,,With Brainslug No Barriers With Money,0,images/assets/snowy_money.jpg,learning,10,images/assets/success_money.jpg,images/assets/gameover.jpg,,,,,,,,,,,,,0,5,5,4,1,,,,,,,,,,,,,,,,,,,,,,,,,,,,,,,,
,,,,,,,,,,,,67fb8746a1f516fb0e54cfda,001,3,2025-04-15_07h07.24.532,avatar_quest_3AFC_legacy,2022.1.3,Win32,60.97560976,67fb8746a1f516fb0e54cfda,67fe37cb3bd870bba73819bd,67fe3b3a022cce8a95a1808e,,,,,,,,,,,,,,,,,,,,,,With Brainslug No Barriers No Money,0,images/assets/snowy_original.jpg,learning,10,images/assets/success.jpg,images/assets/gameover.jpg,,,,,,,,,,,,,0,6,6,5,1,,,,,,,,,,,,,,,,,,,,,,,,,,,,,,,,
,,,,,,,,,,,,67fb8746a1f516fb0e54cfda,001,3,2025-04-15_07h07.24.532,avatar_quest_3AFC_legacy,2022.1.3,Win32,60.97560976,67fb8746a1f516fb0e54cfda,67fe37cb3bd870bba73819bd,67fe3b3a022cce8a95a1808e,,,,,,,,,,,,,,,,,,,,,,With Brainslug Difficult 1 No Money,6,images/assets/snowy_original.jpg,learning,20,images/assets/success.jpg,images/assets/gameover.jpg,,,,,,,,,,,,,0,7,7,1,1,,,,,,,,,,,,,,,,,,,,,,,,,,,,,,,,
,,,,,,,,,,,,67fb8746a1f516fb0e54cfda,001,3,2025-04-15_07h07.24.532,avatar_quest_3AFC_legacy,2022.1.3,Win32,60.97560976,67fb8746a1f516fb0e54cfda,67fe37cb3bd870bba73819bd,67fe3b3a022cce8a95a1808e,,,,,,,,,,,,,,,,,,,,,,No Brainslug Difficult 2 With Money,12,images/assets/snowy_money.jpg,learning,20,images/assets/success_money.jpg,images/assets/gameover.jpg,,,,,,,,,,,,,0,8,8,7,1,,,,,,,,,,,,,,,,,,,,,,,,,,,,,,,,
,,,,,,,,,,,,67fb8746a1f516fb0e54cfda,001,3,2025-04-15_07h07.24.532,avatar_quest_3AFC_legacy,2022.1.3,Win32,60.97560976,67fb8746a1f516fb0e54cfda,67fe37cb3bd870bba73819bd,67fe3b3a022cce8a95a1808e,,,,,,,,,,,,,,,,,,,,,,With Brainslug Difficult 2 With Money,12,images/assets/snowy_money.jpg,learning,20,images/assets/success_money.jpg,images/assets/gameover.jpg,,,,,,,,,,,,,0,9,9,2,1,,,,,,,,,,,,,,,,,,,,,,,,,,,,,,,,
,,,,,,,,,,,,67fb8746a1f516fb0e54cfda,001,3,2025-04-15_07h07.24.532,avatar_quest_3AFC_legacy,2022.1.3,Win32,60.97560976,67fb8746a1f516fb0e54cfda,67fe37cb3bd870bba73819bd,67fe3b3a022cce8a95a1808e,,,,,,,,,,,,,,,,,,,,,,No Brainslug Difficult 2 No Money,12,images/assets/snowy_original.jpg,learning,20,images/assets/success.jpg,images/assets/gameover.jpg,,,,,,,,,,,,,0,10,10,8,1,,,,,,,,,,,,,,,,,,,,,,,,,,,,,,,,
,,,,,,,,,,,,67fb8746a1f516fb0e54cfda,001,3,2025-04-15_07h07.24.532,avatar_quest_3AFC_legacy,2022.1.3,Win32,60.97560976,67fb8746a1f516fb0e54cfda,67fe37cb3bd870bba73819bd,67fe3b3a022cce8a95a1808e,,,,,,,,,,,,,,,,,,,,,,,,,,,,,,,,,,,,,,,,,,,,,,,,,,,,,,,6,0,6,0,1,,,,,,,,,,,,,,,,,,
,,,,,,,,,,,,67fb8746a1f516fb0e54cfda,001,3,2025-04-15_07h07.24.532,avatar_quest_3AFC_legacy,2022.1.3,Win32,60.97560976,67fb8746a1f516fb0e54cfda,67fe37cb3bd870bba73819bd,67fe3b3a022cce8a95a1808e,,,,,,,,,,,,,,,,,,,,,,With Brainslug Difficult 1 With Money,6,images/assets/snowy_money.jpg,learning,20,images/assets/success_money.jpg,images/assets/gameover.jpg,,,,,,,,With Brainslug Difficult 2 With Money,With Brainslug Difficult 1 No Money,right,1.0574,"[""With Brainslug Difficult 1 No Money"",""With Brainslug Difficult 2 No Money""]",0,0,0,0,1,,,,,,,,,,,,,,,,,,,,,,,,,,,,,,,,
,,,,,,,,,,,,67fb8746a1f516fb0e54cfda,001,3,2025-04-15_07h07.24.532,avatar_quest_3AFC_legacy,2022.1.3,Win32,60.97560976,67fb8746a1f516fb0e54cfda,67fe37cb3bd870bba73819bd,67fe3b3a022cce8a95a1808e,,,,,,,,,,,,,,,,,,,,,,No Brainslug Difficult 2 With Money,12,images/assets/snowy_money.jpg,learning,20,images/assets/success_money.jpg,images/assets/gameover.jpg,,,,,,,,,,,,,0,1,1,7,1,,,,,,,,,,,,,,,,,,,,,,,,,,,,,,,,
,,,,,,,,,,,,67fb8746a1f516fb0e54cfda,001,3,2025-04-15_07h07.24.532,avatar_quest_3AFC_legacy,2022.1.3,Win32,60.97560976,67fb8746a1f516fb0e54cfda,67fe37cb3bd870bba73819bd,67fe3b3a022cce8a95a1808e,,,,,,,,,,,,,,,,,,,,,,With Brainslug No Barriers No Money,0,images/assets/snowy_original.jpg,learning,10,images/assets/success.jpg,images/assets/gameover.jpg,,,,,,,,,,,,,0,2,2,5,1,,,,,,,,,,,,,,,,,,,,,,,,,,,,,,,,
,,,,,,,,,,,,67fb8746a1f516fb0e54cfda,001,3,2025-04-15_07h07.24.532,avatar_quest_3AFC_legacy,2022.1.3,Win32,60.97560976,67fb8746a1f516fb0e54cfda,67fe37cb3bd870bba73819bd,67fe3b3a022cce8a95a1808e,,,,,,,,,,,,,,,,,,,,,,No Brainslug Difficult 2 No Money,12,images/assets/snowy_original.jpg,learning,20,images/assets/success.jpg,images/assets/gameover.jpg,,,,,,,,,,,,,0,3,3,8,1,,,,,,,,,,,,,,,,,,,,,,,,,,,,,,,,
,,,,,,,,,,,,67fb8746a1f516fb0e54cfda,001,3,2025-04-15_07h07.24.532,avatar_quest_3AFC_legacy,2022.1.3,Win32,60.97560976,67fb8746a1f516fb0e54cfda,67fe37cb3bd870bba73819bd,67fe3b3a022cce8a95a1808e,,,,,,,,,,,,,,,,,,,,,,With Brainslug Difficult 2 No Money,12,images/assets/snowy_original.jpg,learning,20,images/assets/success.jpg,images/assets/gameover.jpg,,,,,,,,,,,,,0,4,4,3,1,,,,,,,,,,,,,,,,,,,,,,,,,,,,,,,,
,,,,,,,,,,,,67fb8746a1f516fb0e54cfda,001,3,2025-04-15_07h07.24.532,avatar_quest_3AFC_legacy,2022.1.3,Win32,60.97560976,67fb8746a1f516fb0e54cfda,67fe37cb3bd870bba73819bd,67fe3b3a022cce8a95a1808e,"[""left"",""left"",""left"",""left""]","[0.2596000000015124,0.6971000000015124,0.9966000000015356,1.3662000000030048]",,calibration,With Brainslug Difficult 2 With Money,11,8.40735,8.4255,0,2,0,FALSE,na,na,na,na,,,,,,,,,,,,,,,,,,,,,,,,,,,,,,,,,,0,0,0,0,1,,,,,,,,,,,,,,,,,,,,,,,
,,,,,,,,,,,,67fb8746a1f516fb0e54cfda,001,3,2025-04-15_07h07.24.532,avatar_quest_3AFC_legacy,2022.1.3,Win32,60.97560976,67fb8746a1f516fb0e54cfda,67fe37cb3bd870bba73819bd,67fe3b3a022cce8a95a1808e,,,,,,,,,,,,,,,,,,,,,,With Brainslug Difficult 2 With Money,12,images/assets/snowy_money.jpg,learning,20,images/assets/success_money.jpg,images/assets/gameover.jpg,,,,,,,,,,,,,0,5,5,2,1,,,,,,,,,,,,,,,,,,,,,,,,,,,,,,,,
,,,,,,,,,,,,67fb8746a1f516fb0e54cfda,001,3,2025-04-15_07h07.24.532,avatar_quest_3AFC_legacy,2022.1.3,Win32,60.97560976,67fb8746a1f516fb0e54cfda,67fe37cb3bd870bba73819bd,67fe3b3a022cce8a95a1808e,,,,,,,,,,,,,,,,,,,,,,No Brainslug No Barriers With Money,0,images/assets/snowy_money.jpg,learning,10,images/assets/success_money.jpg,images/assets/gameover.jpg,,,,,,,,,,,,,0,6,6,9,1,,,,,,,,,,,,,,,,,,,,,,,,,,,,,,,,
,,,,,,,,,,,,67fb8746a1f516fb0e54cfda,001,3,2025-04-15_07h07.24.532,avatar_quest_3AFC_legacy,2022.1.3,Win32,60.97560976,67fb8746a1f516fb0e54cfda,67fe37cb3bd870bba73819bd,67fe3b3a022cce8a95a1808e,,,,,,,,,,,,,,,,,,,,,,No Brainslug No Barriers No Money,0,images/assets/snowy_original.jpg,learning,10,images/assets/success.jpg,images/assets/gameover.jpg,,,,,,,,,,,,,0,7,7,10,1,,,,,,,,,,,,,,,,,,,,,,,,,,,,,,,,
,,,,,,,,,,,,67fb8746a1f516fb0e54cfda,001,3,2025-04-15_07h07.24.532,avatar_quest_3AFC_legacy,2022.1.3,Win32,60.97560976,67fb8746a1f516fb0e54cfda,67fe37cb3bd870bba73819bd,67fe3b3a022cce8a95a1808e,,,,,,,,,,,,,,,,,,,,,,With Brainslug Difficult 1 No Money,6,images/assets/snowy_original.jpg,learning,20,images/assets/success.jpg,images/assets/gameover.jpg,,,,,,,,,,,,,0,8,8,1,1,,,,,,,,,,,,,,,,,,,,,,,,,,,,,,,,
,,,,,,,,,,,,67fb8746a1f516fb0e54cfda,001,3,2025-04-15_07h07.24.532,avatar_quest_3AFC_legacy,2022.1.3,Win32,60.97560976,67fb8746a1f516fb0e54cfda,67fe37cb3bd870bba73819bd,67fe3b3a022cce8a95a1808e,,,,,,,,,,,,,,,,,,,,,,With Brainslug No Barriers With Money,0,images/assets/snowy_money.jpg,learning,10,images/assets/success_money.jpg,images/assets/gameover.jpg,,,,,,,,,,,,,0,9,9,4,1,,,,,,,,,,,,,,,,,,,,,,,,,,,,,,,,
,,,,,,,,,,,,67fb8746a1f516fb0e54cfda,001,3,2025-04-15_07h07.24.532,avatar_quest_3AFC_legacy,2022.1.3,Win32,60.97560976,67fb8746a1f516fb0e54cfda,67fe37cb3bd870bba73819bd,67fe3b3a022cce8a95a1808e,,,,,,,,,,,,,,,,,,,,,,No Brainslug Difficult 1 No Money,6,images/assets/snowy_original.jpg,learning,20,images/assets/success.jpg,images/assets/gameover.jpg,,,,,,,,,,,,,0,10,10,6,1,,,,,,,,,,,,,,,,,,,,,,,,,,,,,,,,
,,,,,,,,,,,,67fb8746a1f516fb0e54cfda,001,3,2025-04-15_07h07.24.532,avatar_quest_3AFC_legacy,2022.1.3,Win32,60.97560976,67fb8746a1f516fb0e54cfda,67fe37cb3bd870bba73819bd,67fe3b3a022cce8a95a1808e,,,,,,,,,,,,,,,,,,,,,,,,,,,,,,,,,,,,,,,,,,,,,,,,,,,,,,,7,0,7,0,1,,,,,,,,,,,,,,,,,,
,,,,,,,,,,,,67fb8746a1f516fb0e54cfda,001,3,2025-04-15_07h07.24.532,avatar_quest_3AFC_legacy,2022.1.3,Win32,60.97560976,67fb8746a1f516fb0e54cfda,67fe37cb3bd870bba73819bd,67fe3b3a022cce8a95a1808e,,,,,,,,,,,,,,,,,,,,,,With Brainslug Difficult 1 With Money,6,images/assets/snowy_money.jpg,learning,20,images/assets/success_money.jpg,images/assets/gameover.jpg,,,,,,,,With Brainslug Difficult 1 No Money,With Brainslug Difficult 1 No Money,left,1.3397,"[""With Brainslug Difficult 2 No Money"",""With Brainslug Difficult 2 With Money""]",0,0,0,0,1,,,,,,,,,,,,,,,,,,,,,,,,,,,,,,,,
,,,,,,,,,,,,67fb8746a1f516fb0e54cfda,001,3,2025-04-15_07h07.24.532,avatar_quest_3AFC_legacy,2022.1.3,Win32,60.97560976,67fb8746a1f516fb0e54cfda,67fe37cb3bd870bba73819bd,67fe3b3a022cce8a95a1808e,,,,,,,,,,,,,,,,,,,,,,With Brainslug Difficult 2 No Money,12,images/assets/snowy_original.jpg,learning,20,images/assets/success.jpg,images/assets/gameover.jpg,,,,,,,,,,,,,0,1,1,3,1,,,,,,,,,,,,,,,,,,,,,,,,,,,,,,,,
,,,,,,,,,,,,67fb8746a1f516fb0e54cfda,001,3,2025-04-15_07h07.24.532,avatar_quest_3AFC_legacy,2022.1.3,Win32,60.97560976,67fb8746a1f516fb0e54cfda,67fe37cb3bd870bba73819bd,67fe3b3a022cce8a95a1808e,,,,,,,,,,,,,,,,,,,,,,With Brainslug Difficult 2 With Money,12,images/assets/snowy_money.jpg,learning,20,images/assets/success_money.jpg,images/assets/gameover.jpg,,,,,,,,,,,,,0,2,2,2,1,,,,,,,,,,,,,,,,,,,,,,,,,,,,,,,,
,,,,,,,,,,,,67fb8746a1f516fb0e54cfda,001,3,2025-04-15_07h07.24.532,avatar_quest_3AFC_legacy,2022.1.3,Win32,60.97560976,67fb8746a1f516fb0e54cfda,67fe37cb3bd870bba73819bd,67fe3b3a022cce8a95a1808e,,,,,,,,,,,,,,,,,,,,,,No Brainslug No Barriers With Money,0,images/assets/snowy_money.jpg,learning,10,images/assets/success_money.jpg,images/assets/gameover.jpg,,,,,,,,,,,,,0,3,3,9,1,,,,,,,,,,,,,,,,,,,,,,,,,,,,,,,,
,,,,,,,,,,,,67fb8746a1f516fb0e54cfda,001,3,2025-04-15_07h07.24.532,avatar_quest_3AFC_legacy,2022.1.3,Win32,60.97560976,67fb8746a1f516fb0e54cfda,67fe37cb3bd870bba73819bd,67fe3b3a022cce8a95a1808e,,,,,,,,,,,,,,,,,,,,,,With Brainslug No Barriers With Money,0,images/assets/snowy_money.jpg,learning,10,images/assets/success_money.jpg,images/assets/gameover.jpg,,,,,,,,,,,,,0,4,4,4,1,,,,,,,,,,,,,,,,,,,,,,,,,,,,,,,,
,,,,,,,,,,,,67fb8746a1f516fb0e54cfda,001,3,2025-04-15_07h07.24.532,avatar_quest_3AFC_legacy,2022.1.3,Win32,60.97560976,67fb8746a1f516fb0e54cfda,67fe37cb3bd870bba73819bd,67fe3b3a022cce8a95a1808e,,,,,,,,,,,,,,,,,,,,,,No Brainslug Difficult 1 No Money,6,images/assets/snowy_original.jpg,learning,20,images/assets/success.jpg,images/assets/gameover.jpg,,,,,,,,,,,,,0,5,5,6,1,,,,,,,,,,,,,,,,,,,,,,,,,,,,,,,,
,,,,,,,,,,,,67fb8746a1f516fb0e54cfda,001,3,2025-04-15_07h07.24.532,avatar_quest_3AFC_legacy,2022.1.3,Win32,60.97560976,67fb8746a1f516fb0e54cfda,67fe37cb3bd870bba73819bd,67fe3b3a022cce8a95a1808e,"[""left"",""right"",""right"",""left"",""left"",""right"",""right"",""right"",""left"",""left""]","[0.4661999999955242,1.5108999999984576,2.032899999998506,2.946999999999946,3.514499999999998,4.052699999995525,4.650999999999954,5.8478999999985035,6.417199999995489,7.582599999993988]",,calibration,With Brainslug Difficult 1 No Money,12,8.40735,8.4192,3,2,0,FALSE,na,na,na,na,,,,,,,,,,,,,,,,,,,,,,,,,,,,,,,,,,0,0,0,0,1,,,,,,,,,,,,,,,,,,,,,,,
,,,,,,,,,,,,67fb8746a1f516fb0e54cfda,001,3,2025-04-15_07h07.24.532,avatar_quest_3AFC_legacy,2022.1.3,Win32,60.97560976,67fb8746a1f516fb0e54cfda,67fe37cb3bd870bba73819bd,67fe3b3a022cce8a95a1808e,,,,,,,,,,,,,,,,,,,,,,With Brainslug Difficult 1 No Money,6,images/assets/snowy_original.jpg,learning,20,images/assets/success.jpg,images/assets/gameover.jpg,,,,,,,,,,,,,0,6,6,1,1,,,,,,,,,,,,,,,,,,,,,,,,,,,,,,,,
,,,,,,,,,,,,67fb8746a1f516fb0e54cfda,001,3,2025-04-15_07h07.24.532,avatar_quest_3AFC_legacy,2022.1.3,Win32,60.97560976,67fb8746a1f516fb0e54cfda,67fe37cb3bd870bba73819bd,67fe3b3a022cce8a95a1808e,,,,,,,,,,,,,,,,,,,,,,No Brainslug Difficult 2 No Money,12,images/assets/snowy_original.jpg,learning,20,images/assets/success.jpg,images/assets/gameover.jpg,,,,,,,,,,,,,0,7,7,8,1,,,,,,,,,,,,,,,,,,,,,,,,,,,,,,,,
,,,,,,,,,,,,67fb8746a1f516fb0e54cfda,001,3,2025-04-15_07h07.24.532,avatar_quest_3AFC_legacy,2022.1.3,Win32,60.97560976,67fb8746a1f516fb0e54cfda,67fe37cb3bd870bba73819bd,67fe3b3a022cce8a95a1808e,,,,,,,,,,,,,,,,,,,,,,No Brainslug Difficult 2 With Money,12,images/assets/snowy_money.jpg,learning,20,images/assets/success_money.jpg,images/assets/gameover.jpg,,,,,,,,,,,,,0,8,8,7,1,,,,,,,,,,,,,,,,,,,,,,,,,,,,,,,,
,,,,,,,,,,,,67fb8746a1f516fb0e54cfda,001,3,2025-04-15_07h07.24.532,avatar_quest_3AFC_legacy,2022.1.3,Win32,60.97560976,67fb8746a1f516fb0e54cfda,67fe37cb3bd870bba73819bd,67fe3b3a022cce8a95a1808e,,,,,,,,,,,,,,,,,,,,,,With Brainslug No Barriers No Money,0,images/assets/snowy_original.jpg,learning,10,images/assets/success.jpg,images/assets/gameover.jpg,,,,,,,,,,,,,0,9,9,5,1,,,,,,,,,,,,,,,,,,,,,,,,,,,,,,,,
,,,,,,,,,,,,67fb8746a1f516fb0e54cfda,001,3,2025-04-15_07h07.24.532,avatar_quest_3AFC_legacy,2022.1.3,Win32,60.97560976,67fb8746a1f516fb0e54cfda,67fe37cb3bd870bba73819bd,67fe3b3a022cce8a95a1808e,,,,,,,,,,,,,,,,,,,,,,No Brainslug No Barriers No Money,0,images/assets/snowy_original.jpg,learning,10,images/assets/success.jpg,images/assets/gameover.jpg,,,,,,,,,,,,,0,10,10,10,1,,,,,,,,,,,,,,,,,,,,,,,,,,,,,,,,
,,,,,,,,,,,,67fb8746a1f516fb0e54cfda,001,3,2025-04-15_07h07.24.532,avatar_quest_3AFC_legacy,2022.1.3,Win32,60.97560976,67fb8746a1f516fb0e54cfda,67fe37cb3bd870bba73819bd,67fe3b3a022cce8a95a1808e,,,,,,,,,,,,,,,,,,,,,,,,,,,,,,,,,,,,,,,,,,,,,,,,,,,,,,,8,0,8,0,1,,,,,,,,,,,,,,,,,,
,,,,,,,,,,,,67fb8746a1f516fb0e54cfda,001,3,2025-04-15_07h07.24.532,avatar_quest_3AFC_legacy,2022.1.3,Win32,60.97560976,67fb8746a1f516fb0e54cfda,67fe37cb3bd870bba73819bd,67fe3b3a022cce8a95a1808e,,,,,,,,,,,,,,,,,,,,,,With Brainslug No Barriers With Money,0,images/assets/snowy_money.jpg,learning,10,images/assets/success_money.jpg,images/assets/gameover.jpg,,,,,,,,With Brainslug Difficult 1 No Money,With Brainslug Difficult 1 No Money,left,0.7552,"[""With Brainslug Difficult 2 No Money"",""With Brainslug Difficult 2 With Money""]",0,0,0,4,1,,,,,,,,,,,,,,,,,,,,,,,,,,,,,,,,
,,,,,,,,,,,,67fb8746a1f516fb0e54cfda,001,3,2025-04-15_07h07.24.532,avatar_quest_3AFC_legacy,2022.1.3,Win32,60.97560976,67fb8746a1f516fb0e54cfda,67fe37cb3bd870bba73819bd,67fe3b3a022cce8a95a1808e,,,,,,,,,,,,,,,,,,,,,,With Brainslug Difficult 2 No Money,12,images/assets/snowy_original.jpg,learning,20,images/assets/success.jpg,images/assets/gameover.jpg,,,,,,,,,,,,,0,1,1,3,1,,,,,,,,,,,,,,,,,,,,,,,,,,,,,,,,
,,,,,,,,,,,,67fb8746a1f516fb0e54cfda,001,3,2025-04-15_07h07.24.532,avatar_quest_3AFC_legacy,2022.1.3,Win32,60.97560976,67fb8746a1f516fb0e54cfda,67fe37cb3bd870bba73819bd,67fe3b3a022cce8a95a1808e,,,,,,,,,,,,,,,,,,,,,,With Brainslug No Barriers No Money,0,images/assets/snowy_original.jpg,learning,10,images/assets/success.jpg,images/assets/gameover.jpg,,,,,,,,,,,,,0,2,2,5,1,,,,,,,,,,,,,,,,,,,,,,,,,,,,,,,,
,,,,,,,,,,,,67fb8746a1f516fb0e54cfda,001,3,2025-04-15_07h07.24.532,avatar_quest_3AFC_legacy,2022.1.3,Win32,60.97560976,67fb8746a1f516fb0e54cfda,67fe37cb3bd870bba73819bd,67fe3b3a022cce8a95a1808e,,,,,,,,,,,,,,,,,,,,,,With Brainslug Difficult 1 With Money,6,images/assets/snowy_money.jpg,learning,20,images/assets/success_money.jpg,images/assets/gameover.jpg,,,,,,,,,,,,,0,3,3,0,1,,,,,,,,,,,,,,,,,,,,,,,,,,,,,,,,
,,,,,,,,,,,,67fb8746a1f516fb0e54cfda,001,3,2025-04-15_07h07.24.532,avatar_quest_3AFC_legacy,2022.1.3,Win32,60.97560976,67fb8746a1f516fb0e54cfda,67fe37cb3bd870bba73819bd,67fe3b3a022cce8a95a1808e,"[""left"",""left"",""right"",""right"",""right"",""right"",""left"",""left"",""left"",""left"",""left"",""left"",""right"",""right"",""right"",""right"",""right""]","[0.52049999999997,0.8487000000029639,1.2847999999970057,1.9554999999999723,2.850500000000011,3.71729999999701,4.160299999996994,4.531200000002968,4.764999999999986,5.372600000001455,6.218799999997032,6.520700000002989,6.733600000001502,7.037100000001487,7.2724999999999795,7.471899999998527,7.972799999996994]",,calibration,With Brainslug Difficult 1 No Money,13,8.40735,8.4218,7,3,0,FALSE,na,na,na,na,,,,,,,,,,,,,,,,,,,,,,,,,,,,,,,,,,0,0,0,0,1,,,,,,,,,,,,,,,,,,,,,,,
,,,,,,,,,,,,67fb8746a1f516fb0e54cfda,001,3,2025-04-15_07h07.24.532,avatar_quest_3AFC_legacy,2022.1.3,Win32,60.97560976,67fb8746a1f516fb0e54cfda,67fe37cb3bd870bba73819bd,67fe3b3a022cce8a95a1808e,,,,,,,,,,,,,,,,,,,,,,With Brainslug Difficult 1 No Money,6,images/assets/snowy_original.jpg,learning,20,images/assets/success.jpg,images/assets/gameover.jpg,,,,,,,,,,,,,0,4,4,1,1,,,,,,,,,,,,,,,,,,,,,,,,,,,,,,,,
,,,,,,,,,,,,67fb8746a1f516fb0e54cfda,001,3,2025-04-15_07h07.24.532,avatar_quest_3AFC_legacy,2022.1.3,Win32,60.97560976,67fb8746a1f516fb0e54cfda,67fe37cb3bd870bba73819bd,67fe3b3a022cce8a95a1808e,,,,,,,,,,,,,,,,,,,,,,No Brainslug No Barriers No Money,0,images/assets/snowy_original.jpg,learning,10,images/assets/success.jpg,images/assets/gameover.jpg,,,,,,,,,,,,,0,5,5,10,1,,,,,,,,,,,,,,,,,,,,,,,,,,,,,,,,
,,,,,,,,,,,,67fb8746a1f516fb0e54cfda,001,3,2025-04-15_07h07.24.532,avatar_quest_3AFC_legacy,2022.1.3,Win32,60.97560976,67fb8746a1f516fb0e54cfda,67fe37cb3bd870bba73819bd,67fe3b3a022cce8a95a1808e,,,,,,,,,,,,,,,,,,,,,,No Brainslug No Barriers With Money,0,images/assets/snowy_money.jpg,learning,10,images/assets/success_money.jpg,images/assets/gameover.jpg,,,,,,,,,,,,,0,6,6,9,1,,,,,,,,,,,,,,,,,,,,,,,,,,,,,,,,
,,,,,,,,,,,,67fb8746a1f516fb0e54cfda,001,3,2025-04-15_07h07.24.532,avatar_quest_3AFC_legacy,2022.1.3,Win32,60.97560976,67fb8746a1f516fb0e54cfda,67fe37cb3bd870bba73819bd,67fe3b3a022cce8a95a1808e,,,,,,,,,,,,,,,,,,,,,,With Brainslug Difficult 2 With Money,12,images/assets/snowy_money.jpg,learning,20,images/assets/success_money.jpg,images/assets/gameover.jpg,,,,,,,,,,,,,0,7,7,2,1,,,,,,,,,,,,,,,,,,,,,,,,,,,,,,,,
,,,,,,,,,,,,67fb8746a1f516fb0e54cfda,001,3,2025-04-15_07h07.24.532,avatar_quest_3AFC_legacy,2022.1.3,Win32,60.97560976,67fb8746a1f516fb0e54cfda,67fe37cb3bd870bba73819bd,67fe3b3a022cce8a95a1808e,,,,,,,,,,,,,,,,,,,,,,No Brainslug Difficult 2 No Money,12,images/assets/snowy_original.jpg,learning,20,images/assets/success.jpg,images/assets/gameover.jpg,,,,,,,,,,,,,0,8,8,8,1,,,,,,,,,,,,,,,,,,,,,,,,,,,,,,,,
,,,,,,,,,,,,67fb8746a1f516fb0e54cfda,001,3,2025-04-15_07h07.24.532,avatar_quest_3AFC_legacy,2022.1.3,Win32,60.97560976,67fb8746a1f516fb0e54cfda,67fe37cb3bd870bba73819bd,67fe3b3a022cce8a95a1808e,,,,,,,,,,,,,,,,,,,,,,No Brainslug Difficult 2 With Money,12,images/assets/snowy_money.jpg,learning,20,images/assets/success_money.jpg,images/assets/gameover.jpg,,,,,,,,,,,,,0,9,9,7,1,,,,,,,,,,,,,,,,,,,,,,,,,,,,,,,,
,,,,,,,,,,,,67fb8746a1f516fb0e54cfda,001,3,2025-04-15_07h07.24.532,avatar_quest_3AFC_legacy,2022.1.3,Win32,60.97560976,67fb8746a1f516fb0e54cfda,67fe37cb3bd870bba73819bd,67fe3b3a022cce8a95a1808e,,,,,,,,,,,,,,,,,,,,,,No Brainslug Difficult 1 No Money,6,images/assets/snowy_original.jpg,learning,20,images/assets/success.jpg,images/assets/gameover.jpg,,,,,,,,,,,,,0,10,10,6,1,,,,,,,,,,,,,,,,,,,,,,,,,,,,,,,,
,,,,,,,,,,,,67fb8746a1f516fb0e54cfda,001,3,2025-04-15_07h07.24.532,avatar_quest_3AFC_legacy,2022.1.3,Win32,60.97560976,67fb8746a1f516fb0e54cfda,67fe37cb3bd870bba73819bd,67fe3b3a022cce8a95a1808e,,,,,,,,,,,,,,,,,,,,,,,,,,,,,,,,,,,,,,,,,,,,,,,,,,,,,,,9,0,9,0,1,,,,,,,,,,,,,,,,,,
,,,,,,,,,,,,67fb8746a1f516fb0e54cfda,001,3,2025-04-15_07h07.24.532,avatar_quest_3AFC_legacy,2022.1.3,Win32,60.97560976,67fb8746a1f516fb0e54cfda,67fe37cb3bd870bba73819bd,67fe3b3a022cce8a95a1808e,,,,,,,,,,,,,,,,,,,,,,No Brainslug No Barriers No Money,0,images/assets/snowy_original.jpg,learning,10,images/assets/success.jpg,images/assets/gameover.jpg,,,,,,,,With Brainslug Difficult 1 No Money,With Brainslug Difficult 1 No Money,left,0.0009,"[""With Brainslug Difficult 2 No Money"",""With Brainslug Difficult 2 With Money""]",0,0,0,10,1,,,,,,,,,,,,,,,,,,,,,,,,,,,,,,,,
,,,,,,,,,,,,67fb8746a1f516fb0e54cfda,001,3,2025-04-15_07h07.24.532,avatar_quest_3AFC_legacy,2022.1.3,Win32,60.97560976,67fb8746a1f516fb0e54cfda,67fe37cb3bd870bba73819bd,67fe3b3a022cce8a95a1808e,,,,,,,,,,,,,,,,,,,,,,With Brainslug No Barriers With Money,0,images/assets/snowy_money.jpg,learning,10,images/assets/success_money.jpg,images/assets/gameover.jpg,,,,,,,,,,,,,0,1,1,4,1,,,,,,,,,,,,,,,,,,,,,,,,,,,,,,,,
,,,,,,,,,,,,67fb8746a1f516fb0e54cfda,001,3,2025-04-15_07h07.24.532,avatar_quest_3AFC_legacy,2022.1.3,Win32,60.97560976,67fb8746a1f516fb0e54cfda,67fe37cb3bd870bba73819bd,67fe3b3a022cce8a95a1808e,,,,,,,,,,,,,,,,,,,,,,No Brainslug No Barriers With Money,0,images/assets/snowy_money.jpg,learning,10,images/assets/success_money.jpg,images/assets/gameover.jpg,,,,,,,,,,,,,0,2,2,9,1,,,,,,,,,,,,,,,,,,,,,,,,,,,,,,,,
,,,,,,,,,,,,67fb8746a1f516fb0e54cfda,001,3,2025-04-15_07h07.24.532,avatar_quest_3AFC_legacy,2022.1.3,Win32,60.97560976,67fb8746a1f516fb0e54cfda,67fe37cb3bd870bba73819bd,67fe3b3a022cce8a95a1808e,,,,,,,,,,,,,,,,,,,,,,No Brainslug Difficult 2 With Money,12,images/assets/snowy_money.jpg,learning,20,images/assets/success_money.jpg,images/assets/gameover.jpg,,,,,,,,,,,,,0,3,3,7,1,,,,,,,,,,,,,,,,,,,,,,,,,,,,,,,,
,,,,,,,,,,,,67fb8746a1f516fb0e54cfda,001,3,2025-04-15_07h07.24.532,avatar_quest_3AFC_legacy,2022.1.3,Win32,60.97560976,67fb8746a1f516fb0e54cfda,67fe37cb3bd870bba73819bd,67fe3b3a022cce8a95a1808e,,,,,,,,,,,,,,,,,,,,,,No Brainslug Difficult 2 No Money,12,images/assets/snowy_original.jpg,learning,20,images/assets/success.jpg,images/assets/gameover.jpg,,,,,,,,,,,,,0,4,4,8,1,,,,,,,,,,,,,,,,,,,,,,,,,,,,,,,,
,,,,,,,,,,,,67fb8746a1f516fb0e54cfda,001,3,2025-04-15_07h07.24.532,avatar_quest_3AFC_legacy,2022.1.3,Win32,60.97560976,67fb8746a1f516fb0e54cfda,67fe37cb3bd870bba73819bd,67fe3b3a022cce8a95a1808e,,,,,,,,,,,,,,,,,,,,,,With Brainslug Difficult 2 No Money,12,images/assets/snowy_original.jpg,learning,20,images/assets/success.jpg,images/assets/gameover.jpg,,,,,,,,,,,,,0,5,5,3,1,,,,,,,,,,,,,,,,,,,,,,,,,,,,,,,,
,,,,,,,,,,,,67fb8746a1f516fb0e54cfda,001,3,2025-04-15_07h07.24.532,avatar_quest_3AFC_legacy,2022.1.3,Win32,60.97560976,67fb8746a1f516fb0e54cfda,67fe37cb3bd870bba73819bd,67fe3b3a022cce8a95a1808e,"[""left"",""left"",""left"",""right"",""right"",""left"",""left"",""right"",""left"",""left"",""left"",""left"",""left""]","[0.646199999995531,0.8731999999955633,1.1055000000000064,1.502899999998533,2.142199999995512,2.540899999998544,3.5107999999970048,6.23789999999849,6.750399999998535,7.144799999997019,7.410000000000025,7.674799999997049,8.075199999995561]",,calibration,With Brainslug Difficult 1 No Money,14,8.40735,8.4174,5,2,0,FALSE,na,na,na,na,,,,,,,,,,,,,,,,,,,,,,,,,,,,,,,,,,0,0,0,0,1,,,,,,,,,,,,,,,,,,,,,,,
,,,,,,,,,,,,67fb8746a1f516fb0e54cfda,001,3,2025-04-15_07h07.24.532,avatar_quest_3AFC_legacy,2022.1.3,Win32,60.97560976,67fb8746a1f516fb0e54cfda,67fe37cb3bd870bba73819bd,67fe3b3a022cce8a95a1808e,,,,,,,,,,,,,,,,,,,,,,With Brainslug Difficult 1 No Money,6,images/assets/snowy_original.jpg,learning,20,images/assets/success.jpg,images/assets/gameover.jpg,,,,,,,,,,,,,0,6,6,1,1,,,,,,,,,,,,,,,,,,,,,,,,,,,,,,,,
,,,,,,,,,,,,67fb8746a1f516fb0e54cfda,001,3,2025-04-15_07h07.24.532,avatar_quest_3AFC_legacy,2022.1.3,Win32,60.97560976,67fb8746a1f516fb0e54cfda,67fe37cb3bd870bba73819bd,67fe3b3a022cce8a95a1808e,,,,,,,,,,,,,,,,,,,,,,With Brainslug No Barriers No Money,0,images/assets/snowy_original.jpg,learning,10,images/assets/success.jpg,images/assets/gameover.jpg,,,,,,,,,,,,,0,7,7,5,1,,,,,,,,,,,,,,,,,,,,,,,,,,,,,,,,
,,,,,,,,,,,,67fb8746a1f516fb0e54cfda,001,3,2025-04-15_07h07.24.532,avatar_quest_3AFC_legacy,2022.1.3,Win32,60.97560976,67fb8746a1f516fb0e54cfda,67fe37cb3bd870bba73819bd,67fe3b3a022cce8a95a1808e,,,,,,,,,,,,,,,,,,,,,,With Brainslug Difficult 2 With Money,12,images/assets/snowy_money.jpg,learning,20,images/assets/success_money.jpg,images/assets/gameover.jpg,,,,,,,,,,,,,0,8,8,2,1,,,,,,,,,,,,,,,,,,,,,,,,,,,,,,,,
,,,,,,,,,,,,67fb8746a1f516fb0e54cfda,001,3,2025-04-15_07h07.24.532,avatar_quest_3AFC_legacy,2022.1.3,Win32,60.97560976,67fb8746a1f516fb0e54cfda,67fe37cb3bd870bba73819bd,67fe3b3a022cce8a95a1808e,,,,,,,,,,,,,,,,,,,,,,No Brainslug Difficult 1 No Money,6,images/assets/snowy_original.jpg,learning,20,images/assets/success.jpg,images/assets/gameover.jpg,,,,,,,,,,,,,0,9,9,6,1,,,,,,,,,,,,,,,,,,,,,,,,,,,,,,,,
,,,,,,,,,,,,67fb8746a1f516fb0e54cfda,001,3,2025-04-15_07h07.24.532,avatar_quest_3AFC_legacy,2022.1.3,Win32,60.97560976,67fb8746a1f516fb0e54cfda,67fe37cb3bd870bba73819bd,67fe3b3a022cce8a95a1808e,,,,,,,,,,,,,,,,,,,,,,With Brainslug Difficult 1 With Money,6,images/assets/snowy_money.jpg,learning,20,images/assets/success_money.jpg,images/assets/gameover.jpg,,,,,,,,,,,,,0,10,10,0,1,,,,,,,,,,,,,,,,,,,,,,,,,,,,,,,,
,,,,,,,,,,,,67fb8746a1f516fb0e54cfda,001,3,2025-04-15_07h07.24.532,avatar_quest_3AFC_legacy,2022.1.3,Win32,60.97560976,67fb8746a1f516fb0e54cfda,67fe37cb3bd870bba73819bd,67fe3b3a022cce8a95a1808e,,,,,,,,,,,,,,,,,,,,,,,,,,,,,,,,,,,,,,,,,,,,,,,,,,,,,,,10,0,10,0,1,,,,,,,,,,,,,,,,,,
,,,,,,,,,,,,67fb8746a1f516fb0e54cfda,001,3,2025-04-15_07h07.24.532,avatar_quest_3AFC_legacy,2022.1.3,Win32,60.97560976,67fb8746a1f516fb0e54cfda,67fe37cb3bd870bba73819bd,67fe3b3a022cce8a95a1808e,,,,,,,,,,,,,,,,,,,,,,With Brainslug No Barriers With Money,0,images/assets/snowy_money.jpg,learning,10,images/assets/success_money.jpg,images/assets/gameover.jpg,,,,,,,,With Brainslug Difficult 1 No Money,With Brainslug Difficult 1 No Money,left,1.2054,"[""With Brainslug Difficult 2 No Money"",""With Brainslug Difficult 2 With Money""]",0,0,0,4,1,,,,,,,,,,,,,,,,,,,,,,,,,,,,,,,,
,,,,,,,,,,,,67fb8746a1f516fb0e54cfda,001,3,2025-04-15_07h07.24.532,avatar_quest_3AFC_legacy,2022.1.3,Win32,60.97560976,67fb8746a1f516fb0e54cfda,67fe37cb3bd870bba73819bd,67fe3b3a022cce8a95a1808e,"[""left"",""left"",""right"",""left"",""left"",""left"",""left"",""left"",""left"",""right"",""left"",""left"",""left""]","[0.29330000000447853,0.6856000000015001,1.5244000000059827,2.487100000001476,2.8838000000044985,3.216700000002959,3.793400000005988,4.632900000005918,4.838000000000022,5.580100000001551,6.427499999999952,6.873800000004451,7.2179000000059546]",,calibration,With Brainslug Difficult 1 No Money,15,8.40735,8.1206,6,2,0,TRUE,na,na,na,na,,,,,,,,,,,,,,,,,,,,,,,,,,,,,,,,,,0,0,0,0,1,,,,,,,,,,,,,,,,,,,,,,,
,,,,,,,,,,,,67fb8746a1f516fb0e54cfda,001,3,2025-04-15_07h07.24.532,avatar_quest_3AFC_legacy,2022.1.3,Win32,60.97560976,67fb8746a1f516fb0e54cfda,67fe37cb3bd870bba73819bd,67fe3b3a022cce8a95a1808e,,,,,,,,,,,,,,,,,,,,,,With Brainslug Difficult 1 No Money,6,images/assets/snowy_original.jpg,learning,20,images/assets/success.jpg,images/assets/gameover.jpg,,,,,,,,,,,,,0,1,1,1,1,,,,,,,,,,,,,,,,,,,,,,,,,,,,,,,,
,,,,,,,,,,,,67fb8746a1f516fb0e54cfda,001,3,2025-04-15_07h07.24.532,avatar_quest_3AFC_legacy,2022.1.3,Win32,60.97560976,67fb8746a1f516fb0e54cfda,67fe37cb3bd870bba73819bd,67fe3b3a022cce8a95a1808e,,,,,,,,,,,,,,,,,,,,,,No Brainslug Difficult 1 No Money,6,images/assets/snowy_original.jpg,learning,20,images/assets/success.jpg,images/assets/gameover.jpg,,,,,,,,,,,,,0,2,2,6,1,,,,,,,,,,,,,,,,,,,,,,,,,,,,,,,,
,,,,,,,,,,,,67fb8746a1f516fb0e54cfda,001,3,2025-04-15_07h07.24.532,avatar_quest_3AFC_legacy,2022.1.3,Win32,60.97560976,67fb8746a1f516fb0e54cfda,67fe37cb3bd870bba73819bd,67fe3b3a022cce8a95a1808e,,,,,,,,,,,,,,,,,,,,,,With Brainslug Difficult 1 With Money,6,images/assets/snowy_money.jpg,learning,20,images/assets/success_money.jpg,images/assets/gameover.jpg,,,,,,,,,,,,,0,3,3,0,1,,,,,,,,,,,,,,,,,,,,,,,,,,,,,,,,
,,,,,,,,,,,,67fb8746a1f516fb0e54cfda,001,3,2025-04-15_07h07.24.532,avatar_quest_3AFC_legacy,2022.1.3,Win32,60.97560976,67fb8746a1f516fb0e54cfda,67fe37cb3bd870bba73819bd,67fe3b3a022cce8a95a1808e,,,,,,,,,,,,,,,,,,,,,,With Brainslug Difficult 2 With Money,12,images/assets/snowy_money.jpg,learning,20,images/assets/success_money.jpg,images/assets/gameover.jpg,,,,,,,,,,,,,0,4,4,2,1,,,,,,,,,,,,,,,,,,,,,,,,,,,,,,,,
,,,,,,,,,,,,67fb8746a1f516fb0e54cfda,001,3,2025-04-15_07h07.24.532,avatar_quest_3AFC_legacy,2022.1.3,Win32,60.97560976,67fb8746a1f516fb0e54cfda,67fe37cb3bd870bba73819bd,67fe3b3a022cce8a95a1808e,,,,,,,,,,,,,,,,,,,,,,With Brainslug Difficult 2 No Money,12,images/assets/snowy_original.jpg,learning,20,images/assets/success.jpg,images/assets/gameover.jpg,,,,,,,,,,,,,0,5,5,3,1,,,,,,,,,,,,,,,,,,,,,,,,,,,,,,,,
,,,,,,,,,,,,67fb8746a1f516fb0e54cfda,001,3,2025-04-15_07h07.24.532,avatar_quest_3AFC_legacy,2022.1.3,Win32,60.97560976,67fb8746a1f516fb0e54cfda,67fe37cb3bd870bba73819bd,67fe3b3a022cce8a95a1808e,,,,,,,,,,,,,,,,,,,,,,No Brainslug Difficult 2 With Money,12,images/assets/snowy_money.jpg,learning,20,images/assets/success_money.jpg,images/assets/gameover.jpg,,,,,,,,,,,,,0,6,6,7,1,,,,,,,,,,,,,,,,,,,,,,,,,,,,,,,,
,,,,,,,,,,,,67fb8746a1f516fb0e54cfda,001,3,2025-04-15_07h07.24.532,avatar_quest_3AFC_legacy,2022.1.3,Win32,60.97560976,67fb8746a1f516fb0e54cfda,67fe37cb3bd870bba73819bd,67fe3b3a022cce8a95a1808e,,,,,,,,,,,,,,,,,,,,,,With Brainslug No Barriers No Money,0,images/assets/snowy_original.jpg,learning,10,images/assets/success.jpg,images/assets/gameover.jpg,,,,,,,,,,,,,0,7,7,5,1,,,,,,,,,,,,,,,,,,,,,,,,,,,,,,,,
,,,,,,,,,,,,67fb8746a1f516fb0e54cfda,001,3,2025-04-15_07h07.24.532,avatar_quest_3AFC_legacy,2022.1.3,Win32,60.97560976,67fb8746a1f516fb0e54cfda,67fe37cb3bd870bba73819bd,67fe3b3a022cce8a95a1808e,,,,,,,,,,,,,,,,,,,,,,No Brainslug No Barriers With Money,0,images/assets/snowy_money.jpg,learning,10,images/assets/success_money.jpg,images/assets/gameover.jpg,,,,,,,,,,,,,0,8,8,9,1,,,,,,,,,,,,,,,,,,,,,,,,,,,,,,,,
,,,,,,,,,,,,67fb8746a1f516fb0e54cfda,001,3,2025-04-15_07h07.24.532,avatar_quest_3AFC_legacy,2022.1.3,Win32,60.97560976,67fb8746a1f516fb0e54cfda,67fe37cb3bd870bba73819bd,67fe3b3a022cce8a95a1808e,,,,,,,,,,,,,,,,,,,,,,No Brainslug No Barriers No Money,0,images/assets/snowy_original.jpg,learning,10,images/assets/success.jpg,images/assets/gameover.jpg,,,,,,,,,,,,,0,9,9,10,1,,,,,,,,,,,,,,,,,,,,,,,,,,,,,,,,
,,,,,,,,,,,,67fb8746a1f516fb0e54cfda,001,3,2025-04-15_07h07.24.532,avatar_quest_3AFC_legacy,2022.1.3,Win32,60.97560976,67fb8746a1f516fb0e54cfda,67fe37cb3bd870bba73819bd,67fe3b3a022cce8a95a1808e,,,,,,,,,,,,,,,,,,,,,,No Brainslug Difficult 2 No Money,12,images/assets/snowy_original.jpg,learning,20,images/assets/success.jpg,images/assets/gameover.jpg,,,,,,,,,,,,,0,10,10,8,1,,,,,,,,,,,,,,,,,,,,,,,,,,,,,,,,
,,,,,,,,,,,,67fb8746a1f516fb0e54cfda,001,3,2025-04-15_07h07.24.532,avatar_quest_3AFC_legacy,2022.1.3,Win32,60.97560976,67fb8746a1f516fb0e54cfda,67fe37cb3bd870bba73819bd,67fe3b3a022cce8a95a1808e,,,,,,,,,,,,,,,,,,,,,,,,,,,,,,,,,,,,,,,,,,,,,,,,,,,,,,,11,0,11,0,1,,,,,,,,,,,,,,,,,,
,,,,,,,,,,,,67fb8746a1f516fb0e54cfda,001,3,2025-04-15_07h07.24.532,avatar_quest_3AFC_legacy,2022.1.3,Win32,60.97560976,67fb8746a1f516fb0e54cfda,67fe37cb3bd870bba73819bd,67fe3b3a022cce8a95a1808e,,,,,,,,,,,,,,,,,,,,,,,,,,,,,,,,,,,,,,,,,,,,,,,,,,,,,,,,,,,,0,0,0,0,1,1,With Brainslug Difficult 1 No Money,images/assets/With Brainslug Difficult 1 No Money.png,With Brainslug Difficult 2 No Money,images/assets/With Brainslug Difficult 2 No Money.png,With Brainslug Difficult 2 With Money,images/assets/With Brainslug Difficult 2 With Money.png,Achievement vs. money,,,,,
,,,,,,,,,,,,67fb8746a1f516fb0e54cfda,001,3,2025-04-15_07h07.24.532,avatar_quest_3AFC_legacy,2022.1.3,Win32,60.97560976,67fb8746a1f516fb0e54cfda,67fe37cb3bd870bba73819bd,67fe3b3a022cce8a95a1808e,,,,,,,,,,,,,,,,,,,,,,No Brainslug No Barriers With Money,0,images/assets/snowy_money.jpg,learning,10,images/assets/success_money.jpg,images/assets/gameover.jpg,,,,,,,,No Brainslug No Barriers No Money,No Brainslug No Barriers No Money,left,0.6017,"[""No Brainslug Difficult 1 No Money"",""No Brainslug No Barriers With Money""]",0,0,0,9,1,,,,,,,,,,,,,,,,,,,,,,,,,,,,,,,,
,,,,,,,,,,,,67fb8746a1f516fb0e54cfda,001,3,2025-04-15_07h07.24.532,avatar_quest_3AFC_legacy,2022.1.3,Win32,60.97560976,67fb8746a1f516fb0e54cfda,67fe37cb3bd870bba73819bd,67fe3b3a022cce8a95a1808e,,,,,,,,,,,,,,,,,,,,,,With Brainslug Difficult 2 No Money,12,images/assets/snowy_original.jpg,learning,20,images/assets/success.jpg,images/assets/gameover.jpg,,,,,,,,,,,,,0,1,1,3,1,,,,,,,,,,,,,,,,,,,,,,,,,,,,,,,,
,,,,,,,,,,,,67fb8746a1f516fb0e54cfda,001,3,2025-04-15_07h07.24.532,avatar_quest_3AFC_legacy,2022.1.3,Win32,60.97560976,67fb8746a1f516fb0e54cfda,67fe37cb3bd870bba73819bd,67fe3b3a022cce8a95a1808e,,,,,,,,,,,,,,,,,,,,,,With Brainslug Difficult 2 With Money,12,images/assets/snowy_money.jpg,learning,20,images/assets/success_money.jpg,images/assets/gameover.jpg,,,,,,,,,,,,,0,2,2,2,1,,,,,,,,,,,,,,,,,,,,,,,,,,,,,,,,
,,,,,,,,,,,,67fb8746a1f516fb0e54cfda,001,3,2025-04-15_07h07.24.532,avatar_quest_3AFC_legacy,2022.1.3,Win32,60.97560976,67fb8746a1f516fb0e54cfda,67fe37cb3bd870bba73819bd,67fe3b3a022cce8a95a1808e,,,,,,,,,,,,,,,,,,,,,,No Brainslug Difficult 2 No Money,12,images/assets/snowy_original.jpg,learning,20,images/assets/success.jpg,images/assets/gameover.jpg,,,,,,,,,,,,,0,3,3,8,1,,,,,,,,,,,,,,,,,,,,,,,,,,,,,,,,
,,,,,,,,,,,,67fb8746a1f516fb0e54cfda,001,3,2025-04-15_07h07.24.532,avatar_quest_3AFC_legacy,2022.1.3,Win32,60.97560976,67fb8746a1f516fb0e54cfda,67fe37cb3bd870bba73819bd,67fe3b3a022cce8a95a1808e,,,,,,,,,,,,,,,,,,,,,,With Brainslug No Barriers No Money,0,images/assets/snowy_original.jpg,learning,10,images/assets/success.jpg,images/assets/gameover.jpg,,,,,,,,,,,,,0,4,4,5,1,,,,,,,,,,,,,,,,,,,,,,,,,,,,,,,,
,,,,,,,,,,,,67fb8746a1f516fb0e54cfda,001,3,2025-04-15_07h07.24.532,avatar_quest_3AFC_legacy,2022.1.3,Win32,60.97560976,67fb8746a1f516fb0e54cfda,67fe37cb3bd870bba73819bd,67fe3b3a022cce8a95a1808e,,,,,,,,,,,,,,,,,,,,,,With Brainslug Difficult 1 No Money,6,images/assets/snowy_original.jpg,learning,20,images/assets/success.jpg,images/assets/gameover.jpg,,,,,,,,,,,,,0,5,5,1,1,,,,,,,,,,,,,,,,,,,,,,,,,,,,,,,,
,,,,,,,,,,,,67fb8746a1f516fb0e54cfda,001,3,2025-04-15_07h07.24.532,avatar_quest_3AFC_legacy,2022.1.3,Win32,60.97560976,67fb8746a1f516fb0e54cfda,67fe37cb3bd870bba73819bd,67fe3b3a022cce8a95a1808e,,,,,,,,,,,,,,,,,,,,,,With Brainslug No Barriers With Money,0,images/assets/snowy_money.jpg,learning,10,images/assets/success_money.jpg,images/assets/gameover.jpg,,,,,,,,,,,,,0,6,6,4,1,,,,,,,,,,,,,,,,,,,,,,,,,,,,,,,,
,,,,,,,,,,,,67fb8746a1f516fb0e54cfda,001,3,2025-04-15_07h07.24.532,avatar_quest_3AFC_legacy,2022.1.3,Win32,60.97560976,67fb8746a1f516fb0e54cfda,67fe37cb3bd870bba73819bd,67fe3b3a022cce8a95a1808e,,,,,,,,,,,,,,,,,,,,,,With Brainslug Difficult 1 With Money,6,images/assets/snowy_money.jpg,learning,20,images/assets/success_money.jpg,images/assets/gameover.jpg,,,,,,,,,,,,,0,7,7,0,1,,,,,,,,,,,,,,,,,,,,,,,,,,,,,,,,
,,,,,,,,,,,,67fb8746a1f516fb0e54cfda,001,3,2025-04-15_07h07.24.532,avatar_quest_3AFC_legacy,2022.1.3,Win32,60.97560976,67fb8746a1f516fb0e54cfda,67fe37cb3bd870bba73819bd,67fe3b3a022cce8a95a1808e,,,,,,,,,,,,,,,,,,,,,,No Brainslug Difficult 2 With Money,12,images/assets/snowy_money.jpg,learning,20,images/assets/success_money.jpg,images/assets/gameover.jpg,,,,,,,,,,,,,0,8,8,7,1,,,,,,,,,,,,,,,,,,,,,,,,,,,,,,,,
,,,,,,,,,,,,67fb8746a1f516fb0e54cfda,001,3,2025-04-15_07h07.24.532,avatar_quest_3AFC_legacy,2022.1.3,Win32,60.97560976,67fb8746a1f516fb0e54cfda,67fe37cb3bd870bba73819bd,67fe3b3a022cce8a95a1808e,"[""left"",""left"",""right"",""left""]","[2.2348000000044976,2.734899999998504,3.318200000002946,4.834000000000003]",,calibration,No Brainslug No Barriers No Money,16,6.72588,5.4304,4,0,0,TRUE,na,na,na,na,,,,,,,,,,,,,,,,,,,,,,,,,,,,,,,,,,0,0,0,0,1,,,,,,,,,,,,,,,,,,,,,,,
,,,,,,,,,,,,67fb8746a1f516fb0e54cfda,001,3,2025-04-15_07h07.24.532,avatar_quest_3AFC_legacy,2022.1.3,Win32,60.97560976,67fb8746a1f516fb0e54cfda,67fe37cb3bd870bba73819bd,67fe3b3a022cce8a95a1808e,,,,,,,,,,,,,,,,,,,,,,No Brainslug No Barriers No Money,0,images/assets/snowy_original.jpg,learning,10,images/assets/success.jpg,images/assets/gameover.jpg,,,,,,,,,,,,,0,9,9,10,1,,,,,,,,,,,,,,,,,,,,,,,,,,,,,,,,
,,,,,,,,,,,,67fb8746a1f516fb0e54cfda,001,3,2025-04-15_07h07.24.532,avatar_quest_3AFC_legacy,2022.1.3,Win32,60.97560976,67fb8746a1f516fb0e54cfda,67fe37cb3bd870bba73819bd,67fe3b3a022cce8a95a1808e,,,,,,,,,,,,,,,,,,,,,,No Brainslug Difficult 1 No Money,6,images/assets/snowy_original.jpg,learning,20,images/assets/success.jpg,images/assets/gameover.jpg,,,,,,,,,,,,,0,10,10,6,1,,,,,,,,,,,,,,,,,,,,,,,,,,,,,,,,
,,,,,,,,,,,,67fb8746a1f516fb0e54cfda,001,3,2025-04-15_07h07.24.532,avatar_quest_3AFC_legacy,2022.1.3,Win32,60.97560976,67fb8746a1f516fb0e54cfda,67fe37cb3bd870bba73819bd,67fe3b3a022cce8a95a1808e,,,,,,,,,,,,,,,,,,,,,,,,,,,,,,,,,,,,,,,,,,,,,,,,,,,,,,,0,0,0,0,1,,,,,,,,,,,,,,,,,,
,,,,,,,,,,,,67fb8746a1f516fb0e54cfda,001,3,2025-04-15_07h07.24.532,avatar_quest_3AFC_legacy,2022.1.3,Win32,60.97560976,67fb8746a1f516fb0e54cfda,67fe37cb3bd870bba73819bd,67fe3b3a022cce8a95a1808e,,,,,,,,,,,,,,,,,,,,,,With Brainslug Difficult 1 No Money,6,images/assets/snowy_original.jpg,learning,20,images/assets/success.jpg,images/assets/gameover.jpg,,,,,,,,No Brainslug No Barriers With Money,No Brainslug No Barriers No Money,right,1.4017,"[""No Brainslug No Barriers No Money"",""No Brainslug Difficult 1 No Money""]",0,0,0,1,1,,,,,,,,,,,,,,,,,,,,,,,,,,,,,,,,
,,,,,,,,,,,,67fb8746a1f516fb0e54cfda,001,3,2025-04-15_07h07.24.532,avatar_quest_3AFC_legacy,2022.1.3,Win32,60.97560976,67fb8746a1f516fb0e54cfda,67fe37cb3bd870bba73819bd,67fe3b3a022cce8a95a1808e,,,,,,,,,,,,,,,,,,,,,,With Brainslug No Barriers With Money,0,images/assets/snowy_money.jpg,learning,10,images/assets/success_money.jpg,images/assets/gameover.jpg,,,,,,,,,,,,,0,1,1,4,1,,,,,,,,,,,,,,,,,,,,,,,,,,,,,,,,
,,,,,,,,,,,,67fb8746a1f516fb0e54cfda,001,3,2025-04-15_07h07.24.532,avatar_quest_3AFC_legacy,2022.1.3,Win32,60.97560976,67fb8746a1f516fb0e54cfda,67fe37cb3bd870bba73819bd,67fe3b3a022cce8a95a1808e,,,,,,,,,,,,,,,,,,,,,,With Brainslug Difficult 2 No Money,12,images/assets/snowy_original.jpg,learning,20,images/assets/success.jpg,images/assets/gameover.jpg,,,,,,,,,,,,,0,2,2,3,1,,,,,,,,,,,,,,,,,,,,,,,,,,,,,,,,
,,,,,,,,,,,,67fb8746a1f516fb0e54cfda,001,3,2025-04-15_07h07.24.532,avatar_quest_3AFC_legacy,2022.1.3,Win32,60.97560976,67fb8746a1f516fb0e54cfda,67fe37cb3bd870bba73819bd,67fe3b3a022cce8a95a1808e,,,,,,,,,,,,,,,,,,,,,,With Brainslug Difficult 2 With Money,12,images/assets/snowy_money.jpg,learning,20,images/assets/success_money.jpg,images/assets/gameover.jpg,,,,,,,,,,,,,0,3,3,2,1,,,,,,,,,,,,,,,,,,,,,,,,,,,,,,,,
,,,,,,,,,,,,67fb8746a1f516fb0e54cfda,001,3,2025-04-15_07h07.24.532,avatar_quest_3AFC_legacy,2022.1.3,Win32,60.97560976,67fb8746a1f516fb0e54cfda,67fe37cb3bd870bba73819bd,67fe3b3a022cce8a95a1808e,"[""left"",""left"",""right""]","[1.4483999999985144,2.415899999998487,2.9831999999954633]",,calibration,No Brainslug No Barriers With Money,17,6.72588,5.4539,3,0,0,TRUE,na,na,na,na,,,,,,,,,,,,,,,,,,,,,,,,,,,,,,,,,,0,0,0,0,1,,,,,,,,,,,,,,,,,,,,,,,
,,,,,,,,,,,,67fb8746a1f516fb0e54cfda,001,3,2025-04-15_07h07.24.532,avatar_quest_3AFC_legacy,2022.1.3,Win32,60.97560976,67fb8746a1f516fb0e54cfda,67fe37cb3bd870bba73819bd,67fe3b3a022cce8a95a1808e,,,,,,,,,,,,,,,,,,,,,,No Brainslug No Barriers With Money,0,images/assets/snowy_money.jpg,learning,10,images/assets/success_money.jpg,images/assets/gameover.jpg,,,,,,,,,,,,,0,4,4,9,1,,,,,,,,,,,,,,,,,,,,,,,,,,,,,,,,
,,,,,,,,,,,,67fb8746a1f516fb0e54cfda,001,3,2025-04-15_07h07.24.532,avatar_quest_3AFC_legacy,2022.1.3,Win32,60.97560976,67fb8746a1f516fb0e54cfda,67fe37cb3bd870bba73819bd,67fe3b3a022cce8a95a1808e,,,,,,,,,,,,,,,,,,,,,,No Brainslug Difficult 1 No Money,6,images/assets/snowy_original.jpg,learning,20,images/assets/success.jpg,images/assets/gameover.jpg,,,,,,,,,,,,,0,5,5,6,1,,,,,,,,,,,,,,,,,,,,,,,,,,,,,,,,
,,,,,,,,,,,,67fb8746a1f516fb0e54cfda,001,3,2025-04-15_07h07.24.532,avatar_quest_3AFC_legacy,2022.1.3,Win32,60.97560976,67fb8746a1f516fb0e54cfda,67fe37cb3bd870bba73819bd,67fe3b3a022cce8a95a1808e,,,,,,,,,,,,,,,,,,,,,,No Brainslug Difficult 2 No Money,12,images/assets/snowy_original.jpg,learning,20,images/assets/success.jpg,images/assets/gameover.jpg,,,,,,,,,,,,,0,6,6,8,1,,,,,,,,,,,,,,,,,,,,,,,,,,,,,,,,
,,,,,,,,,,,,67fb8746a1f516fb0e54cfda,001,3,2025-04-15_07h07.24.532,avatar_quest_3AFC_legacy,2022.1.3,Win32,60.97560976,67fb8746a1f516fb0e54cfda,67fe37cb3bd870bba73819bd,67fe3b3a022cce8a95a1808e,,,,,,,,,,,,,,,,,,,,,,No Brainslug Difficult 2 With Money,12,images/assets/snowy_money.jpg,learning,20,images/assets/success_money.jpg,images/assets/gameover.jpg,,,,,,,,,,,,,0,7,7,7,1,,,,,,,,,,,,,,,,,,,,,,,,,,,,,,,,
,,,,,,,,,,,,67fb8746a1f516fb0e54cfda,001,3,2025-04-15_07h07.24.532,avatar_quest_3AFC_legacy,2022.1.3,Win32,60.97560976,67fb8746a1f516fb0e54cfda,67fe37cb3bd870bba73819bd,67fe3b3a022cce8a95a1808e,,,,,,,,,,,,,,,,,,,,,,No Brainslug No Barriers No Money,0,images/assets/snowy_original.jpg,learning,10,images/assets/success.jpg,images/assets/gameover.jpg,,,,,,,,,,,,,0,8,8,10,1,,,,,,,,,,,,,,,,,,,,,,,,,,,,,,,,
,,,,,,,,,,,,67fb8746a1f516fb0e54cfda,001,3,2025-04-15_07h07.24.532,avatar_quest_3AFC_legacy,2022.1.3,Win32,60.97560976,67fb8746a1f516fb0e54cfda,67fe37cb3bd870bba73819bd,67fe3b3a022cce8a95a1808e,,,,,,,,,,,,,,,,,,,,,,With Brainslug Difficult 1 With Money,6,images/assets/snowy_money.jpg,learning,20,images/assets/success_money.jpg,images/assets/gameover.jpg,,,,,,,,,,,,,0,9,9,0,1,,,,,,,,,,,,,,,,,,,,,,,,,,,,,,,,
,,,,,,,,,,,,67fb8746a1f516fb0e54cfda,001,3,2025-04-15_07h07.24.532,avatar_quest_3AFC_legacy,2022.1.3,Win32,60.97560976,67fb8746a1f516fb0e54cfda,67fe37cb3bd870bba73819bd,67fe3b3a022cce8a95a1808e,,,,,,,,,,,,,,,,,,,,,,With Brainslug No Barriers No Money,0,images/assets/snowy_original.jpg,learning,10,images/assets/success.jpg,images/assets/gameover.jpg,,,,,,,,,,,,,0,10,10,5,1,,,,,,,,,,,,,,,,,,,,,,,,,,,,,,,,
,,,,,,,,,,,,67fb8746a1f516fb0e54cfda,001,3,2025-04-15_07h07.24.532,avatar_quest_3AFC_legacy,2022.1.3,Win32,60.97560976,67fb8746a1f516fb0e54cfda,67fe37cb3bd870bba73819bd,67fe3b3a022cce8a95a1808e,,,,,,,,,,,,,,,,,,,,,,,,,,,,,,,,,,,,,,,,,,,,,,,,,,,,,,,1,0,1,0,1,,,,,,,,,,,,,,,,,,
,,,,,,,,,,,,67fb8746a1f516fb0e54cfda,001,3,2025-04-15_07h07.24.532,avatar_quest_3AFC_legacy,2022.1.3,Win32,60.97560976,67fb8746a1f516fb0e54cfda,67fe37cb3bd870bba73819bd,67fe3b3a022cce8a95a1808e,,,,,,,,,,,,,,,,,,,,,,With Brainslug Difficult 2 With Money,12,images/assets/snowy_money.jpg,learning,20,images/assets/success_money.jpg,images/assets/gameover.jpg,,,,,,,,No Brainslug No Barriers With Money,No Brainslug No Barriers No Money,right,0.644,"[""No Brainslug No Barriers No Money"",""No Brainslug Difficult 1 No Money""]",0,0,0,2,1,,,,,,,,,,,,,,,,,,,,,,,,,,,,,,,,
,,,,,,,,,,,,67fb8746a1f516fb0e54cfda,001,3,2025-04-15_07h07.24.532,avatar_quest_3AFC_legacy,2022.1.3,Win32,60.97560976,67fb8746a1f516fb0e54cfda,67fe37cb3bd870bba73819bd,67fe3b3a022cce8a95a1808e,,,,,,,,,,,,,,,,,,,,,,With Brainslug No Barriers No Money,0,images/assets/snowy_original.jpg,learning,10,images/assets/success.jpg,images/assets/gameover.jpg,,,,,,,,,,,,,0,1,1,5,1,,,,,,,,,,,,,,,,,,,,,,,,,,,,,,,,
,,,,,,,,,,,,67fb8746a1f516fb0e54cfda,001,3,2025-04-15_07h07.24.532,avatar_quest_3AFC_legacy,2022.1.3,Win32,60.97560976,67fb8746a1f516fb0e54cfda,67fe37cb3bd870bba73819bd,67fe3b3a022cce8a95a1808e,,,,,,,,,,,,,,,,,,,,,,With Brainslug Difficult 1 No Money,6,images/assets/snowy_original.jpg,learning,20,images/assets/success.jpg,images/assets/gameover.jpg,,,,,,,,,,,,,0,2,2,1,1,,,,,,,,,,,,,,,,,,,,,,,,,,,,,,,,
,,,,,,,,,,,,67fb8746a1f516fb0e54cfda,001,3,2025-04-15_07h07.24.532,avatar_quest_3AFC_legacy,2022.1.3,Win32,60.97560976,67fb8746a1f516fb0e54cfda,67fe37cb3bd870bba73819bd,67fe3b3a022cce8a95a1808e,,,,,,,,,,,,,,,,,,,,,,With Brainslug No Barriers With Money,0,images/assets/snowy_money.jpg,learning,10,images/assets/success_money.jpg,images/assets/gameover.jpg,,,,,,,,,,,,,0,3,3,4,1,,,,,,,,,,,,,,,,,,,,,,,,,,,,,,,,
,,,,,,,,,,,,67fb8746a1f516fb0e54cfda,001,3,2025-04-15_07h07.24.532,avatar_quest_3AFC_legacy,2022.1.3,Win32,60.97560976,67fb8746a1f516fb0e54cfda,67fe37cb3bd870bba73819bd,67fe3b3a022cce8a95a1808e,,,,,,,,,,,,,,,,,,,,,,With Brainslug Difficult 2 No Money,12,images/assets/snowy_original.jpg,learning,20,images/assets/success.jpg,images/assets/gameover.jpg,,,,,,,,,,,,,0,4,4,3,1,,,,,,,,,,,,,,,,,,,,,,,,,,,,,,,,
,,,,,,,,,,,,67fb8746a1f516fb0e54cfda,001,3,2025-04-15_07h07.24.532,avatar_quest_3AFC_legacy,2022.1.3,Win32,60.97560976,67fb8746a1f516fb0e54cfda,67fe37cb3bd870bba73819bd,67fe3b3a022cce8a95a1808e,,,,,,,,,,,,,,,,,,,,,,With Brainslug Difficult 1 With Money,6,images/assets/snowy_money.jpg,learning,20,images/assets/success_money.jpg,images/assets/gameover.jpg,,,,,,,,,,,,,0,5,5,0,1,,,,,,,,,,,,,,,,,,,,,,,,,,,,,,,,
,,,,,,,,,,,,67fb8746a1f516fb0e54cfda,001,3,2025-04-15_07h07.24.532,avatar_quest_3AFC_legacy,2022.1.3,Win32,60.97560976,67fb8746a1f516fb0e54cfda,67fe37cb3bd870bba73819bd,67fe3b3a022cce8a95a1808e,"[""left"",""right"",""left""]","[1.9342999999970516,3.2936999999955106,3.6745999999940295]",,calibration,No Brainslug No Barriers With Money,18,6.72588,5.9607,3,0,23,TRUE,na,na,na,na,,,,,,,,,,,,,,,,,,,,,,,,,,,,,,,,,,0,0,0,0,1,,,,,,,,,,,,,,,,,,,,,,,
,,,,,,,,,,,,67fb8746a1f516fb0e54cfda,001,3,2025-04-15_07h07.24.532,avatar_quest_3AFC_legacy,2022.1.3,Win32,60.97560976,67fb8746a1f516fb0e54cfda,67fe37cb3bd870bba73819bd,67fe3b3a022cce8a95a1808e,,,,,,,,,,,,,,,,,,,,,,No Brainslug No Barriers With Money,0,images/assets/snowy_money.jpg,learning,10,images/assets/success_money.jpg,images/assets/gameover.jpg,,,,,,,,,,,,,0,6,6,9,1,,,,,,,,,,,,,,,,,,,,,,,,,,,,,,,,
,,,,,,,,,,,,67fb8746a1f516fb0e54cfda,001,3,2025-04-15_07h07.24.532,avatar_quest_3AFC_legacy,2022.1.3,Win32,60.97560976,67fb8746a1f516fb0e54cfda,67fe37cb3bd870bba73819bd,67fe3b3a022cce8a95a1808e,,,,,,,,,,,,,,,,,,,,,,No Brainslug Difficult 1 No Money,6,images/assets/snowy_original.jpg,learning,20,images/assets/success.jpg,images/assets/gameover.jpg,,,,,,,,,,,,,0,7,7,6,1,,,,,,,,,,,,,,,,,,,,,,,,,,,,,,,,
,,,,,,,,,,,,67fb8746a1f516fb0e54cfda,001,3,2025-04-15_07h07.24.532,avatar_quest_3AFC_legacy,2022.1.3,Win32,60.97560976,67fb8746a1f516fb0e54cfda,67fe37cb3bd870bba73819bd,67fe3b3a022cce8a95a1808e,,,,,,,,,,,,,,,,,,,,,,No Brainslug Difficult 2 No Money,12,images/assets/snowy_original.jpg,learning,20,images/assets/success.jpg,images/assets/gameover.jpg,,,,,,,,,,,,,0,8,8,8,1,,,,,,,,,,,,,,,,,,,,,,,,,,,,,,,,
,,,,,,,,,,,,67fb8746a1f516fb0e54cfda,001,3,2025-04-15_07h07.24.532,avatar_quest_3AFC_legacy,2022.1.3,Win32,60.97560976,67fb8746a1f516fb0e54cfda,67fe37cb3bd870bba73819bd,67fe3b3a022cce8a95a1808e,,,,,,,,,,,,,,,,,,,,,,No Brainslug Difficult 2 With Money,12,images/assets/snowy_money.jpg,learning,20,images/assets/success_money.jpg,images/assets/gameover.jpg,,,,,,,,,,,,,0,9,9,7,1,,,,,,,,,,,,,,,,,,,,,,,,,,,,,,,,
,,,,,,,,,,,,67fb8746a1f516fb0e54cfda,001,3,2025-04-15_07h07.24.532,avatar_quest_3AFC_legacy,2022.1.3,Win32,60.97560976,67fb8746a1f516fb0e54cfda,67fe37cb3bd870bba73819bd,67fe3b3a022cce8a95a1808e,,,,,,,,,,,,,,,,,,,,,,No Brainslug No Barriers No Money,0,images/assets/snowy_original.jpg,learning,10,images/assets/success.jpg,images/assets/gameover.jpg,,,,,,,,,,,,,0,10,10,10,1,,,,,,,,,,,,,,,,,,,,,,,,,,,,,,,,
,,,,,,,,,,,,67fb8746a1f516fb0e54cfda,001,3,2025-04-15_07h07.24.532,avatar_quest_3AFC_legacy,2022.1.3,Win32,60.97560976,67fb8746a1f516fb0e54cfda,67fe37cb3bd870bba73819bd,67fe3b3a022cce8a95a1808e,,,,,,,,,,,,,,,,,,,,,,,,,,,,,,,,,,,,,,,,,,,,,,,,,,,,,,,2,0,2,0,1,,,,,,,,,,,,,,,,,,
,,,,,,,,,,,,67fb8746a1f516fb0e54cfda,001,3,2025-04-15_07h07.24.532,avatar_quest_3AFC_legacy,2022.1.3,Win32,60.97560976,67fb8746a1f516fb0e54cfda,67fe37cb3bd870bba73819bd,67fe3b3a022cce8a95a1808e,,,,,,,,,,,,,,,,,,,,,,With Brainslug No Barriers No Money,0,images/assets/snowy_original.jpg,learning,10,images/assets/success.jpg,images/assets/gameover.jpg,,,,,,,,No Brainslug No Barriers With Money,No Brainslug No Barriers No Money,right,0.6147,"[""No Brainslug No Barriers No Money"",""No Brainslug Difficult 1 No Money""]",0,0,0,5,1,,,,,,,,,,,,,,,,,,,,,,,,,,,,,,,,
,,,,,,,,,,,,67fb8746a1f516fb0e54cfda,001,3,2025-04-15_07h07.24.532,avatar_quest_3AFC_legacy,2022.1.3,Win32,60.97560976,67fb8746a1f516fb0e54cfda,67fe37cb3bd870bba73819bd,67fe3b3a022cce8a95a1808e,,,,,,,,,,,,,,,,,,,,,,With Brainslug No Barriers With Money,0,images/assets/snowy_money.jpg,learning,10,images/assets/success_money.jpg,images/assets/gameover.jpg,,,,,,,,,,,,,0,1,1,4,1,,,,,,,,,,,,,,,,,,,,,,,,,,,,,,,,
,,,,,,,,,,,,67fb8746a1f516fb0e54cfda,001,3,2025-04-15_07h07.24.532,avatar_quest_3AFC_legacy,2022.1.3,Win32,60.97560976,67fb8746a1f516fb0e54cfda,67fe37cb3bd870bba73819bd,67fe3b3a022cce8a95a1808e,,,,,,,,,,,,,,,,,,,,,,No Brainslug Difficult 1 No Money,6,images/assets/snowy_original.jpg,learning,20,images/assets/success.jpg,images/assets/gameover.jpg,,,,,,,,,,,,,0,2,2,6,1,,,,,,,,,,,,,,,,,,,,,,,,,,,,,,,,
,,,,,,,,,,,,67fb8746a1f516fb0e54cfda,001,3,2025-04-15_07h07.24.532,avatar_quest_3AFC_legacy,2022.1.3,Win32,60.97560976,67fb8746a1f516fb0e54cfda,67fe37cb3bd870bba73819bd,67fe3b3a022cce8a95a1808e,,,,,,,,,,,,,,,,,,,,,,No Brainslug Difficult 2 With Money,12,images/assets/snowy_money.jpg,learning,20,images/assets/success_money.jpg,images/assets/gameover.jpg,,,,,,,,,,,,,0,3,3,7,1,,,,,,,,,,,,,,,,,,,,,,,,,,,,,,,,
,,,,,,,,,,,,67fb8746a1f516fb0e54cfda,001,3,2025-04-15_07h07.24.532,avatar_quest_3AFC_legacy,2022.1.3,Win32,60.97560976,67fb8746a1f516fb0e54cfda,67fe37cb3bd870bba73819bd,67fe3b3a022cce8a95a1808e,,,,,,,,,,,,,,,,,,,,,,With Brainslug Difficult 2 With Money,12,images/assets/snowy_money.jpg,learning,20,images/assets/success_money.jpg,images/assets/gameover.jpg,,,,,,,,,,,,,0,4,4,2,1,,,,,,,,,,,,,,,,,,,,,,,,,,,,,,,,
,,,,,,,,,,,,67fb8746a1f516fb0e54cfda,001,3,2025-04-15_07h07.24.532,avatar_quest_3AFC_legacy,2022.1.3,Win32,60.97560976,67fb8746a1f516fb0e54cfda,67fe37cb3bd870bba73819bd,67fe3b3a022cce8a95a1808e,,,,,,,,,,,,,,,,,,,,,,With Brainslug Difficult 1 With Money,6,images/assets/snowy_money.jpg,learning,20,images/assets/success_money.jpg,images/assets/gameover.jpg,,,,,,,,,,,,,0,5,5,0,1,,,,,,,,,,,,,,,,,,,,,,,,,,,,,,,,
,,,,,,,,,,,,67fb8746a1f516fb0e54cfda,001,3,2025-04-15_07h07.24.532,avatar_quest_3AFC_legacy,2022.1.3,Win32,60.97560976,67fb8746a1f516fb0e54cfda,67fe37cb3bd870bba73819bd,67fe3b3a022cce8a95a1808e,,,,,,,,,,,,,,,,,,,,,,No Brainslug Difficult 2 No Money,12,images/assets/snowy_original.jpg,learning,20,images/assets/success.jpg,images/assets/gameover.jpg,,,,,,,,,,,,,0,6,6,8,1,,,,,,,,,,,,,,,,,,,,,,,,,,,,,,,,
,,,,,,,,,,,,67fb8746a1f516fb0e54cfda,001,3,2025-04-15_07h07.24.532,avatar_quest_3AFC_legacy,2022.1.3,Win32,60.97560976,67fb8746a1f516fb0e54cfda,67fe37cb3bd870bba73819bd,67fe3b3a022cce8a95a1808e,,,,,,,,,,,,,,,,,,,,,,With Brainslug Difficult 2 No Money,12,images/assets/snowy_original.jpg,learning,20,images/assets/success.jpg,images/assets/gameover.jpg,,,,,,,,,,,,,0,7,7,3,1,,,,,,,,,,,,,,,,,,,,,,,,,,,,,,,,
,,,,,,,,,,,,67fb8746a1f516fb0e54cfda,001,3,2025-04-15_07h07.24.532,avatar_quest_3AFC_legacy,2022.1.3,Win32,60.97560976,67fb8746a1f516fb0e54cfda,67fe37cb3bd870bba73819bd,67fe3b3a022cce8a95a1808e,,,,,,,,,,,,,,,,,,,,,,With Brainslug Difficult 1 No Money,6,images/assets/snowy_original.jpg,learning,20,images/assets/success.jpg,images/assets/gameover.jpg,,,,,,,,,,,,,0,8,8,1,1,,,,,,,,,,,,,,,,,,,,,,,,,,,,,,,,
,,,,,,,,,,,,67fb8746a1f516fb0e54cfda,001,3,2025-04-15_07h07.24.532,avatar_quest_3AFC_legacy,2022.1.3,Win32,60.97560976,67fb8746a1f516fb0e54cfda,67fe37cb3bd870bba73819bd,67fe3b3a022cce8a95a1808e,"[""left"",""right"",""left"",""right"",""left"",""right"",""left"",""left""]","[0.5303999999985081,0.9560999999940805,2.091299999996977,3.6358999999985144,5.235699999995518,5.65949999999998,6.009099999994078,6.3110000000000355]",,calibration,No Brainslug No Barriers With Money,19,6.72588,6.7321,8,0,95,FALSE,na,na,na,na,,,,,,,,,,,,,,,,,,,,,,,,,,,,,,,,,,0,0,0,0,1,,,,,,,,,,,,,,,,,,,,,,,
,,,,,,,,,,,,67fb8746a1f516fb0e54cfda,001,3,2025-04-15_07h07.24.532,avatar_quest_3AFC_legacy,2022.1.3,Win32,60.97560976,67fb8746a1f516fb0e54cfda,67fe37cb3bd870bba73819bd,67fe3b3a022cce8a95a1808e,,,,,,,,,,,,,,,,,,,,,,No Brainslug No Barriers With Money,0,images/assets/snowy_money.jpg,learning,10,images/assets/success_money.jpg,images/assets/gameover.jpg,,,,,,,,,,,,,0,9,9,9,1,,,,,,,,,,,,,,,,,,,,,,,,,,,,,,,,
,,,,,,,,,,,,67fb8746a1f516fb0e54cfda,001,3,2025-04-15_07h07.24.532,avatar_quest_3AFC_legacy,2022.1.3,Win32,60.97560976,67fb8746a1f516fb0e54cfda,67fe37cb3bd870bba73819bd,67fe3b3a022cce8a95a1808e,,,,,,,,,,,,,,,,,,,,,,No Brainslug No Barriers No Money,0,images/assets/snowy_original.jpg,learning,10,images/assets/success.jpg,images/assets/gameover.jpg,,,,,,,,,,,,,0,10,10,10,1,,,,,,,,,,,,,,,,,,,,,,,,,,,,,,,,
,,,,,,,,,,,,67fb8746a1f516fb0e54cfda,001,3,2025-04-15_07h07.24.532,avatar_quest_3AFC_legacy,2022.1.3,Win32,60.97560976,67fb8746a1f516fb0e54cfda,67fe37cb3bd870bba73819bd,67fe3b3a022cce8a95a1808e,,,,,,,,,,,,,,,,,,,,,,,,,,,,,,,,,,,,,,,,,,,,,,,,,,,,,,,3,0,3,0,1,,,,,,,,,,,,,,,,,,
,,,,,,,,,,,,67fb8746a1f516fb0e54cfda,001,3,2025-04-15_07h07.24.532,avatar_quest_3AFC_legacy,2022.1.3,Win32,60.97560976,67fb8746a1f516fb0e54cfda,67fe37cb3bd870bba73819bd,67fe3b3a022cce8a95a1808e,,,,,,,,,,,,,,,,,,,,,,With Brainslug Difficult 2 With Money,12,images/assets/snowy_money.jpg,learning,20,images/assets/success_money.jpg,images/assets/gameover.jpg,,,,,,,,No Brainslug No Barriers With Money,No Brainslug No Barriers No Money,right,0.7649,"[""No Brainslug No Barriers No Money"",""No Brainslug Difficult 1 No Money""]",0,0,0,2,1,,,,,,,,,,,,,,,,,,,,,,,,,,,,,,,,
,,,,,,,,,,,,67fb8746a1f516fb0e54cfda,001,3,2025-04-15_07h07.24.532,avatar_quest_3AFC_legacy,2022.1.3,Win32,60.97560976,67fb8746a1f516fb0e54cfda,67fe37cb3bd870bba73819bd,67fe3b3a022cce8a95a1808e,,,,,,,,,,,,,,,,,,,,,,No Brainslug Difficult 2 With Money,12,images/assets/snowy_money.jpg,learning,20,images/assets/success_money.jpg,images/assets/gameover.jpg,,,,,,,,,,,,,0,1,1,7,1,,,,,,,,,,,,,,,,,,,,,,,,,,,,,,,,
,,,,,,,,,,,,67fb8746a1f516fb0e54cfda,001,3,2025-04-15_07h07.24.532,avatar_quest_3AFC_legacy,2022.1.3,Win32,60.97560976,67fb8746a1f516fb0e54cfda,67fe37cb3bd870bba73819bd,67fe3b3a022cce8a95a1808e,,,,,,,,,,,,,,,,,,,,,,With Brainslug Difficult 1 With Money,6,images/assets/snowy_money.jpg,learning,20,images/assets/success_money.jpg,images/assets/gameover.jpg,,,,,,,,,,,,,0,2,2,0,1,,,,,,,,,,,,,,,,,,,,,,,,,,,,,,,,
,,,,,,,,,,,,67fb8746a1f516fb0e54cfda,001,3,2025-04-15_07h07.24.532,avatar_quest_3AFC_legacy,2022.1.3,Win32,60.97560976,67fb8746a1f516fb0e54cfda,67fe37cb3bd870bba73819bd,67fe3b3a022cce8a95a1808e,"[""left"",""right"",""left"",""left"",""right"",""right"",""left"",""right"",""left"",""right""]","[0.48239999999850625,0.9966000000014219,2.06149999999991,2.6119999999999663,3.2545000000000073,3.7308000000044785,4.099800000004393,4.620999999999981,5.023100000001477,5.57920000000297]",,calibration,No Brainslug No Barriers With Money,20,6.72588,5.9409,10,0,22,TRUE,na,na,na,na,,,,,,,,,,,,,,,,,,,,,,,,,,,,,,,,,,0,0,0,0,1,,,,,,,,,,,,,,,,,,,,,,,
,,,,,,,,,,,,67fb8746a1f516fb0e54cfda,001,3,2025-04-15_07h07.24.532,avatar_quest_3AFC_legacy,2022.1.3,Win32,60.97560976,67fb8746a1f516fb0e54cfda,67fe37cb3bd870bba73819bd,67fe3b3a022cce8a95a1808e,,,,,,,,,,,,,,,,,,,,,,No Brainslug No Barriers With Money,0,images/assets/snowy_money.jpg,learning,10,images/assets/success_money.jpg,images/assets/gameover.jpg,,,,,,,,,,,,,0,3,3,9,1,,,,,,,,,,,,,,,,,,,,,,,,,,,,,,,,
,,,,,,,,,,,,67fb8746a1f516fb0e54cfda,001,3,2025-04-15_07h07.24.532,avatar_quest_3AFC_legacy,2022.1.3,Win32,60.97560976,67fb8746a1f516fb0e54cfda,67fe37cb3bd870bba73819bd,67fe3b3a022cce8a95a1808e,,,,,,,,,,,,,,,,,,,,,,With Brainslug Difficult 2 No Money,12,images/assets/snowy_original.jpg,learning,20,images/assets/success.jpg,images/assets/gameover.jpg,,,,,,,,,,,,,0,4,4,3,1,,,,,,,,,,,,,,,,,,,,,,,,,,,,,,,,
,,,,,,,,,,,,67fb8746a1f516fb0e54cfda,001,3,2025-04-15_07h07.24.532,avatar_quest_3AFC_legacy,2022.1.3,Win32,60.97560976,67fb8746a1f516fb0e54cfda,67fe37cb3bd870bba73819bd,67fe3b3a022cce8a95a1808e,,,,,,,,,,,,,,,,,,,,,,No Brainslug Difficult 1 No Money,6,images/assets/snowy_original.jpg,learning,20,images/assets/success.jpg,images/assets/gameover.jpg,,,,,,,,,,,,,0,5,5,6,1,,,,,,,,,,,,,,,,,,,,,,,,,,,,,,,,
