instruction_mouse.x,instruction_mouse.y,instruction_mouse.leftButton,instruction_mouse.midButton,instruction_mouse.rightButton,instruction_mouse.clicked_name,introduce_general.thisRepN,introduce_general.thisTrialN,introduce_general.thisN,introduce_general.thisIndex,introduce_general.ran,thisInstruction,participant,session,game version,date,expName,psychopyVersion,OS,frameRate,PROLIFIC PID,STUDY ID,SESSION ID,move_resp.keys,move_resp.rt,end_resp.keys,phase,condition,trial_num,time_limit,completion_time,left_right_steps,number_of_obsticle_blocks,number_of_tree_blocks,quest_complete,responsivity_summary,av_inter_brainslug_intervals,proportion_jitter,jitter_direction_proportion_right,calibration_phase.thisRepN,calibration_phase.thisTrialN,calibration_phase.thisN,calibration_phase.thisIndex,calibration_phase.ran,BlockLabel,nObsticles,backgroundImage,phaseLabel,n_side_steps,success_im,gameover_im,success_condition,introduce_learning_or_choice.thisRepN,introduce_learning_or_choice.thisTrialN,introduce_learning_or_choice.thisN,introduce_learning_or_choice.thisIndex,introduce_learning_or_choice.ran,choice_resp.keys,chosen_quest,unchosen_quest,choice_resp_3afc.keys,choice_resp_3afc.rt,unchosen_quests,forced_choice_trial.thisRepN,forced_choice_trial.thisTrialN,forced_choice_trial.thisN,forced_choice_trial.thisIndex,forced_choice_trial.ran,enjoyment_slider.response,enjoyment_slider.rt,effort_slider.response,effort_slider.rt,show_loop2.thisRepN,show_loop2.thisTrialN,show_loop2.thisN,show_loop2.thisIndex,show_loop2.ran,trials_per_block.thisRepN,trials_per_block.thisTrialN,trials_per_block.thisN,trials_per_block.thisIndex,trials_per_block.ran
0.37109375,-0.399739583,1,0,0,instruction_button,0,0,0,0,1,images/instructions_part1_LSM_taskversion1/Slide1.JPG,67fc2a459a49ce63161903b2,001,3,2025-04-15_10h17.47.085,avatar_quest_3AFC_legacy,2022.1.3,Win32,59.88023952,67fc2a459a49ce63161903b2,67fe6e666cecbc9329ddf6d6,67fe72ec62e80c511bd32011,,,,,,,,,,,,,,,,,,,,,,,,,,,,,,,,,,,,,,,,,,,,,,,,,,,,,,,,,,,
0.37109375,-0.399739583,1,0,0,instruction_button,0,1,1,1,1,images/instructions_part1_LSM_taskversion1/Slide2.JPG,67fc2a459a49ce63161903b2,001,3,2025-04-15_10h17.47.085,avatar_quest_3AFC_legacy,2022.1.3,Win32,59.88023952,67fc2a459a49ce63161903b2,67fe6e666cecbc9329ddf6d6,67fe72ec62e80c511bd32011,,,,,,,,,,,,,,,,,,,,,,,,,,,,,,,,,,,,,,,,,,,,,,,,,,,,,,,,,,,
0.37109375,-0.399739583,1,0,0,instruction_button,0,2,2,2,1,images/instructions_part1_LSM_taskversion1/Slide3.JPG,67fc2a459a49ce63161903b2,001,3,2025-04-15_10h17.47.085,avatar_quest_3AFC_legacy,2022.1.3,Win32,59.88023952,67fc2a459a49ce63161903b2,67fe6e666cecbc9329ddf6d6,67fe72ec62e80c511bd32011,,,,,,,,,,,,,,,,,,,,,,,,,,,,,,,,,,,,,,,,,,,,,,,,,,,,,,,,,,,
0.360677083,-0.395833333,1,0,0,instruction_button,0,3,3,3,1,images/instructions_part1_LSM_taskversion1/Slide3.5.JPG,67fc2a459a49ce63161903b2,001,3,2025-04-15_10h17.47.085,avatar_quest_3AFC_legacy,2022.1.3,Win32,59.88023952,67fc2a459a49ce63161903b2,67fe6e666cecbc9329ddf6d6,67fe72ec62e80c511bd32011,,,,,,,,,,,,,,,,,,,,,,,,,,,,,,,,,,,,,,,,,,,,,,,,,,,,,,,,,,,
0.360677083,-0.395833333,1,0,0,instruction_button,0,4,4,4,1,images/instructions_part1_LSM_taskversion1/Slide4.JPG,67fc2a459a49ce63161903b2,001,3,2025-04-15_10h17.47.085,avatar_quest_3AFC_legacy,2022.1.3,Win32,59.88023952,67fc2a459a49ce63161903b2,67fe6e666cecbc9329ddf6d6,67fe72ec62e80c511bd32011,,,,,,,,,,,,,,,,,,,,,,,,,,,,,,,,,,,,,,,,,,,,,,,,,,,,,,,,,,,
0.359375,-0.39453125,1,0,0,instruction_button,0,5,5,5,1,images/instructions_part1_LSM_taskversion1/Slide6.5.JPG,67fc2a459a49ce63161903b2,001,3,2025-04-15_10h17.47.085,avatar_quest_3AFC_legacy,2022.1.3,Win32,59.88023952,67fc2a459a49ce63161903b2,67fe6e666cecbc9329ddf6d6,67fe72ec62e80c511bd32011,,,,,,,,,,,,,,,,,,,,,,,,,,,,,,,,,,,,,,,,,,,,,,,,,,,,,,,,,,,
,,,,,,,,,,,,67fc2a459a49ce63161903b2,001,3,2025-04-15_10h17.47.085,avatar_quest_3AFC_legacy,2022.1.3,Win32,59.88023952,67fc2a459a49ce63161903b2,67fe6e666cecbc9329ddf6d6,67fe72ec62e80c511bd32011,"[""right"",""right"",""right"",""left"",""left"",""left"",""right"",""right""]","[2.224599999964312,3.1605999999642336,3.6710999999643263,3.9370000000001255,4.903399999976273,5.805899999976191,6.320899999976291,7.176199999988285]",,calibration,No Brainslug No Barriers No Money,1,100,7.5338,6,0,126,TRUE,na,na,na,na,0,0,0,0,1,No Brainslug No Barriers No Money,0,images/assets/snowy_original.jpg,calibration,10,images/assets/success.jpg,images/assets/gameover.jpg,never,,,,,,,,,,,,,,,,,,,,,,,,,,,,,,
,,,,,,,,,,,,67fc2a459a49ce63161903b2,001,3,2025-04-15_10h17.47.085,avatar_quest_3AFC_legacy,2022.1.3,Win32,59.88023952,67fc2a459a49ce63161903b2,67fe6e666cecbc9329ddf6d6,67fe72ec62e80c511bd32011,"[""left"",""left"",""up"",""down"",""right""]","[1.4668000000119719,2.014399999976149,2.912600000023758,3.149600000023838,5.181899999976167]",,calibration,No Brainslug No Barriers No Money,2,100,5.4953,3,0,0,TRUE,na,na,na,na,0,1,1,1,1,No Brainslug No Barriers No Money,0,images/assets/snowy_original.jpg,calibration,10,images/assets/success.jpg,images/assets/gameover.jpg,never,,,,,,,,,,,,,,,,,,,,,,,,,,,,,,
,,,,,,,,,,,,67fc2a459a49ce63161903b2,001,3,2025-04-15_10h17.47.085,avatar_quest_3AFC_legacy,2022.1.3,Win32,59.88023952,67fc2a459a49ce63161903b2,67fe6e666cecbc9329ddf6d6,67fe72ec62e80c511bd32011,"[""right"",""right"",""right"",""right"",""right"",""right"",""right"",""right"",""left"",""left""]","[0.23550000000000182,0.9464000000357373,1.3138000000119519,1.4834000000357719,1.6637000000475837,1.8512000000475837,2.263500000000022,2.514300000011872,3.19760000002384,4.355000000000018]",,calibration,No Brainslug No Barriers No Money,3,100,6.7743,3,0,89,TRUE,na,na,na,na,0,2,2,2,1,No Brainslug No Barriers No Money,0,images/assets/snowy_original.jpg,calibration,10,images/assets/success.jpg,images/assets/gameover.jpg,never,,,,,,,,,,,,,,,,,,,,,,,,,,,,,,
0.41015625,-0.390625,1,0,0,instruction_button,,,,,,images/instructions_part2_LSM_taskversion3.jpg,67fc2a459a49ce63161903b2,001,3,2025-04-15_10h17.47.085,avatar_quest_3AFC_legacy,2022.1.3,Win32,59.88023952,67fc2a459a49ce63161903b2,67fe6e666cecbc9329ddf6d6,67fe72ec62e80c511bd32011,,,,,,,,,,,,,,,,,,,,,,,,,,,,,,0,0,0,0,1,,,,,,,,,,,,,,,,,,,,,,,,,
,,,,,,,,,,,,67fc2a459a49ce63161903b2,001,3,2025-04-15_10h17.47.085,avatar_quest_3AFC_legacy,2022.1.3,Win32,59.88023952,67fc2a459a49ce63161903b2,67fe6e666cecbc9329ddf6d6,67fe72ec62e80c511bd32011,,,,,,,,,,,,,,,,,,,,,,No Brainslug No Barriers With Money,0,images/assets/snowy_money.jpg,learning,10,images/assets/success_money.jpg,images/assets/gameover.jpg,,,,,,,,With Brainslug Difficult 2 No Money,With Brainslug Difficult 1 No Money,down,4.0783,"[""With Brainslug Difficult 1 No Money"",""With Brainslug Difficult 2 With Money""]",0,0,0,9,1,,,,,,,,,,,,,,
,,,,,,,,,,,,67fc2a459a49ce63161903b2,001,3,2025-04-15_10h17.47.085,avatar_quest_3AFC_legacy,2022.1.3,Win32,59.88023952,67fc2a459a49ce63161903b2,67fe6e666cecbc9329ddf6d6,67fe72ec62e80c511bd32011,,,,,,,,,,,,,,,,,,,,,,With Brainslug No Barriers No Money,0,images/assets/snowy_original.jpg,learning,10,images/assets/success.jpg,images/assets/gameover.jpg,,,,,,,,,,,,,0,1,1,5,1,,,,,,,,,,,,,,
,,,,,,,,,,,,67fc2a459a49ce63161903b2,001,3,2025-04-15_10h17.47.085,avatar_quest_3AFC_legacy,2022.1.3,Win32,59.88023952,67fc2a459a49ce63161903b2,67fe6e666cecbc9329ddf6d6,67fe72ec62e80c511bd32011,,,,,,,,,,,,,,,,,,,,,,With Brainslug Difficult 1 No Money,6,images/assets/snowy_original.jpg,learning,20,images/assets/success.jpg,images/assets/gameover.jpg,,,,,,,,,,,,,0,2,2,1,1,,,,,,,,,,,,,,
,,,,,,,,,,,,67fc2a459a49ce63161903b2,001,3,2025-04-15_10h17.47.085,avatar_quest_3AFC_legacy,2022.1.3,Win32,59.88023952,67fc2a459a49ce63161903b2,67fe6e666cecbc9329ddf6d6,67fe72ec62e80c511bd32011,,,,,,,,,,,,,,,,,,,,,,No Brainslug No Barriers No Money,0,images/assets/snowy_original.jpg,learning,10,images/assets/success.jpg,images/assets/gameover.jpg,,,,,,,,,,,,,0,3,3,10,1,,,,,,,,,,,,,,
,,,,,,,,,,,,67fc2a459a49ce63161903b2,001,3,2025-04-15_10h17.47.085,avatar_quest_3AFC_legacy,2022.1.3,Win32,59.88023952,67fc2a459a49ce63161903b2,67fe6e666cecbc9329ddf6d6,67fe72ec62e80c511bd32011,,,,,,,,,,,,,,,,,,,,,,With Brainslug Difficult 1 With Money,6,images/assets/snowy_money.jpg,learning,20,images/assets/success_money.jpg,images/assets/gameover.jpg,,,,,,,,,,,,,0,4,4,0,1,,,,,,,,,,,,,,
,,,,,,,,,,,,67fc2a459a49ce63161903b2,001,3,2025-04-15_10h17.47.085,avatar_quest_3AFC_legacy,2022.1.3,Win32,59.88023952,67fc2a459a49ce63161903b2,67fe6e666cecbc9329ddf6d6,67fe72ec62e80c511bd32011,,,,,,,,,,,,,,,,,,,,,,With Brainslug Difficult 2 With Money,12,images/assets/snowy_money.jpg,learning,20,images/assets/success_money.jpg,images/assets/gameover.jpg,,,,,,,,,,,,,0,5,5,2,1,,,,,,,,,,,,,,
,,,,,,,,,,,,67fc2a459a49ce63161903b2,001,3,2025-04-15_10h17.47.085,avatar_quest_3AFC_legacy,2022.1.3,Win32,59.88023952,67fc2a459a49ce63161903b2,67fe6e666cecbc9329ddf6d6,67fe72ec62e80c511bd32011,,,,,,,,,,,,,,,,,,,,,,With Brainslug No Barriers With Money,0,images/assets/snowy_money.jpg,learning,10,images/assets/success_money.jpg,images/assets/gameover.jpg,,,,,,,,,,,,,0,6,6,4,1,,,,,,,,,,,,,,
,,,,,,,,,,,,67fc2a459a49ce63161903b2,001,3,2025-04-15_10h17.47.085,avatar_quest_3AFC_legacy,2022.1.3,Win32,59.88023952,67fc2a459a49ce63161903b2,67fe6e666cecbc9329ddf6d6,67fe72ec62e80c511bd32011,,,,,,,,,,,,,,,,,,,,,,No Brainslug Difficult 1 No Money,6,images/assets/snowy_original.jpg,learning,20,images/assets/success.jpg,images/assets/gameover.jpg,,,,,,,,,,,,,0,7,7,6,1,,,,,,,,,,,,,,
,,,,,,,,,,,,67fc2a459a49ce63161903b2,001,3,2025-04-15_10h17.47.085,avatar_quest_3AFC_legacy,2022.1.3,Win32,59.88023952,67fc2a459a49ce63161903b2,67fe6e666cecbc9329ddf6d6,67fe72ec62e80c511bd32011,,,,,,,,,,,,,,,,,,,,,,No Brainslug Difficult 2 No Money,12,images/assets/snowy_original.jpg,learning,20,images/assets/success.jpg,images/assets/gameover.jpg,,,,,,,,,,,,,0,8,8,8,1,,,,,,,,,,,,,,
,,,,,,,,,,,,67fc2a459a49ce63161903b2,001,3,2025-04-15_10h17.47.085,avatar_quest_3AFC_legacy,2022.1.3,Win32,59.88023952,67fc2a459a49ce63161903b2,67fe6e666cecbc9329ddf6d6,67fe72ec62e80c511bd32011,"[""left"",""left"",""up"",""down"",""right"",""up"",""right"",""right"",""left"",""down"",""up"",""down"",""left"",""right"",""right"",""left"",""right"",""left""]","[1.026100000023689,1.4243000000117263,2.5443999999761218,3.3696999999879154,3.8691000000237636,4.619899999976042,5.07630000001177,5.967300000011846,6.489800000011883,6.728399999976091,7.168100000023742,7.524600000023838,8.023699999987912,8.079399999975976,8.58060000002365,8.83549999999991,9.192300000011755,9.57049999999981]",,calibration,With Brainslug Difficult 2 No Money,4,9.9017,9.9191,6,2,0,FALSE,na,na,na,na,,,,,,,,,,,,,,,,,,,,,,,,,,,,,,,,,,0,0,0,0,1,,,,,
,,,,,,,,,,,,67fc2a459a49ce63161903b2,001,3,2025-04-15_10h17.47.085,avatar_quest_3AFC_legacy,2022.1.3,Win32,59.88023952,67fc2a459a49ce63161903b2,67fe6e666cecbc9329ddf6d6,67fe72ec62e80c511bd32011,,,,,,,,,,,,,,,,,,,,,,With Brainslug Difficult 2 No Money,12,images/assets/snowy_original.jpg,learning,20,images/assets/success.jpg,images/assets/gameover.jpg,,,,,,,,,,,,,0,9,9,3,1,,,,,,,,,,,,,,
,,,,,,,,,,,,67fc2a459a49ce63161903b2,001,3,2025-04-15_10h17.47.085,avatar_quest_3AFC_legacy,2022.1.3,Win32,59.88023952,67fc2a459a49ce63161903b2,67fe6e666cecbc9329ddf6d6,67fe72ec62e80c511bd32011,,,,,,,,,,,,,,,,,,,,,,No Brainslug Difficult 2 With Money,12,images/assets/snowy_money.jpg,learning,20,images/assets/success_money.jpg,images/assets/gameover.jpg,,,,,,,,,,,,,0,10,10,7,1,,,,,,,,,,,,,,
,,,,,,,,,,,,67fc2a459a49ce63161903b2,001,3,2025-04-15_10h17.47.085,avatar_quest_3AFC_legacy,2022.1.3,Win32,59.88023952,67fc2a459a49ce63161903b2,67fe6e666cecbc9329ddf6d6,67fe72ec62e80c511bd32011,,,,,,,,,,,,,,,,,,,,,,,,,,,,,,,,,,,,,,,,,,,,,,,,,,,,,,,0,0,0,0,1
,,,,,,,,,,,,67fc2a459a49ce63161903b2,001,3,2025-04-15_10h17.47.085,avatar_quest_3AFC_legacy,2022.1.3,Win32,59.88023952,67fc2a459a49ce63161903b2,67fe6e666cecbc9329ddf6d6,67fe72ec62e80c511bd32011,,,,,,,,,,,,,,,,,,,,,,With Brainslug No Barriers With Money,0,images/assets/snowy_money.jpg,learning,10,images/assets/success_money.jpg,images/assets/gameover.jpg,,,,,,,,With Brainslug Difficult 1 No Money,With Brainslug Difficult 1 No Money,left,5.9264,"[""With Brainslug Difficult 2 No Money"",""With Brainslug Difficult 2 With Money""]",0,0,0,4,1,,,,,,,,,,,,,,
,,,,,,,,,,,,67fc2a459a49ce63161903b2,001,3,2025-04-15_10h17.47.085,avatar_quest_3AFC_legacy,2022.1.3,Win32,59.88023952,67fc2a459a49ce63161903b2,67fe6e666cecbc9329ddf6d6,67fe72ec62e80c511bd32011,,,,,,,,,,,,,,,,,,,,,,With Brainslug Difficult 2 No Money,12,images/assets/snowy_original.jpg,learning,20,images/assets/success.jpg,images/assets/gameover.jpg,,,,,,,,,,,,,0,1,1,3,1,,,,,,,,,,,,,,
,,,,,,,,,,,,67fc2a459a49ce63161903b2,001,3,2025-04-15_10h17.47.085,avatar_quest_3AFC_legacy,2022.1.3,Win32,59.88023952,67fc2a459a49ce63161903b2,67fe6e666cecbc9329ddf6d6,67fe72ec62e80c511bd32011,,,,,,,,,,,,,,,,,,,,,,No Brainslug Difficult 2 With Money,12,images/assets/snowy_money.jpg,learning,20,images/assets/success_money.jpg,images/assets/gameover.jpg,,,,,,,,,,,,,0,2,2,7,1,,,,,,,,,,,,,,
,,,,,,,,,,,,67fc2a459a49ce63161903b2,001,3,2025-04-15_10h17.47.085,avatar_quest_3AFC_legacy,2022.1.3,Win32,59.88023952,67fc2a459a49ce63161903b2,67fe6e666cecbc9329ddf6d6,67fe72ec62e80c511bd32011,,,,,,,,,,,,,,,,,,,,,,No Brainslug No Barriers No Money,0,images/assets/snowy_original.jpg,learning,10,images/assets/success.jpg,images/assets/gameover.jpg,,,,,,,,,,,,,0,3,3,10,1,,,,,,,,,,,,,,
,,,,,,,,,,,,67fc2a459a49ce63161903b2,001,3,2025-04-15_10h17.47.085,avatar_quest_3AFC_legacy,2022.1.3,Win32,59.88023952,67fc2a459a49ce63161903b2,67fe6e666cecbc9329ddf6d6,67fe72ec62e80c511bd32011,"[""right"",""right"",""right"",""up"",""right"",""down"",""right"",""up"",""up"",""left"",""right"",""right"",""up"",""up"",""right"",""down"",""down"",""right"",""right"",""left"",""right"",""up"",""down"",""right"",""up"",""up""]","[0.7712000000476564,1.1621000000236563,1.4961000000237163,1.947800000011739,2.436600000023873,2.786800000011908,3.1369999999999436,3.2467000000476673,3.855700000047591,3.895100000023831,4.1492000000475855,4.610900000035599,4.906200000047647,5.272500000000036,5.51090000003569,5.877400000035777,6.227600000023813,6.500700000047573,6.733499999999822,7.465800000011768,7.738800000011906,7.859200000047622,8.399900000035586,8.672900000035725,9.508800000011888,9.780800000011823]",,calibration,With Brainslug Difficult 1 No Money,5,9.9017,9.9091,2,1,0,FALSE,na,na,na,na,,,,,,,,,,,,,,,,,,,,,,,,,,,,,,,,,,0,0,0,0,1,,,,,
,,,,,,,,,,,,67fc2a459a49ce63161903b2,001,3,2025-04-15_10h17.47.085,avatar_quest_3AFC_legacy,2022.1.3,Win32,59.88023952,67fc2a459a49ce63161903b2,67fe6e666cecbc9329ddf6d6,67fe72ec62e80c511bd32011,,,,,,,,,,,,,,,,,,,,,,With Brainslug Difficult 1 No Money,6,images/assets/snowy_original.jpg,learning,20,images/assets/success.jpg,images/assets/gameover.jpg,,,,,,,,,,,,,0,4,4,1,1,,,,,,,,,,,,,,
,,,,,,,,,,,,67fc2a459a49ce63161903b2,001,3,2025-04-15_10h17.47.085,avatar_quest_3AFC_legacy,2022.1.3,Win32,59.88023952,67fc2a459a49ce63161903b2,67fe6e666cecbc9329ddf6d6,67fe72ec62e80c511bd32011,,,,,,,,,,,,,,,,,,,,,,With Brainslug Difficult 1 With Money,6,images/assets/snowy_money.jpg,learning,20,images/assets/success_money.jpg,images/assets/gameover.jpg,,,,,,,,,,,,,0,5,5,0,1,,,,,,,,,,,,,,
,,,,,,,,,,,,67fc2a459a49ce63161903b2,001,3,2025-04-15_10h17.47.085,avatar_quest_3AFC_legacy,2022.1.3,Win32,59.88023952,67fc2a459a49ce63161903b2,67fe6e666cecbc9329ddf6d6,67fe72ec62e80c511bd32011,,,,,,,,,,,,,,,,,,,,,,No Brainslug Difficult 1 No Money,6,images/assets/snowy_original.jpg,learning,20,images/assets/success.jpg,images/assets/gameover.jpg,,,,,,,,,,,,,0,6,6,6,1,,,,,,,,,,,,,,
,,,,,,,,,,,,67fc2a459a49ce63161903b2,001,3,2025-04-15_10h17.47.085,avatar_quest_3AFC_legacy,2022.1.3,Win32,59.88023952,67fc2a459a49ce63161903b2,67fe6e666cecbc9329ddf6d6,67fe72ec62e80c511bd32011,,,,,,,,,,,,,,,,,,,,,,With Brainslug Difficult 2 With Money,12,images/assets/snowy_money.jpg,learning,20,images/assets/success_money.jpg,images/assets/gameover.jpg,,,,,,,,,,,,,0,7,7,2,1,,,,,,,,,,,,,,
,,,,,,,,,,,,67fc2a459a49ce63161903b2,001,3,2025-04-15_10h17.47.085,avatar_quest_3AFC_legacy,2022.1.3,Win32,59.88023952,67fc2a459a49ce63161903b2,67fe6e666cecbc9329ddf6d6,67fe72ec62e80c511bd32011,,,,,,,,,,,,,,,,,,,,,,No Brainslug No Barriers With Money,0,images/assets/snowy_money.jpg,learning,10,images/assets/success_money.jpg,images/assets/gameover.jpg,,,,,,,,,,,,,0,8,8,9,1,,,,,,,,,,,,,,
,,,,,,,,,,,,67fc2a459a49ce63161903b2,001,3,2025-04-15_10h17.47.085,avatar_quest_3AFC_legacy,2022.1.3,Win32,59.88023952,67fc2a459a49ce63161903b2,67fe6e666cecbc9329ddf6d6,67fe72ec62e80c511bd32011,,,,,,,,,,,,,,,,,,,,,,No Brainslug Difficult 2 No Money,12,images/assets/snowy_original.jpg,learning,20,images/assets/success.jpg,images/assets/gameover.jpg,,,,,,,,,,,,,0,9,9,8,1,,,,,,,,,,,,,,
,,,,,,,,,,,,67fc2a459a49ce63161903b2,001,3,2025-04-15_10h17.47.085,avatar_quest_3AFC_legacy,2022.1.3,Win32,59.88023952,67fc2a459a49ce63161903b2,67fe6e666cecbc9329ddf6d6,67fe72ec62e80c511bd32011,,,,,,,,,,,,,,,,,,,,,,With Brainslug No Barriers No Money,0,images/assets/snowy_original.jpg,learning,10,images/assets/success.jpg,images/assets/gameover.jpg,,,,,,,,,,,,,0,10,10,5,1,,,,,,,,,,,,,,
,,,,,,,,,,,,67fc2a459a49ce63161903b2,001,3,2025-04-15_10h17.47.085,avatar_quest_3AFC_legacy,2022.1.3,Win32,59.88023952,67fc2a459a49ce63161903b2,67fe6e666cecbc9329ddf6d6,67fe72ec62e80c511bd32011,,,,,,,,,,,,,,,,,,,,,,,,,,,,,,,,,,,,,,,,,,,,,,,,,,,,,,,1,0,1,0,1
,,,,,,,,,,,,67fc2a459a49ce63161903b2,001,3,2025-04-15_10h17.47.085,avatar_quest_3AFC_legacy,2022.1.3,Win32,59.88023952,67fc2a459a49ce63161903b2,67fe6e666cecbc9329ddf6d6,67fe72ec62e80c511bd32011,,,,,,,,,,,,,,,,,,,,,,With Brainslug No Barriers No Money,0,images/assets/snowy_original.jpg,learning,10,images/assets/success.jpg,images/assets/gameover.jpg,,,,,,,,With Brainslug Difficult 2 With Money,With Brainslug Difficult 1 No Money,right,1.7684,"[""With Brainslug Difficult 1 No Money"",""With Brainslug Difficult 2 No Money""]",0,0,0,5,1,,,,,,,,,,,,,,
,,,,,,,,,,,,67fc2a459a49ce63161903b2,001,3,2025-04-15_10h17.47.085,avatar_quest_3AFC_legacy,2022.1.3,Win32,59.88023952,67fc2a459a49ce63161903b2,67fe6e666cecbc9329ddf6d6,67fe72ec62e80c511bd32011,,,,,,,,,,,,,,,,,,,,,,No Brainslug Difficult 2 No Money,12,images/assets/snowy_original.jpg,learning,20,images/assets/success.jpg,images/assets/gameover.jpg,,,,,,,,,,,,,0,1,1,8,1,,,,,,,,,,,,,,
,,,,,,,,,,,,67fc2a459a49ce63161903b2,001,3,2025-04-15_10h17.47.085,avatar_quest_3AFC_legacy,2022.1.3,Win32,59.88023952,67fc2a459a49ce63161903b2,67fe6e666cecbc9329ddf6d6,67fe72ec62e80c511bd32011,,,,,,,,,,,,,,,,,,,,,,No Brainslug Difficult 1 No Money,6,images/assets/snowy_original.jpg,learning,20,images/assets/success.jpg,images/assets/gameover.jpg,,,,,,,,,,,,,0,2,2,6,1,,,,,,,,,,,,,,
,,,,,,,,,,,,67fc2a459a49ce63161903b2,001,3,2025-04-15_10h17.47.085,avatar_quest_3AFC_legacy,2022.1.3,Win32,59.88023952,67fc2a459a49ce63161903b2,67fe6e666cecbc9329ddf6d6,67fe72ec62e80c511bd32011,,,,,,,,,,,,,,,,,,,,,,With Brainslug No Barriers With Money,0,images/assets/snowy_money.jpg,learning,10,images/assets/success_money.jpg,images/assets/gameover.jpg,,,,,,,,,,,,,0,3,3,4,1,,,,,,,,,,,,,,
,,,,,,,,,,,,67fc2a459a49ce63161903b2,001,3,2025-04-15_10h17.47.085,avatar_quest_3AFC_legacy,2022.1.3,Win32,59.88023952,67fc2a459a49ce63161903b2,67fe6e666cecbc9329ddf6d6,67fe72ec62e80c511bd32011,,,,,,,,,,,,,,,,,,,,,,With Brainslug Difficult 2 No Money,12,images/assets/snowy_original.jpg,learning,20,images/assets/success.jpg,images/assets/gameover.jpg,,,,,,,,,,,,,0,4,4,3,1,,,,,,,,,,,,,,
,,,,,,,,,,,,67fc2a459a49ce63161903b2,001,3,2025-04-15_10h17.47.085,avatar_quest_3AFC_legacy,2022.1.3,Win32,59.88023952,67fc2a459a49ce63161903b2,67fe6e666cecbc9329ddf6d6,67fe72ec62e80c511bd32011,"[""right"",""left"",""right"",""left"",""down"",""left"",""down"",""up"",""left"",""left"",""left"",""down"",""down"",""right"",""up"",""left"",""right"",""right"",""left""]","[0.5824999999999818,1.0631000000237236,1.8158000000119046,2.207600000023831,3.2309999999999945,3.718499999999949,4.264399999976149,4.547899999976153,5.382100000023684,5.8603000000118755,6.286300000011806,6.45619999998803,6.971800000011854,7.194100000023809,7.569399999975985,8.063600000023825,8.860500000000002,9.221800000011854,9.698699999988094]",,calibration,With Brainslug Difficult 2 With Money,6,9.9017,9.9124,5,3,0,FALSE,na,na,na,na,,,,,,,,,,,,,,,,,,,,,,,,,,,,,,,,,,0,0,0,0,1,,,,,
,,,,,,,,,,,,67fc2a459a49ce63161903b2,001,3,2025-04-15_10h17.47.085,avatar_quest_3AFC_legacy,2022.1.3,Win32,59.88023952,67fc2a459a49ce63161903b2,67fe6e666cecbc9329ddf6d6,67fe72ec62e80c511bd32011,,,,,,,,,,,,,,,,,,,,,,With Brainslug Difficult 2 With Money,12,images/assets/snowy_money.jpg,learning,20,images/assets/success_money.jpg,images/assets/gameover.jpg,,,,,,,,,,,,,0,5,5,2,1,,,,,,,,,,,,,,
,,,,,,,,,,,,67fc2a459a49ce63161903b2,001,3,2025-04-15_10h17.47.085,avatar_quest_3AFC_legacy,2022.1.3,Win32,59.88023952,67fc2a459a49ce63161903b2,67fe6e666cecbc9329ddf6d6,67fe72ec62e80c511bd32011,,,,,,,,,,,,,,,,,,,,,,With Brainslug Difficult 1 No Money,6,images/assets/snowy_original.jpg,learning,20,images/assets/success.jpg,images/assets/gameover.jpg,,,,,,,,,,,,,0,6,6,1,1,,,,,,,,,,,,,,
,,,,,,,,,,,,67fc2a459a49ce63161903b2,001,3,2025-04-15_10h17.47.085,avatar_quest_3AFC_legacy,2022.1.3,Win32,59.88023952,67fc2a459a49ce63161903b2,67fe6e666cecbc9329ddf6d6,67fe72ec62e80c511bd32011,,,,,,,,,,,,,,,,,,,,,,No Brainslug Difficult 2 With Money,12,images/assets/snowy_money.jpg,learning,20,images/assets/success_money.jpg,images/assets/gameover.jpg,,,,,,,,,,,,,0,7,7,7,1,,,,,,,,,,,,,,
,,,,,,,,,,,,67fc2a459a49ce63161903b2,001,3,2025-04-15_10h17.47.085,avatar_quest_3AFC_legacy,2022.1.3,Win32,59.88023952,67fc2a459a49ce63161903b2,67fe6e666cecbc9329ddf6d6,67fe72ec62e80c511bd32011,,,,,,,,,,,,,,,,,,,,,,With Brainslug Difficult 1 With Money,6,images/assets/snowy_money.jpg,learning,20,images/assets/success_money.jpg,images/assets/gameover.jpg,,,,,,,,,,,,,0,8,8,0,1,,,,,,,,,,,,,,
,,,,,,,,,,,,67fc2a459a49ce63161903b2,001,3,2025-04-15_10h17.47.085,avatar_quest_3AFC_legacy,2022.1.3,Win32,59.88023952,67fc2a459a49ce63161903b2,67fe6e666cecbc9329ddf6d6,67fe72ec62e80c511bd32011,,,,,,,,,,,,,,,,,,,,,,No Brainslug No Barriers With Money,0,images/assets/snowy_money.jpg,learning,10,images/assets/success_money.jpg,images/assets/gameover.jpg,,,,,,,,,,,,,0,9,9,9,1,,,,,,,,,,,,,,
,,,,,,,,,,,,67fc2a459a49ce63161903b2,001,3,2025-04-15_10h17.47.085,avatar_quest_3AFC_legacy,2022.1.3,Win32,59.88023952,67fc2a459a49ce63161903b2,67fe6e666cecbc9329ddf6d6,67fe72ec62e80c511bd32011,,,,,,,,,,,,,,,,,,,,,,No Brainslug No Barriers No Money,0,images/assets/snowy_original.jpg,learning,10,images/assets/success.jpg,images/assets/gameover.jpg,,,,,,,,,,,,,0,10,10,10,1,,,,,,,,,,,,,,
,,,,,,,,,,,,67fc2a459a49ce63161903b2,001,3,2025-04-15_10h17.47.085,avatar_quest_3AFC_legacy,2022.1.3,Win32,59.88023952,67fc2a459a49ce63161903b2,67fe6e666cecbc9329ddf6d6,67fe72ec62e80c511bd32011,,,,,,,,,,,,,,,,,,,,,,,,,,,,,,,,,,,,,,,,,,,,,,,,,,,,,,,2,0,2,0,1
,,,,,,,,,,,,67fc2a459a49ce63161903b2,001,3,2025-04-15_10h17.47.085,avatar_quest_3AFC_legacy,2022.1.3,Win32,59.88023952,67fc2a459a49ce63161903b2,67fe6e666cecbc9329ddf6d6,67fe72ec62e80c511bd32011,,,,,,,,,,,,,,,,,,,,,,With Brainslug No Barriers With Money,0,images/assets/snowy_money.jpg,learning,10,images/assets/success_money.jpg,images/assets/gameover.jpg,,,,,,,,With Brainslug Difficult 2 With Money,With Brainslug Difficult 1 No Money,right,1.1811,"[""With Brainslug Difficult 1 No Money"",""With Brainslug Difficult 2 No Money""]",0,0,0,4,1,,,,,,,,,,,,,,
,,,,,,,,,,,,67fc2a459a49ce63161903b2,001,3,2025-04-15_10h17.47.085,avatar_quest_3AFC_legacy,2022.1.3,Win32,59.88023952,67fc2a459a49ce63161903b2,67fe6e666cecbc9329ddf6d6,67fe72ec62e80c511bd32011,,,,,,,,,,,,,,,,,,,,,,With Brainslug No Barriers No Money,0,images/assets/snowy_original.jpg,learning,10,images/assets/success.jpg,images/assets/gameover.jpg,,,,,,,,,,,,,0,1,1,5,1,,,,,,,,,,,,,,
,,,,,,,,,,,,67fc2a459a49ce63161903b2,001,3,2025-04-15_10h17.47.085,avatar_quest_3AFC_legacy,2022.1.3,Win32,59.88023952,67fc2a459a49ce63161903b2,67fe6e666cecbc9329ddf6d6,67fe72ec62e80c511bd32011,,,,,,,,,,,,,,,,,,,,,,No Brainslug No Barriers No Money,0,images/assets/snowy_original.jpg,learning,10,images/assets/success.jpg,images/assets/gameover.jpg,,,,,,,,,,,,,0,2,2,10,1,,,,,,,,,,,,,,
,,,,,,,,,,,,67fc2a459a49ce63161903b2,001,3,2025-04-15_10h17.47.085,avatar_quest_3AFC_legacy,2022.1.3,Win32,59.88023952,67fc2a459a49ce63161903b2,67fe6e666cecbc9329ddf6d6,67fe72ec62e80c511bd32011,,,,,,,,,,,,,,,,,,,,,,No Brainslug No Barriers With Money,0,images/assets/snowy_money.jpg,learning,10,images/assets/success_money.jpg,images/assets/gameover.jpg,,,,,,,,,,,,,0,3,3,9,1,,,,,,,,,,,,,,
,,,,,,,,,,,,67fc2a459a49ce63161903b2,001,3,2025-04-15_10h17.47.085,avatar_quest_3AFC_legacy,2022.1.3,Win32,59.88023952,67fc2a459a49ce63161903b2,67fe6e666cecbc9329ddf6d6,67fe72ec62e80c511bd32011,,,,,,,,,,,,,,,,,,,,,,No Brainslug Difficult 2 With Money,12,images/assets/snowy_money.jpg,learning,20,images/assets/success_money.jpg,images/assets/gameover.jpg,,,,,,,,,,,,,0,4,4,7,1,,,,,,,,,,,,,,
