instruction_mouse.x,instruction_mouse.y,instruction_mouse.leftButton,instruction_mouse.midButton,instruction_mouse.rightButton,instruction_mouse.clicked_name,introduce_general.thisRepN,introduce_general.thisTrialN,introduce_general.thisN,introduce_general.thisIndex,introduce_general.ran,thisInstruction,participant,session,game version,date,expName,psychopyVersion,OS,frameRate,PROLIFIC PID,STUDY ID,SESSION ID,move_resp.keys,move_resp.rt,end_resp.keys,phase,condition,trial_num,time_limit,completion_time,left_right_steps,number_of_obsticle_blocks,number_of_tree_blocks,quest_complete,responsivity_summary,av_inter_brainslug_intervals,proportion_jitter,jitter_direction_proportion_right,calibration_phase.thisRepN,calibration_phase.thisTrialN,calibration_phase.thisN,calibration_phase.thisIndex,calibration_phase.ran,BlockLabel,nObsticles,backgroundImage,phaseLabel,n_side_steps,success_im,gameover_im,success_condition,introduce_learning_or_choice.thisRepN,introduce_learning_or_choice.thisTrialN,introduce_learning_or_choice.thisN,introduce_learning_or_choice.thisIndex,introduce_learning_or_choice.ran,choice_resp.keys,chosen_quest,unchosen_quest,choice_resp_3afc.keys,choice_resp_3afc.rt,unchosen_quests,forced_choice_trial.thisRepN,forced_choice_trial.thisTrialN,forced_choice_trial.thisN,forced_choice_trial.thisIndex,forced_choice_trial.ran,enjoyment_slider.response,enjoyment_slider.rt,effort_slider.response,effort_slider.rt,show_loop2.thisRepN,show_loop2.thisTrialN,show_loop2.thisN,show_loop2.thisIndex,show_loop2.ran,trials_per_block.thisRepN,trials_per_block.thisTrialN,trials_per_block.thisN,trials_per_block.thisIndex,trials_per_block.ran,decision_phase_AFC.thisRepN,decision_phase_AFC.thisTrialN,decision_phase_AFC.thisN,decision_phase_AFC.thisIndex,decision_phase_AFC.ran,blockN,BlockLabel1,questIm1,BlockLabel2,questIm2,BlockLabel3,questIm3,quest_condition,showForcedChoice.thisRepN,showForcedChoice.thisTrialN,showForcedChoice.thisN,showForcedChoice.thisIndex,showForcedChoice.ran
0.367592621,-0.415740797,1,0,0,instruction_button,0,0,0,0,1,images/instructions_part1_LSM_taskversion1/Slide1.JPG,67fc56e2b76355e0dcb30d27,001,3,2025-04-15_11h06.51.261,avatar_quest_3AFC_legacy,2022.1.3,Win32,59.88023952,67fc56e2b76355e0dcb30d27,67fe6e666cecbc9329ddf6d6,67fe70f12cef9cbc84311687,,,,,,,,,,,,,,,,,,,,,,,,,,,,,,,,,,,,,,,,,,,,,,,,,,,,,,,,,,,,,,,,,,,,,,,,,,,,,
0.359259288,-0.390740797,1,0,0,instruction_button,0,1,1,1,1,images/instructions_part1_LSM_taskversion1/Slide2.JPG,67fc56e2b76355e0dcb30d27,001,3,2025-04-15_11h06.51.261,avatar_quest_3AFC_legacy,2022.1.3,Win32,59.88023952,67fc56e2b76355e0dcb30d27,67fe6e666cecbc9329ddf6d6,67fe70f12cef9cbc84311687,,,,,,,,,,,,,,,,,,,,,,,,,,,,,,,,,,,,,,,,,,,,,,,,,,,,,,,,,,,,,,,,,,,,,,,,,,,,,
0.359259288,-0.390740797,1,0,0,instruction_button,0,2,2,2,1,images/instructions_part1_LSM_taskversion1/Slide3.JPG,67fc56e2b76355e0dcb30d27,001,3,2025-04-15_11h06.51.261,avatar_quest_3AFC_legacy,2022.1.3,Win32,59.88023952,67fc56e2b76355e0dcb30d27,67fe6e666cecbc9329ddf6d6,67fe70f12cef9cbc84311687,,,,,,,,,,,,,,,,,,,,,,,,,,,,,,,,,,,,,,,,,,,,,,,,,,,,,,,,,,,,,,,,,,,,,,,,,,,,,
0.359259288,-0.390740797,1,0,0,instruction_button,0,3,3,3,1,images/instructions_part1_LSM_taskversion1/Slide3.5.JPG,67fc56e2b76355e0dcb30d27,001,3,2025-04-15_11h06.51.261,avatar_quest_3AFC_legacy,2022.1.3,Win32,59.88023952,67fc56e2b76355e0dcb30d27,67fe6e666cecbc9329ddf6d6,67fe70f12cef9cbc84311687,,,,,,,,,,,,,,,,,,,,,,,,,,,,,,,,,,,,,,,,,,,,,,,,,,,,,,,,,,,,,,,,,,,,,,,,,,,,,
0.359259288,-0.390740797,1,0,0,instruction_button,0,4,4,4,1,images/instructions_part1_LSM_taskversion1/Slide4.JPG,67fc56e2b76355e0dcb30d27,001,3,2025-04-15_11h06.51.261,avatar_quest_3AFC_legacy,2022.1.3,Win32,59.88023952,67fc56e2b76355e0dcb30d27,67fe6e666cecbc9329ddf6d6,67fe70f12cef9cbc84311687,,,,,,,,,,,,,,,,,,,,,,,,,,,,,,,,,,,,,,,,,,,,,,,,,,,,,,,,,,,,,,,,,,,,,,,,,,,,,
0.359259288,-0.390740797,1,0,0,instruction_button,0,5,5,5,1,images/instructions_part1_LSM_taskversion1/Slide6.5.JPG,67fc56e2b76355e0dcb30d27,001,3,2025-04-15_11h06.51.261,avatar_quest_3AFC_legacy,2022.1.3,Win32,59.88023952,67fc56e2b76355e0dcb30d27,67fe6e666cecbc9329ddf6d6,67fe70f12cef9cbc84311687,,,,,,,,,,,,,,,,,,,,,,,,,,,,,,,,,,,,,,,,,,,,,,,,,,,,,,,,,,,,,,,,,,,,,,,,,,,,,
,,,,,,,,,,,,67fc56e2b76355e0dcb30d27,001,3,2025-04-15_11h06.51.261,avatar_quest_3AFC_legacy,2022.1.3,Win32,59.88023952,67fc56e2b76355e0dcb30d27,67fe6e666cecbc9329ddf6d6,67fe70f12cef9cbc84311687,"[""left"",""left"",""right"",""right"",""right""]","[1.8386000000238454,2.6145000000000067,3.6157000000476813,4.278900000035762,5.361300000011923]",,calibration,No Brainslug No Barriers No Money,1,100,5.5202,5,0,0,TRUE,na,na,na,na,0,0,0,0,1,No Brainslug No Barriers No Money,0,images/assets/snowy_original.jpg,calibration,10,images/assets/success.jpg,images/assets/gameover.jpg,never,,,,,,,,,,,,,,,,,,,,,,,,,,,,,,,,,,,,,,,,,,,,,,,,
,,,,,,,,,,,,67fc56e2b76355e0dcb30d27,001,3,2025-04-15_11h06.51.261,avatar_quest_3AFC_legacy,2022.1.3,Win32,59.88023952,67fc56e2b76355e0dcb30d27,67fe6e666cecbc9329ddf6d6,67fe70f12cef9cbc84311687,"[""right"",""right"",""right"",""right"",""left"",""left""]","[1.310800000011909,1.6311000000238352,1.9314999999999998,2.517600000023833,3.914899999976157,4.274800000011922]",,calibration,No Brainslug No Barriers No Money,2,100,6.9067,3,0,82,TRUE,na,na,na,na,0,1,1,1,1,No Brainslug No Barriers No Money,0,images/assets/snowy_original.jpg,calibration,10,images/assets/success.jpg,images/assets/gameover.jpg,never,,,,,,,,,,,,,,,,,,,,,,,,,,,,,,,,,,,,,,,,,,,,,,,,
,,,,,,,,,,,,67fc56e2b76355e0dcb30d27,001,3,2025-04-15_11h06.51.261,avatar_quest_3AFC_legacy,2022.1.3,Win32,59.88023952,67fc56e2b76355e0dcb30d27,67fe6e666cecbc9329ddf6d6,67fe70f12cef9cbc84311687,"[""right"",""right"",""left"",""left""]","[2.8701000000238395,4.699300000011917,5.4427000000476795,5.978300000011913]",,calibration,No Brainslug No Barriers No Money,3,100,8.4244,3,0,186,TRUE,na,na,na,na,0,2,2,2,1,No Brainslug No Barriers No Money,0,images/assets/snowy_original.jpg,calibration,10,images/assets/success.jpg,images/assets/gameover.jpg,never,,,,,,,,,,,,,,,,,,,,,,,,,,,,,,,,,,,,,,,,,,,,,,,,
0.359259288,-0.390740797,1,0,0,instruction_button,,,,,,images/instructions_part2_LSM_taskversion3.jpg,67fc56e2b76355e0dcb30d27,001,3,2025-04-15_11h06.51.261,avatar_quest_3AFC_legacy,2022.1.3,Win32,59.88023952,67fc56e2b76355e0dcb30d27,67fe6e666cecbc9329ddf6d6,67fe70f12cef9cbc84311687,,,,,,,,,,,,,,,,,,,,,,,,,,,,,,0,0,0,0,1,,,,,,,,,,,,,,,,,,,,,,,,,,,,,,,,,,,,,,,,,,,
,,,,,,,,,,,,67fc56e2b76355e0dcb30d27,001,3,2025-04-15_11h06.51.261,avatar_quest_3AFC_legacy,2022.1.3,Win32,59.88023952,67fc56e2b76355e0dcb30d27,67fe6e666cecbc9329ddf6d6,67fe70f12cef9cbc84311687,,,,,,,,,,,,,,,,,,,,,,No Brainslug No Barriers No Money,0,images/assets/snowy_original.jpg,learning,10,images/assets/success.jpg,images/assets/gameover.jpg,,,,,,,,With Brainslug Difficult 1 No Money,With Brainslug Difficult 1 No Money,left,18.9176,"[""With Brainslug Difficult 2 No Money"",""With Brainslug Difficult 2 With Money""]",0,0,0,10,1,,,,,,,,,,,,,,,,,,,,,,,,,,,,,,,,
,,,,,,,,,,,,67fc56e2b76355e0dcb30d27,001,3,2025-04-15_11h06.51.261,avatar_quest_3AFC_legacy,2022.1.3,Win32,59.88023952,67fc56e2b76355e0dcb30d27,67fe6e666cecbc9329ddf6d6,67fe70f12cef9cbc84311687,,,,,,,,,,,,,,,,,,,,,,With Brainslug Difficult 2 With Money,12,images/assets/snowy_money.jpg,learning,20,images/assets/success_money.jpg,images/assets/gameover.jpg,,,,,,,,,,,,,0,1,1,2,1,,,,,,,,,,,,,,,,,,,,,,,,,,,,,,,,
,,,,,,,,,,,,67fc56e2b76355e0dcb30d27,001,3,2025-04-15_11h06.51.261,avatar_quest_3AFC_legacy,2022.1.3,Win32,59.88023952,67fc56e2b76355e0dcb30d27,67fe6e666cecbc9329ddf6d6,67fe70f12cef9cbc84311687,,,,,,,,,,,,,,,,,,,,,,No Brainslug No Barriers With Money,0,images/assets/snowy_money.jpg,learning,10,images/assets/success_money.jpg,images/assets/gameover.jpg,,,,,,,,,,,,,0,2,2,9,1,,,,,,,,,,,,,,,,,,,,,,,,,,,,,,,,
,,,,,,,,,,,,67fc56e2b76355e0dcb30d27,001,3,2025-04-15_11h06.51.261,avatar_quest_3AFC_legacy,2022.1.3,Win32,59.88023952,67fc56e2b76355e0dcb30d27,67fe6e666cecbc9329ddf6d6,67fe70f12cef9cbc84311687,,,,,,,,,,,,,,,,,,,,,,With Brainslug No Barriers No Money,0,images/assets/snowy_original.jpg,learning,10,images/assets/success.jpg,images/assets/gameover.jpg,,,,,,,,,,,,,0,3,3,5,1,,,,,,,,,,,,,,,,,,,,,,,,,,,,,,,,
,,,,,,,,,,,,67fc56e2b76355e0dcb30d27,001,3,2025-04-15_11h06.51.261,avatar_quest_3AFC_legacy,2022.1.3,Win32,59.88023952,67fc56e2b76355e0dcb30d27,67fe6e666cecbc9329ddf6d6,67fe70f12cef9cbc84311687,,,,,,,,,,,,,,,,,,,,,,No Brainslug Difficult 2 With Money,12,images/assets/snowy_money.jpg,learning,20,images/assets/success_money.jpg,images/assets/gameover.jpg,,,,,,,,,,,,,0,4,4,7,1,,,,,,,,,,,,,,,,,,,,,,,,,,,,,,,,
,,,,,,,,,,,,67fc56e2b76355e0dcb30d27,001,3,2025-04-15_11h06.51.261,avatar_quest_3AFC_legacy,2022.1.3,Win32,59.88023952,67fc56e2b76355e0dcb30d27,67fe6e666cecbc9329ddf6d6,67fe70f12cef9cbc84311687,,,,,,,,,,,,,,,,,,,,,,With Brainslug Difficult 1 With Money,6,images/assets/snowy_money.jpg,learning,20,images/assets/success_money.jpg,images/assets/gameover.jpg,,,,,,,,,,,,,0,5,5,0,1,,,,,,,,,,,,,,,,,,,,,,,,,,,,,,,,
,,,,,,,,,,,,67fc56e2b76355e0dcb30d27,001,3,2025-04-15_11h06.51.261,avatar_quest_3AFC_legacy,2022.1.3,Win32,59.88023952,67fc56e2b76355e0dcb30d27,67fe6e666cecbc9329ddf6d6,67fe70f12cef9cbc84311687,"[""down"",""right"",""right"",""left"",""left"",""down"",""up"",""down""]","[1.4601000000238287,2.882800000011912,3.4596000000238405,6.346700000047662,7.07880000001191,8.395700000047668,8.87310000002384,9.724900000035746]",,calibration,With Brainslug Difficult 1 No Money,4,10.42565,10.4332,1,3,0,FALSE,na,na,na,na,,,,,,,,,,,,,,,,,,,,,,,,,,,,,,,,,,0,0,0,0,1,,,,,,,,,,,,,,,,,,,,,,,
,,,,,,,,,,,,67fc56e2b76355e0dcb30d27,001,3,2025-04-15_11h06.51.261,avatar_quest_3AFC_legacy,2022.1.3,Win32,59.88023952,67fc56e2b76355e0dcb30d27,67fe6e666cecbc9329ddf6d6,67fe70f12cef9cbc84311687,,,,,,,,,,,,,,,,,,,,,,With Brainslug Difficult 1 No Money,6,images/assets/snowy_original.jpg,learning,20,images/assets/success.jpg,images/assets/gameover.jpg,,,,,,,,,,,,,0,6,6,1,1,,,,,,,,,,,,,,,,,,,,,,,,,,,,,,,,
,,,,,,,,,,,,67fc56e2b76355e0dcb30d27,001,3,2025-04-15_11h06.51.261,avatar_quest_3AFC_legacy,2022.1.3,Win32,59.88023952,67fc56e2b76355e0dcb30d27,67fe6e666cecbc9329ddf6d6,67fe70f12cef9cbc84311687,,,,,,,,,,,,,,,,,,,,,,No Brainslug Difficult 2 No Money,12,images/assets/snowy_original.jpg,learning,20,images/assets/success.jpg,images/assets/gameover.jpg,,,,,,,,,,,,,0,7,7,8,1,,,,,,,,,,,,,,,,,,,,,,,,,,,,,,,,
,,,,,,,,,,,,67fc56e2b76355e0dcb30d27,001,3,2025-04-15_11h06.51.261,avatar_quest_3AFC_legacy,2022.1.3,Win32,59.88023952,67fc56e2b76355e0dcb30d27,67fe6e666cecbc9329ddf6d6,67fe70f12cef9cbc84311687,,,,,,,,,,,,,,,,,,,,,,No Brainslug Difficult 1 No Money,6,images/assets/snowy_original.jpg,learning,20,images/assets/success.jpg,images/assets/gameover.jpg,,,,,,,,,,,,,0,8,8,6,1,,,,,,,,,,,,,,,,,,,,,,,,,,,,,,,,
,,,,,,,,,,,,67fc56e2b76355e0dcb30d27,001,3,2025-04-15_11h06.51.261,avatar_quest_3AFC_legacy,2022.1.3,Win32,59.88023952,67fc56e2b76355e0dcb30d27,67fe6e666cecbc9329ddf6d6,67fe70f12cef9cbc84311687,,,,,,,,,,,,,,,,,,,,,,With Brainslug Difficult 2 No Money,12,images/assets/snowy_original.jpg,learning,20,images/assets/success.jpg,images/assets/gameover.jpg,,,,,,,,,,,,,0,9,9,3,1,,,,,,,,,,,,,,,,,,,,,,,,,,,,,,,,
,,,,,,,,,,,,67fc56e2b76355e0dcb30d27,001,3,2025-04-15_11h06.51.261,avatar_quest_3AFC_legacy,2022.1.3,Win32,59.88023952,67fc56e2b76355e0dcb30d27,67fe6e666cecbc9329ddf6d6,67fe70f12cef9cbc84311687,,,,,,,,,,,,,,,,,,,,,,With Brainslug No Barriers With Money,0,images/assets/snowy_money.jpg,learning,10,images/assets/success_money.jpg,images/assets/gameover.jpg,,,,,,,,,,,,,0,10,10,4,1,,,,,,,,,,,,,,,,,,,,,,,,,,,,,,,,
,,,,,,,,,,,,67fc56e2b76355e0dcb30d27,001,3,2025-04-15_11h06.51.261,avatar_quest_3AFC_legacy,2022.1.3,Win32,59.88023952,67fc56e2b76355e0dcb30d27,67fe6e666cecbc9329ddf6d6,67fe70f12cef9cbc84311687,,,,,,,,,,,,,,,,,,,,,,,,,,,,,,,,,,,,,,,,,,,,,,,,,,,,,,,0,0,0,0,1,,,,,,,,,,,,,,,,,,
,,,,,,,,,,,,67fc56e2b76355e0dcb30d27,001,3,2025-04-15_11h06.51.261,avatar_quest_3AFC_legacy,2022.1.3,Win32,59.88023952,67fc56e2b76355e0dcb30d27,67fe6e666cecbc9329ddf6d6,67fe70f12cef9cbc84311687,,,,,,,,,,,,,,,,,,,,,,No Brainslug Difficult 2 No Money,12,images/assets/snowy_original.jpg,learning,20,images/assets/success.jpg,images/assets/gameover.jpg,,,,,,,,With Brainslug Difficult 1 No Money,With Brainslug Difficult 1 No Money,left,8.5486,"[""With Brainslug Difficult 2 No Money"",""With Brainslug Difficult 2 With Money""]",0,0,0,8,1,,,,,,,,,,,,,,,,,,,,,,,,,,,,,,,,
,,,,,,,,,,,,67fc56e2b76355e0dcb30d27,001,3,2025-04-15_11h06.51.261,avatar_quest_3AFC_legacy,2022.1.3,Win32,59.88023952,67fc56e2b76355e0dcb30d27,67fe6e666cecbc9329ddf6d6,67fe70f12cef9cbc84311687,"[""right"",""left"",""right"",""right"",""left"",""right"",""left"",""left""]","[1.1864000000357464,2.4124999999999943,4.8266999999880795,5.609499999999997,6.291800000011904,7.39110000002384,8.260600000023828,8.944900000035744]",,calibration,With Brainslug Difficult 1 No Money,5,10.42565,9.9366,6,4,0,TRUE,na,na,na,na,,,,,,,,,,,,,,,,,,,,,,,,,,,,,,,,,,0,0,0,0,1,,,,,,,,,,,,,,,,,,,,,,,
,,,,,,,,,,,,67fc56e2b76355e0dcb30d27,001,3,2025-04-15_11h06.51.261,avatar_quest_3AFC_legacy,2022.1.3,Win32,59.88023952,67fc56e2b76355e0dcb30d27,67fe6e666cecbc9329ddf6d6,67fe70f12cef9cbc84311687,,,,,,,,,,,,,,,,,,,,,,With Brainslug Difficult 1 No Money,6,images/assets/snowy_original.jpg,learning,20,images/assets/success.jpg,images/assets/gameover.jpg,,,,,,,,,,,,,0,1,1,1,1,,,,,,,,,,,,,,,,,,,,,,,,,,,,,,,,
,,,,,,,,,,,,67fc56e2b76355e0dcb30d27,001,3,2025-04-15_11h06.51.261,avatar_quest_3AFC_legacy,2022.1.3,Win32,59.88023952,67fc56e2b76355e0dcb30d27,67fe6e666cecbc9329ddf6d6,67fe70f12cef9cbc84311687,,,,,,,,,,,,,,,,,,,,,,No Brainslug No Barriers With Money,0,images/assets/snowy_money.jpg,learning,10,images/assets/success_money.jpg,images/assets/gameover.jpg,,,,,,,,,,,,,0,2,2,9,1,,,,,,,,,,,,,,,,,,,,,,,,,,,,,,,,
,,,,,,,,,,,,67fc56e2b76355e0dcb30d27,001,3,2025-04-15_11h06.51.261,avatar_quest_3AFC_legacy,2022.1.3,Win32,59.88023952,67fc56e2b76355e0dcb30d27,67fe6e666cecbc9329ddf6d6,67fe70f12cef9cbc84311687,,,,,,,,,,,,,,,,,,,,,,No Brainslug No Barriers No Money,0,images/assets/snowy_original.jpg,learning,10,images/assets/success.jpg,images/assets/gameover.jpg,,,,,,,,,,,,,0,3,3,10,1,,,,,,,,,,,,,,,,,,,,,,,,,,,,,,,,
,,,,,,,,,,,,67fc56e2b76355e0dcb30d27,001,3,2025-04-15_11h06.51.261,avatar_quest_3AFC_legacy,2022.1.3,Win32,59.88023952,67fc56e2b76355e0dcb30d27,67fe6e666cecbc9329ddf6d6,67fe70f12cef9cbc84311687,,,,,,,,,,,,,,,,,,,,,,No Brainslug Difficult 1 No Money,6,images/assets/snowy_original.jpg,learning,20,images/assets/success.jpg,images/assets/gameover.jpg,,,,,,,,,,,,,0,4,4,6,1,,,,,,,,,,,,,,,,,,,,,,,,,,,,,,,,
,,,,,,,,,,,,67fc56e2b76355e0dcb30d27,001,3,2025-04-15_11h06.51.261,avatar_quest_3AFC_legacy,2022.1.3,Win32,59.88023952,67fc56e2b76355e0dcb30d27,67fe6e666cecbc9329ddf6d6,67fe70f12cef9cbc84311687,,,,,,,,,,,,,,,,,,,,,,With Brainslug Difficult 2 With Money,12,images/assets/snowy_money.jpg,learning,20,images/assets/success_money.jpg,images/assets/gameover.jpg,,,,,,,,,,,,,0,5,5,2,1,,,,,,,,,,,,,,,,,,,,,,,,,,,,,,,,
,,,,,,,,,,,,67fc56e2b76355e0dcb30d27,001,3,2025-04-15_11h06.51.261,avatar_quest_3AFC_legacy,2022.1.3,Win32,59.88023952,67fc56e2b76355e0dcb30d27,67fe6e666cecbc9329ddf6d6,67fe70f12cef9cbc84311687,,,,,,,,,,,,,,,,,,,,,,With Brainslug No Barriers No Money,0,images/assets/snowy_original.jpg,learning,10,images/assets/success.jpg,images/assets/gameover.jpg,,,,,,,,,,,,,0,6,6,5,1,,,,,,,,,,,,,,,,,,,,,,,,,,,,,,,,
,,,,,,,,,,,,67fc56e2b76355e0dcb30d27,001,3,2025-04-15_11h06.51.261,avatar_quest_3AFC_legacy,2022.1.3,Win32,59.88023952,67fc56e2b76355e0dcb30d27,67fe6e666cecbc9329ddf6d6,67fe70f12cef9cbc84311687,,,,,,,,,,,,,,,,,,,,,,With Brainslug Difficult 2 No Money,12,images/assets/snowy_original.jpg,learning,20,images/assets/success.jpg,images/assets/gameover.jpg,,,,,,,,,,,,,0,7,7,3,1,,,,,,,,,,,,,,,,,,,,,,,,,,,,,,,,
,,,,,,,,,,,,67fc56e2b76355e0dcb30d27,001,3,2025-04-15_11h06.51.261,avatar_quest_3AFC_legacy,2022.1.3,Win32,59.88023952,67fc56e2b76355e0dcb30d27,67fe6e666cecbc9329ddf6d6,67fe70f12cef9cbc84311687,,,,,,,,,,,,,,,,,,,,,,With Brainslug No Barriers With Money,0,images/assets/snowy_money.jpg,learning,10,images/assets/success_money.jpg,images/assets/gameover.jpg,,,,,,,,,,,,,0,8,8,4,1,,,,,,,,,,,,,,,,,,,,,,,,,,,,,,,,
,,,,,,,,,,,,67fc56e2b76355e0dcb30d27,001,3,2025-04-15_11h06.51.261,avatar_quest_3AFC_legacy,2022.1.3,Win32,59.88023952,67fc56e2b76355e0dcb30d27,67fe6e666cecbc9329ddf6d6,67fe70f12cef9cbc84311687,,,,,,,,,,,,,,,,,,,,,,No Brainslug Difficult 2 With Money,12,images/assets/snowy_money.jpg,learning,20,images/assets/success_money.jpg,images/assets/gameover.jpg,,,,,,,,,,,,,0,9,9,7,1,,,,,,,,,,,,,,,,,,,,,,,,,,,,,,,,
,,,,,,,,,,,,67fc56e2b76355e0dcb30d27,001,3,2025-04-15_11h06.51.261,avatar_quest_3AFC_legacy,2022.1.3,Win32,59.88023952,67fc56e2b76355e0dcb30d27,67fe6e666cecbc9329ddf6d6,67fe70f12cef9cbc84311687,,,,,,,,,,,,,,,,,,,,,,With Brainslug Difficult 1 With Money,6,images/assets/snowy_money.jpg,learning,20,images/assets/success_money.jpg,images/assets/gameover.jpg,,,,,,,,,,,,,0,10,10,0,1,,,,,,,,,,,,,,,,,,,,,,,,,,,,,,,,
,,,,,,,,,,,,67fc56e2b76355e0dcb30d27,001,3,2025-04-15_11h06.51.261,avatar_quest_3AFC_legacy,2022.1.3,Win32,59.88023952,67fc56e2b76355e0dcb30d27,67fe6e666cecbc9329ddf6d6,67fe70f12cef9cbc84311687,,,,,,,,,,,,,,,,,,,,,,,,,,,,,,,,,,,,,,,,,,,,,,,,,,,,,,,1,0,1,0,1,,,,,,,,,,,,,,,,,,
,,,,,,,,,,,,67fc56e2b76355e0dcb30d27,001,3,2025-04-15_11h06.51.261,avatar_quest_3AFC_legacy,2022.1.3,Win32,59.88023952,67fc56e2b76355e0dcb30d27,67fe6e666cecbc9329ddf6d6,67fe70f12cef9cbc84311687,,,,,,,,,,,,,,,,,,,,,,With Brainslug No Barriers With Money,0,images/assets/snowy_money.jpg,learning,10,images/assets/success_money.jpg,images/assets/gameover.jpg,,,,,,,,With Brainslug Difficult 1 No Money,With Brainslug Difficult 1 No Money,left,4.1076,"[""With Brainslug Difficult 2 No Money"",""With Brainslug Difficult 2 With Money""]",0,0,0,4,1,,,,,,,,,,,,,,,,,,,,,,,,,,,,,,,,
,,,,,,,,,,,,67fc56e2b76355e0dcb30d27,001,3,2025-04-15_11h06.51.261,avatar_quest_3AFC_legacy,2022.1.3,Win32,59.88023952,67fc56e2b76355e0dcb30d27,67fe6e666cecbc9329ddf6d6,67fe70f12cef9cbc84311687,,,,,,,,,,,,,,,,,,,,,,With Brainslug Difficult 2 No Money,12,images/assets/snowy_original.jpg,learning,20,images/assets/success.jpg,images/assets/gameover.jpg,,,,,,,,,,,,,0,1,1,3,1,,,,,,,,,,,,,,,,,,,,,,,,,,,,,,,,
,,,,,,,,,,,,67fc56e2b76355e0dcb30d27,001,3,2025-04-15_11h06.51.261,avatar_quest_3AFC_legacy,2022.1.3,Win32,59.88023952,67fc56e2b76355e0dcb30d27,67fe6e666cecbc9329ddf6d6,67fe70f12cef9cbc84311687,"[""right"",""left"",""left"",""left"",""down"",""left"",""left"",""right"",""right"",""left"",""down"",""right""]","[0.8538999999761643,2.2673999999761634,3.002300000011928,3.5783000000119216,4.425000000000011,5.283500000000004,5.872100000023863,7.229500000000002,7.690199999988096,8.459800000011938,9.370000000000005,9.951999999999998]",,calibration,With Brainslug Difficult 1 No Money,6,10.42565,10.4303,3,2,0,FALSE,na,na,na,na,,,,,,,,,,,,,,,,,,,,,,,,,,,,,,,,,,0,0,0,0,1,,,,,,,,,,,,,,,,,,,,,,,
,,,,,,,,,,,,67fc56e2b76355e0dcb30d27,001,3,2025-04-15_11h06.51.261,avatar_quest_3AFC_legacy,2022.1.3,Win32,59.88023952,67fc56e2b76355e0dcb30d27,67fe6e666cecbc9329ddf6d6,67fe70f12cef9cbc84311687,,,,,,,,,,,,,,,,,,,,,,With Brainslug Difficult 1 No Money,6,images/assets/snowy_original.jpg,learning,20,images/assets/success.jpg,images/assets/gameover.jpg,,,,,,,,,,,,,0,2,2,1,1,,,,,,,,,,,,,,,,,,,,,,,,,,,,,,,,
,,,,,,,,,,,,67fc56e2b76355e0dcb30d27,001,3,2025-04-15_11h06.51.261,avatar_quest_3AFC_legacy,2022.1.3,Win32,59.88023952,67fc56e2b76355e0dcb30d27,67fe6e666cecbc9329ddf6d6,67fe70f12cef9cbc84311687,,,,,,,,,,,,,,,,,,,,,,With Brainslug Difficult 2 With Money,12,images/assets/snowy_money.jpg,learning,20,images/assets/success_money.jpg,images/assets/gameover.jpg,,,,,,,,,,,,,0,3,3,2,1,,,,,,,,,,,,,,,,,,,,,,,,,,,,,,,,
,,,,,,,,,,,,67fc56e2b76355e0dcb30d27,001,3,2025-04-15_11h06.51.261,avatar_quest_3AFC_legacy,2022.1.3,Win32,59.88023952,67fc56e2b76355e0dcb30d27,67fe6e666cecbc9329ddf6d6,67fe70f12cef9cbc84311687,,,,,,,,,,,,,,,,,,,,,,No Brainslug Difficult 2 No Money,12,images/assets/snowy_original.jpg,learning,20,images/assets/success.jpg,images/assets/gameover.jpg,,,,,,,,,,,,,0,4,4,8,1,,,,,,,,,,,,,,,,,,,,,,,,,,,,,,,,
,,,,,,,,,,,,67fc56e2b76355e0dcb30d27,001,3,2025-04-15_11h06.51.261,avatar_quest_3AFC_legacy,2022.1.3,Win32,59.88023952,67fc56e2b76355e0dcb30d27,67fe6e666cecbc9329ddf6d6,67fe70f12cef9cbc84311687,,,,,,,,,,,,,,,,,,,,,,No Brainslug Difficult 1 No Money,6,images/assets/snowy_original.jpg,learning,20,images/assets/success.jpg,images/assets/gameover.jpg,,,,,,,,,,,,,0,5,5,6,1,,,,,,,,,,,,,,,,,,,,,,,,,,,,,,,,
,,,,,,,,,,,,67fc56e2b76355e0dcb30d27,001,3,2025-04-15_11h06.51.261,avatar_quest_3AFC_legacy,2022.1.3,Win32,59.88023952,67fc56e2b76355e0dcb30d27,67fe6e666cecbc9329ddf6d6,67fe70f12cef9cbc84311687,,,,,,,,,,,,,,,,,,,,,,With Brainslug Difficult 1 With Money,6,images/assets/snowy_money.jpg,learning,20,images/assets/success_money.jpg,images/assets/gameover.jpg,,,,,,,,,,,,,0,6,6,0,1,,,,,,,,,,,,,,,,,,,,,,,,,,,,,,,,
,,,,,,,,,,,,67fc56e2b76355e0dcb30d27,001,3,2025-04-15_11h06.51.261,avatar_quest_3AFC_legacy,2022.1.3,Win32,59.88023952,67fc56e2b76355e0dcb30d27,67fe6e666cecbc9329ddf6d6,67fe70f12cef9cbc84311687,,,,,,,,,,,,,,,,,,,,,,No Brainslug Difficult 2 With Money,12,images/assets/snowy_money.jpg,learning,20,images/assets/success_money.jpg,images/assets/gameover.jpg,,,,,,,,,,,,,0,7,7,7,1,,,,,,,,,,,,,,,,,,,,,,,,,,,,,,,,
,,,,,,,,,,,,67fc56e2b76355e0dcb30d27,001,3,2025-04-15_11h06.51.261,avatar_quest_3AFC_legacy,2022.1.3,Win32,59.88023952,67fc56e2b76355e0dcb30d27,67fe6e666cecbc9329ddf6d6,67fe70f12cef9cbc84311687,,,,,,,,,,,,,,,,,,,,,,No Brainslug No Barriers No Money,0,images/assets/snowy_original.jpg,learning,10,images/assets/success.jpg,images/assets/gameover.jpg,,,,,,,,,,,,,0,8,8,10,1,,,,,,,,,,,,,,,,,,,,,,,,,,,,,,,,
,,,,,,,,,,,,67fc56e2b76355e0dcb30d27,001,3,2025-04-15_11h06.51.261,avatar_quest_3AFC_legacy,2022.1.3,Win32,59.88023952,67fc56e2b76355e0dcb30d27,67fe6e666cecbc9329ddf6d6,67fe70f12cef9cbc84311687,,,,,,,,,,,,,,,,,,,,,,No Brainslug No Barriers With Money,0,images/assets/snowy_money.jpg,learning,10,images/assets/success_money.jpg,images/assets/gameover.jpg,,,,,,,,,,,,,0,9,9,9,1,,,,,,,,,,,,,,,,,,,,,,,,,,,,,,,,
,,,,,,,,,,,,67fc56e2b76355e0dcb30d27,001,3,2025-04-15_11h06.51.261,avatar_quest_3AFC_legacy,2022.1.3,Win32,59.88023952,67fc56e2b76355e0dcb30d27,67fe6e666cecbc9329ddf6d6,67fe70f12cef9cbc84311687,,,,,,,,,,,,,,,,,,,,,,With Brainslug No Barriers No Money,0,images/assets/snowy_original.jpg,learning,10,images/assets/success.jpg,images/assets/gameover.jpg,,,,,,,,,,,,,0,10,10,5,1,,,,,,,,,,,,,,,,,,,,,,,,,,,,,,,,
,,,,,,,,,,,,67fc56e2b76355e0dcb30d27,001,3,2025-04-15_11h06.51.261,avatar_quest_3AFC_legacy,2022.1.3,Win32,59.88023952,67fc56e2b76355e0dcb30d27,67fe6e666cecbc9329ddf6d6,67fe70f12cef9cbc84311687,,,,,,,,,,,,,,,,,,,,,,,,,,,,,,,,,,,,,,,,,,,,,,,,,,,,,,,2,0,2,0,1,,,,,,,,,,,,,,,,,,
,,,,,,,,,,,,67fc56e2b76355e0dcb30d27,001,3,2025-04-15_11h06.51.261,avatar_quest_3AFC_legacy,2022.1.3,Win32,59.88023952,67fc56e2b76355e0dcb30d27,67fe6e666cecbc9329ddf6d6,67fe70f12cef9cbc84311687,,,,,,,,,,,,,,,,,,,,,,No Brainslug No Barriers No Money,0,images/assets/snowy_original.jpg,learning,10,images/assets/success.jpg,images/assets/gameover.jpg,,,,,,,,With Brainslug Difficult 2 With Money,With Brainslug Difficult 1 No Money,right,0.0779,"[""With Brainslug Difficult 1 No Money"",""With Brainslug Difficult 2 No Money""]",0,0,0,10,1,,,,,,,,,,,,,,,,,,,,,,,,,,,,,,,,
,,,,,,,,,,,,67fc56e2b76355e0dcb30d27,001,3,2025-04-15_11h06.51.261,avatar_quest_3AFC_legacy,2022.1.3,Win32,59.88023952,67fc56e2b76355e0dcb30d27,67fe6e666cecbc9329ddf6d6,67fe70f12cef9cbc84311687,,,,,,,,,,,,,,,,,,,,,,With Brainslug Difficult 1 With Money,6,images/assets/snowy_money.jpg,learning,20,images/assets/success_money.jpg,images/assets/gameover.jpg,,,,,,,,,,,,,0,1,1,0,1,,,,,,,,,,,,,,,,,,,,,,,,,,,,,,,,
,,,,,,,,,,,,67fc56e2b76355e0dcb30d27,001,3,2025-04-15_11h06.51.261,avatar_quest_3AFC_legacy,2022.1.3,Win32,59.88023952,67fc56e2b76355e0dcb30d27,67fe6e666cecbc9329ddf6d6,67fe70f12cef9cbc84311687,"[""left"",""right"",""right"",""left"",""right"",""right"",""right"",""left"",""right"",""right"",""left"",""right"",""left"",""right"",""left"",""right"",""right""]","[2.127399999976177,2.6215999999642463,3.0990999999642384,4.1270000000000095,4.716699999988094,5.434399999976165,5.877799999952316,6.331299999952336,6.87709999996423,7.254399999976158,7.4518999999761775,7.850899999976178,8.234399999976176,8.533500000000004,8.849299999952336,9.514899999976166,9.932000000000016]",,calibration,With Brainslug Difficult 2 With Money,7,10.42565,10.4403,8,9,0,FALSE,na,na,na,na,,,,,,,,,,,,,,,,,,,,,,,,,,,,,,,,,,0,0,0,0,1,,,,,,,,,,,,,,,,,,,,,,,
,,,,,,,,,,,,67fc56e2b76355e0dcb30d27,001,3,2025-04-15_11h06.51.261,avatar_quest_3AFC_legacy,2022.1.3,Win32,59.88023952,67fc56e2b76355e0dcb30d27,67fe6e666cecbc9329ddf6d6,67fe70f12cef9cbc84311687,,,,,,,,,,,,,,,,,,,,,,With Brainslug Difficult 2 With Money,12,images/assets/snowy_money.jpg,learning,20,images/assets/success_money.jpg,images/assets/gameover.jpg,,,,,,,,,,,,,0,2,2,2,1,,,,,,,,,,,,,,,,,,,,,,,,,,,,,,,,
,,,,,,,,,,,,67fc56e2b76355e0dcb30d27,001,3,2025-04-15_11h06.51.261,avatar_quest_3AFC_legacy,2022.1.3,Win32,59.88023952,67fc56e2b76355e0dcb30d27,67fe6e666cecbc9329ddf6d6,67fe70f12cef9cbc84311687,,,,,,,,,,,,,,,,,,,,,,No Brainslug Difficult 2 No Money,12,images/assets/snowy_original.jpg,learning,20,images/assets/success.jpg,images/assets/gameover.jpg,,,,,,,,,,,,,0,3,3,8,1,,,,,,,,,,,,,,,,,,,,,,,,,,,,,,,,
,,,,,,,,,,,,67fc56e2b76355e0dcb30d27,001,3,2025-04-15_11h06.51.261,avatar_quest_3AFC_legacy,2022.1.3,Win32,59.88023952,67fc56e2b76355e0dcb30d27,67fe6e666cecbc9329ddf6d6,67fe70f12cef9cbc84311687,,,,,,,,,,,,,,,,,,,,,,No Brainslug Difficult 2 With Money,12,images/assets/snowy_money.jpg,learning,20,images/assets/success_money.jpg,images/assets/gameover.jpg,,,,,,,,,,,,,0,4,4,7,1,,,,,,,,,,,,,,,,,,,,,,,,,,,,,,,,
,,,,,,,,,,,,67fc56e2b76355e0dcb30d27,001,3,2025-04-15_11h06.51.261,avatar_quest_3AFC_legacy,2022.1.3,Win32,59.88023952,67fc56e2b76355e0dcb30d27,67fe6e666cecbc9329ddf6d6,67fe70f12cef9cbc84311687,,,,,,,,,,,,,,,,,,,,,,No Brainslug Difficult 1 No Money,6,images/assets/snowy_original.jpg,learning,20,images/assets/success.jpg,images/assets/gameover.jpg,,,,,,,,,,,,,0,5,5,6,1,,,,,,,,,,,,,,,,,,,,,,,,,,,,,,,,
,,,,,,,,,,,,67fc56e2b76355e0dcb30d27,001,3,2025-04-15_11h06.51.261,avatar_quest_3AFC_legacy,2022.1.3,Win32,59.88023952,67fc56e2b76355e0dcb30d27,67fe6e666cecbc9329ddf6d6,67fe70f12cef9cbc84311687,,,,,,,,,,,,,,,,,,,,,,No Brainslug No Barriers With Money,0,images/assets/snowy_money.jpg,learning,10,images/assets/success_money.jpg,images/assets/gameover.jpg,,,,,,,,,,,,,0,6,6,9,1,,,,,,,,,,,,,,,,,,,,,,,,,,,,,,,,
,,,,,,,,,,,,67fc56e2b76355e0dcb30d27,001,3,2025-04-15_11h06.51.261,avatar_quest_3AFC_legacy,2022.1.3,Win32,59.88023952,67fc56e2b76355e0dcb30d27,67fe6e666cecbc9329ddf6d6,67fe70f12cef9cbc84311687,,,,,,,,,,,,,,,,,,,,,,With Brainslug No Barriers With Money,0,images/assets/snowy_money.jpg,learning,10,images/assets/success_money.jpg,images/assets/gameover.jpg,,,,,,,,,,,,,0,7,7,4,1,,,,,,,,,,,,,,,,,,,,,,,,,,,,,,,,
,,,,,,,,,,,,67fc56e2b76355e0dcb30d27,001,3,2025-04-15_11h06.51.261,avatar_quest_3AFC_legacy,2022.1.3,Win32,59.88023952,67fc56e2b76355e0dcb30d27,67fe6e666cecbc9329ddf6d6,67fe70f12cef9cbc84311687,,,,,,,,,,,,,,,,,,,,,,With Brainslug Difficult 1 No Money,6,images/assets/snowy_original.jpg,learning,20,images/assets/success.jpg,images/assets/gameover.jpg,,,,,,,,,,,,,0,8,8,1,1,,,,,,,,,,,,,,,,,,,,,,,,,,,,,,,,
,,,,,,,,,,,,67fc56e2b76355e0dcb30d27,001,3,2025-04-15_11h06.51.261,avatar_quest_3AFC_legacy,2022.1.3,Win32,59.88023952,67fc56e2b76355e0dcb30d27,67fe6e666cecbc9329ddf6d6,67fe70f12cef9cbc84311687,,,,,,,,,,,,,,,,,,,,,,With Brainslug Difficult 2 No Money,12,images/assets/snowy_original.jpg,learning,20,images/assets/success.jpg,images/assets/gameover.jpg,,,,,,,,,,,,,0,9,9,3,1,,,,,,,,,,,,,,,,,,,,,,,,,,,,,,,,
,,,,,,,,,,,,67fc56e2b76355e0dcb30d27,001,3,2025-04-15_11h06.51.261,avatar_quest_3AFC_legacy,2022.1.3,Win32,59.88023952,67fc56e2b76355e0dcb30d27,67fe6e666cecbc9329ddf6d6,67fe70f12cef9cbc84311687,,,,,,,,,,,,,,,,,,,,,,With Brainslug No Barriers No Money,0,images/assets/snowy_original.jpg,learning,10,images/assets/success.jpg,images/assets/gameover.jpg,,,,,,,,,,,,,0,10,10,5,1,,,,,,,,,,,,,,,,,,,,,,,,,,,,,,,,
,,,,,,,,,,,,67fc56e2b76355e0dcb30d27,001,3,2025-04-15_11h06.51.261,avatar_quest_3AFC_legacy,2022.1.3,Win32,59.88023952,67fc56e2b76355e0dcb30d27,67fe6e666cecbc9329ddf6d6,67fe70f12cef9cbc84311687,,,,,,,,,,,,,,,,,,,,,,,,,,,,,,,,,,,,,,,,,,,,,,,,,,,,,,,3,0,3,0,1,,,,,,,,,,,,,,,,,,
,,,,,,,,,,,,67fc56e2b76355e0dcb30d27,001,3,2025-04-15_11h06.51.261,avatar_quest_3AFC_legacy,2022.1.3,Win32,59.88023952,67fc56e2b76355e0dcb30d27,67fe6e666cecbc9329ddf6d6,67fe70f12cef9cbc84311687,,,,,,,,,,,,,,,,,,,,,,With Brainslug Difficult 2 No Money,12,images/assets/snowy_original.jpg,learning,20,images/assets/success.jpg,images/assets/gameover.jpg,,,,,,,,With Brainslug Difficult 1 No Money,With Brainslug Difficult 1 No Money,left,4.9237,"[""With Brainslug Difficult 2 No Money"",""With Brainslug Difficult 2 With Money""]",0,0,0,3,1,,,,,,,,,,,,,,,,,,,,,,,,,,,,,,,,
,,,,,,,,,,,,67fc56e2b76355e0dcb30d27,001,3,2025-04-15_11h06.51.261,avatar_quest_3AFC_legacy,2022.1.3,Win32,59.88023952,67fc56e2b76355e0dcb30d27,67fe6e666cecbc9329ddf6d6,67fe70f12cef9cbc84311687,,,,,,,,,,,,,,,,,,,,,,No Brainslug Difficult 2 No Money,12,images/assets/snowy_original.jpg,learning,20,images/assets/success.jpg,images/assets/gameover.jpg,,,,,,,,,,,,,0,1,1,8,1,,,,,,,,,,,,,,,,,,,,,,,,,,,,,,,,
,,,,,,,,,,,,67fc56e2b76355e0dcb30d27,001,3,2025-04-15_11h06.51.261,avatar_quest_3AFC_legacy,2022.1.3,Win32,59.88023952,67fc56e2b76355e0dcb30d27,67fe6e666cecbc9329ddf6d6,67fe70f12cef9cbc84311687,,,,,,,,,,,,,,,,,,,,,,With Brainslug Difficult 2 With Money,12,images/assets/snowy_money.jpg,learning,20,images/assets/success_money.jpg,images/assets/gameover.jpg,,,,,,,,,,,,,0,2,2,2,1,,,,,,,,,,,,,,,,,,,,,,,,,,,,,,,,
,,,,,,,,,,,,67fc56e2b76355e0dcb30d27,001,3,2025-04-15_11h06.51.261,avatar_quest_3AFC_legacy,2022.1.3,Win32,59.88023952,67fc56e2b76355e0dcb30d27,67fe6e666cecbc9329ddf6d6,67fe70f12cef9cbc84311687,,,,,,,,,,,,,,,,,,,,,,With Brainslug Difficult 1 With Money,6,images/assets/snowy_money.jpg,learning,20,images/assets/success_money.jpg,images/assets/gameover.jpg,,,,,,,,,,,,,0,3,3,0,1,,,,,,,,,,,,,,,,,,,,,,,,,,,,,,,,
,,,,,,,,,,,,67fc56e2b76355e0dcb30d27,001,3,2025-04-15_11h06.51.261,avatar_quest_3AFC_legacy,2022.1.3,Win32,59.88023952,67fc56e2b76355e0dcb30d27,67fe6e666cecbc9329ddf6d6,67fe70f12cef9cbc84311687,,,,,,,,,,,,,,,,,,,,,,No Brainslug Difficult 2 With Money,12,images/assets/snowy_money.jpg,learning,20,images/assets/success_money.jpg,images/assets/gameover.jpg,,,,,,,,,,,,,0,4,4,7,1,,,,,,,,,,,,,,,,,,,,,,,,,,,,,,,,
,,,,,,,,,,,,67fc56e2b76355e0dcb30d27,001,3,2025-04-15_11h06.51.261,avatar_quest_3AFC_legacy,2022.1.3,Win32,59.88023952,67fc56e2b76355e0dcb30d27,67fe6e666cecbc9329ddf6d6,67fe70f12cef9cbc84311687,,,,,,,,,,,,,,,,,,,,,,With Brainslug No Barriers With Money,0,images/assets/snowy_money.jpg,learning,10,images/assets/success_money.jpg,images/assets/gameover.jpg,,,,,,,,,,,,,0,5,5,4,1,,,,,,,,,,,,,,,,,,,,,,,,,,,,,,,,
,,,,,,,,,,,,67fc56e2b76355e0dcb30d27,001,3,2025-04-15_11h06.51.261,avatar_quest_3AFC_legacy,2022.1.3,Win32,59.88023952,67fc56e2b76355e0dcb30d27,67fe6e666cecbc9329ddf6d6,67fe70f12cef9cbc84311687,,,,,,,,,,,,,,,,,,,,,,With Brainslug No Barriers No Money,0,images/assets/snowy_original.jpg,learning,10,images/assets/success.jpg,images/assets/gameover.jpg,,,,,,,,,,,,,0,6,6,5,1,,,,,,,,,,,,,,,,,,,,,,,,,,,,,,,,
,,,,,,,,,,,,67fc56e2b76355e0dcb30d27,001,3,2025-04-15_11h06.51.261,avatar_quest_3AFC_legacy,2022.1.3,Win32,59.88023952,67fc56e2b76355e0dcb30d27,67fe6e666cecbc9329ddf6d6,67fe70f12cef9cbc84311687,,,,,,,,,,,,,,,,,,,,,,No Brainslug Difficult 1 No Money,6,images/assets/snowy_original.jpg,learning,20,images/assets/success.jpg,images/assets/gameover.jpg,,,,,,,,,,,,,0,7,7,6,1,,,,,,,,,,,,,,,,,,,,,,,,,,,,,,,,
,,,,,,,,,,,,67fc56e2b76355e0dcb30d27,001,3,2025-04-15_11h06.51.261,avatar_quest_3AFC_legacy,2022.1.3,Win32,59.88023952,67fc56e2b76355e0dcb30d27,67fe6e666cecbc9329ddf6d6,67fe70f12cef9cbc84311687,,,,,,,,,,,,,,,,,,,,,,No Brainslug No Barriers No Money,0,images/assets/snowy_original.jpg,learning,10,images/assets/success.jpg,images/assets/gameover.jpg,,,,,,,,,,,,,0,8,8,10,1,,,,,,,,,,,,,,,,,,,,,,,,,,,,,,,,
,,,,,,,,,,,,67fc56e2b76355e0dcb30d27,001,3,2025-04-15_11h06.51.261,avatar_quest_3AFC_legacy,2022.1.3,Win32,59.88023952,67fc56e2b76355e0dcb30d27,67fe6e666cecbc9329ddf6d6,67fe70f12cef9cbc84311687,,,,,,,,,,,,,,,,,,,,,,No Brainslug No Barriers With Money,0,images/assets/snowy_money.jpg,learning,10,images/assets/success_money.jpg,images/assets/gameover.jpg,,,,,,,,,,,,,0,9,9,9,1,,,,,,,,,,,,,,,,,,,,,,,,,,,,,,,,
,,,,,,,,,,,,67fc56e2b76355e0dcb30d27,001,3,2025-04-15_11h06.51.261,avatar_quest_3AFC_legacy,2022.1.3,Win32,59.88023952,67fc56e2b76355e0dcb30d27,67fe6e666cecbc9329ddf6d6,67fe70f12cef9cbc84311687,"[""left"",""right"",""left"",""right"",""right"",""right"",""left"",""left"",""left"",""right"",""right"",""right"",""right"",""right"",""right"",""left"",""left"",""left""]","[1.1013000000119177,1.7549999999999955,2.9436000000238494,3.4608999999761636,4.1043999999761525,4.49610000002383,4.900899999976161,5.284999999999997,5.7818999999761616,5.915699999988078,6.266800000011926,6.544100000023832,6.75619999998807,7.037699999988092,7.554600000023839,9.526999999999987,9.924399999976146,10.156499999999994]",,calibration,With Brainslug Difficult 1 No Money,8,10.42565,10.4273,5,4,0,FALSE,na,na,na,na,,,,,,,,,,,,,,,,,,,,,,,,,,,,,,,,,,0,0,0,0,1,,,,,,,,,,,,,,,,,,,,,,,
,,,,,,,,,,,,67fc56e2b76355e0dcb30d27,001,3,2025-04-15_11h06.51.261,avatar_quest_3AFC_legacy,2022.1.3,Win32,59.88023952,67fc56e2b76355e0dcb30d27,67fe6e666cecbc9329ddf6d6,67fe70f12cef9cbc84311687,,,,,,,,,,,,,,,,,,,,,,With Brainslug Difficult 1 No Money,6,images/assets/snowy_original.jpg,learning,20,images/assets/success.jpg,images/assets/gameover.jpg,,,,,,,,,,,,,0,10,10,1,1,,,,,,,,,,,,,,,,,,,,,,,,,,,,,,,,
,,,,,,,,,,,,67fc56e2b76355e0dcb30d27,001,3,2025-04-15_11h06.51.261,avatar_quest_3AFC_legacy,2022.1.3,Win32,59.88023952,67fc56e2b76355e0dcb30d27,67fe6e666cecbc9329ddf6d6,67fe70f12cef9cbc84311687,,,,,,,,,,,,,,,,,,,,,,,,,,,,,,,,,,,,,,,,,,,,,,,,,,,,,,,4,0,4,0,1,,,,,,,,,,,,,,,,,,
,,,,,,,,,,,,67fc56e2b76355e0dcb30d27,001,3,2025-04-15_11h06.51.261,avatar_quest_3AFC_legacy,2022.1.3,Win32,59.88023952,67fc56e2b76355e0dcb30d27,67fe6e666cecbc9329ddf6d6,67fe70f12cef9cbc84311687,,,,,,,,,,,,,,,,,,,,,,No Brainslug Difficult 2 No Money,12,images/assets/snowy_original.jpg,learning,20,images/assets/success.jpg,images/assets/gameover.jpg,,,,,,,,With Brainslug Difficult 1 No Money,With Brainslug Difficult 1 No Money,left,1.9212,"[""With Brainslug Difficult 2 No Money"",""With Brainslug Difficult 2 With Money""]",0,0,0,8,1,,,,,,,,,,,,,,,,,,,,,,,,,,,,,,,,
,,,,,,,,,,,,67fc56e2b76355e0dcb30d27,001,3,2025-04-15_11h06.51.261,avatar_quest_3AFC_legacy,2022.1.3,Win32,59.88023952,67fc56e2b76355e0dcb30d27,67fe6e666cecbc9329ddf6d6,67fe70f12cef9cbc84311687,,,,,,,,,,,,,,,,,,,,,,With Brainslug No Barriers With Money,0,images/assets/snowy_money.jpg,learning,10,images/assets/success_money.jpg,images/assets/gameover.jpg,,,,,,,,,,,,,0,1,1,4,1,,,,,,,,,,,,,,,,,,,,,,,,,,,,,,,,
,,,,,,,,,,,,67fc56e2b76355e0dcb30d27,001,3,2025-04-15_11h06.51.261,avatar_quest_3AFC_legacy,2022.1.3,Win32,59.88023952,67fc56e2b76355e0dcb30d27,67fe6e666cecbc9329ddf6d6,67fe70f12cef9cbc84311687,,,,,,,,,,,,,,,,,,,,,,With Brainslug No Barriers No Money,0,images/assets/snowy_original.jpg,learning,10,images/assets/success.jpg,images/assets/gameover.jpg,,,,,,,,,,,,,0,2,2,5,1,,,,,,,,,,,,,,,,,,,,,,,,,,,,,,,,
,,,,,,,,,,,,67fc56e2b76355e0dcb30d27,001,3,2025-04-15_11h06.51.261,avatar_quest_3AFC_legacy,2022.1.3,Win32,59.88023952,67fc56e2b76355e0dcb30d27,67fe6e666cecbc9329ddf6d6,67fe70f12cef9cbc84311687,,,,,,,,,,,,,,,,,,,,,,No Brainslug Difficult 1 No Money,6,images/assets/snowy_original.jpg,learning,20,images/assets/success.jpg,images/assets/gameover.jpg,,,,,,,,,,,,,0,3,3,6,1,,,,,,,,,,,,,,,,,,,,,,,,,,,,,,,,
,,,,,,,,,,,,67fc56e2b76355e0dcb30d27,001,3,2025-04-15_11h06.51.261,avatar_quest_3AFC_legacy,2022.1.3,Win32,59.88023952,67fc56e2b76355e0dcb30d27,67fe6e666cecbc9329ddf6d6,67fe70f12cef9cbc84311687,,,,,,,,,,,,,,,,,,,,,,With Brainslug Difficult 2 No Money,12,images/assets/snowy_original.jpg,learning,20,images/assets/success.jpg,images/assets/gameover.jpg,,,,,,,,,,,,,0,4,4,3,1,,,,,,,,,,,,,,,,,,,,,,,,,,,,,,,,
,,,,,,,,,,,,67fc56e2b76355e0dcb30d27,001,3,2025-04-15_11h06.51.261,avatar_quest_3AFC_legacy,2022.1.3,Win32,59.88023952,67fc56e2b76355e0dcb30d27,67fe6e666cecbc9329ddf6d6,67fe70f12cef9cbc84311687,,,,,,,,,,,,,,,,,,,,,,No Brainslug No Barriers With Money,0,images/assets/snowy_money.jpg,learning,10,images/assets/success_money.jpg,images/assets/gameover.jpg,,,,,,,,,,,,,0,5,5,9,1,,,,,,,,,,,,,,,,,,,,,,,,,,,,,,,,
,,,,,,,,,,,,67fc56e2b76355e0dcb30d27,001,3,2025-04-15_11h06.51.261,avatar_quest_3AFC_legacy,2022.1.3,Win32,59.88023952,67fc56e2b76355e0dcb30d27,67fe6e666cecbc9329ddf6d6,67fe70f12cef9cbc84311687,,,,,,,,,,,,,,,,,,,,,,No Brainslug No Barriers No Money,0,images/assets/snowy_original.jpg,learning,10,images/assets/success.jpg,images/assets/gameover.jpg,,,,,,,,,,,,,0,6,6,10,1,,,,,,,,,,,,,,,,,,,,,,,,,,,,,,,,
,,,,,,,,,,,,67fc56e2b76355e0dcb30d27,001,3,2025-04-15_11h06.51.261,avatar_quest_3AFC_legacy,2022.1.3,Win32,59.88023952,67fc56e2b76355e0dcb30d27,67fe6e666cecbc9329ddf6d6,67fe70f12cef9cbc84311687,"[""left"",""left"",""right"",""right"",""right"",""right"",""right"",""right"",""left"",""up"",""right"",""left"",""right"",""left"",""left"",""right"",""right"",""right"",""right"",""right""]","[0.8797000000476771,1.361900000035746,1.859499999999997,2.194400000035756,2.424700000047693,2.966800000011915,3.279300000011915,3.5180000000000007,4.032499999999999,5.1229999999999905,5.658400000035755,5.87310000002384,6.676600000023825,7.364700000047691,7.778400000035759,8.603499999999997,8.938800000011923,9.28220000004768,9.809200000047667,10.059700000047684]",,calibration,With Brainslug Difficult 1 No Money,9,10.42565,10.4422,5,3,0,FALSE,na,na,na,na,,,,,,,,,,,,,,,,,,,,,,,,,,,,,,,,,,0,0,0,0,1,,,,,,,,,,,,,,,,,,,,,,,
,,,,,,,,,,,,67fc56e2b76355e0dcb30d27,001,3,2025-04-15_11h06.51.261,avatar_quest_3AFC_legacy,2022.1.3,Win32,59.88023952,67fc56e2b76355e0dcb30d27,67fe6e666cecbc9329ddf6d6,67fe70f12cef9cbc84311687,,,,,,,,,,,,,,,,,,,,,,With Brainslug Difficult 1 No Money,6,images/assets/snowy_original.jpg,learning,20,images/assets/success.jpg,images/assets/gameover.jpg,,,,,,,,,,,,,0,7,7,1,1,,,,,,,,,,,,,,,,,,,,,,,,,,,,,,,,
,,,,,,,,,,,,67fc56e2b76355e0dcb30d27,001,3,2025-04-15_11h06.51.261,avatar_quest_3AFC_legacy,2022.1.3,Win32,59.88023952,67fc56e2b76355e0dcb30d27,67fe6e666cecbc9329ddf6d6,67fe70f12cef9cbc84311687,,,,,,,,,,,,,,,,,,,,,,With Brainslug Difficult 2 With Money,12,images/assets/snowy_money.jpg,learning,20,images/assets/success_money.jpg,images/assets/gameover.jpg,,,,,,,,,,,,,0,8,8,2,1,,,,,,,,,,,,,,,,,,,,,,,,,,,,,,,,
,,,,,,,,,,,,67fc56e2b76355e0dcb30d27,001,3,2025-04-15_11h06.51.261,avatar_quest_3AFC_legacy,2022.1.3,Win32,59.88023952,67fc56e2b76355e0dcb30d27,67fe6e666cecbc9329ddf6d6,67fe70f12cef9cbc84311687,,,,,,,,,,,,,,,,,,,,,,No Brainslug Difficult 2 With Money,12,images/assets/snowy_money.jpg,learning,20,images/assets/success_money.jpg,images/assets/gameover.jpg,,,,,,,,,,,,,0,9,9,7,1,,,,,,,,,,,,,,,,,,,,,,,,,,,,,,,,
,,,,,,,,,,,,67fc56e2b76355e0dcb30d27,001,3,2025-04-15_11h06.51.261,avatar_quest_3AFC_legacy,2022.1.3,Win32,59.88023952,67fc56e2b76355e0dcb30d27,67fe6e666cecbc9329ddf6d6,67fe70f12cef9cbc84311687,,,,,,,,,,,,,,,,,,,,,,With Brainslug Difficult 1 With Money,6,images/assets/snowy_money.jpg,learning,20,images/assets/success_money.jpg,images/assets/gameover.jpg,,,,,,,,,,,,,0,10,10,0,1,,,,,,,,,,,,,,,,,,,,,,,,,,,,,,,,
,,,,,,,,,,,,67fc56e2b76355e0dcb30d27,001,3,2025-04-15_11h06.51.261,avatar_quest_3AFC_legacy,2022.1.3,Win32,59.88023952,67fc56e2b76355e0dcb30d27,67fe6e666cecbc9329ddf6d6,67fe70f12cef9cbc84311687,,,,,,,,,,,,,,,,,,,,,,,,,,,,,,,,,,,,,,,,,,,,,,,,,,,,,,,5,0,5,0,1,,,,,,,,,,,,,,,,,,
,,,,,,,,,,,,67fc56e2b76355e0dcb30d27,001,3,2025-04-15_11h06.51.261,avatar_quest_3AFC_legacy,2022.1.3,Win32,59.88023952,67fc56e2b76355e0dcb30d27,67fe6e666cecbc9329ddf6d6,67fe70f12cef9cbc84311687,,,,,,,,,,,,,,,,,,,,,,With Brainslug Difficult 2 No Money,12,images/assets/snowy_original.jpg,learning,20,images/assets/success.jpg,images/assets/gameover.jpg,,,,,,,,With Brainslug Difficult 1 No Money,With Brainslug Difficult 1 No Money,left,0.1045,"[""With Brainslug Difficult 2 No Money"",""With Brainslug Difficult 2 With Money""]",0,0,0,3,1,,,,,,,,,,,,,,,,,,,,,,,,,,,,,,,,
,,,,,,,,,,,,67fc56e2b76355e0dcb30d27,001,3,2025-04-15_11h06.51.261,avatar_quest_3AFC_legacy,2022.1.3,Win32,59.88023952,67fc56e2b76355e0dcb30d27,67fe6e666cecbc9329ddf6d6,67fe70f12cef9cbc84311687,,,,,,,,,,,,,,,,,,,,,,With Brainslug Difficult 2 With Money,12,images/assets/snowy_money.jpg,learning,20,images/assets/success_money.jpg,images/assets/gameover.jpg,,,,,,,,,,,,,0,1,1,2,1,,,,,,,,,,,,,,,,,,,,,,,,,,,,,,,,
,,,,,,,,,,,,67fc56e2b76355e0dcb30d27,001,3,2025-04-15_11h06.51.261,avatar_quest_3AFC_legacy,2022.1.3,Win32,59.88023952,67fc56e2b76355e0dcb30d27,67fe6e666cecbc9329ddf6d6,67fe70f12cef9cbc84311687,,,,,,,,,,,,,,,,,,,,,,With Brainslug No Barriers With Money,0,images/assets/snowy_money.jpg,learning,10,images/assets/success_money.jpg,images/assets/gameover.jpg,,,,,,,,,,,,,0,2,2,4,1,,,,,,,,,,,,,,,,,,,,,,,,,,,,,,,,
,,,,,,,,,,,,67fc56e2b76355e0dcb30d27,001,3,2025-04-15_11h06.51.261,avatar_quest_3AFC_legacy,2022.1.3,Win32,59.88023952,67fc56e2b76355e0dcb30d27,67fe6e666cecbc9329ddf6d6,67fe70f12cef9cbc84311687,,,,,,,,,,,,,,,,,,,,,,With Brainslug No Barriers No Money,0,images/assets/snowy_original.jpg,learning,10,images/assets/success.jpg,images/assets/gameover.jpg,,,,,,,,,,,,,0,3,3,5,1,,,,,,,,,,,,,,,,,,,,,,,,,,,,,,,,
,,,,,,,,,,,,67fc56e2b76355e0dcb30d27,001,3,2025-04-15_11h06.51.261,avatar_quest_3AFC_legacy,2022.1.3,Win32,59.88023952,67fc56e2b76355e0dcb30d27,67fe6e666cecbc9329ddf6d6,67fe70f12cef9cbc84311687,,,,,,,,,,,,,,,,,,,,,,No Brainslug Difficult 2 No Money,12,images/assets/snowy_original.jpg,learning,20,images/assets/success.jpg,images/assets/gameover.jpg,,,,,,,,,,,,,0,4,4,8,1,,,,,,,,,,,,,,,,,,,,,,,,,,,,,,,,
,,,,,,,,,,,,67fc56e2b76355e0dcb30d27,001,3,2025-04-15_11h06.51.261,avatar_quest_3AFC_legacy,2022.1.3,Win32,59.88023952,67fc56e2b76355e0dcb30d27,67fe6e666cecbc9329ddf6d6,67fe70f12cef9cbc84311687,,,,,,,,,,,,,,,,,,,,,,No Brainslug Difficult 2 With Money,12,images/assets/snowy_money.jpg,learning,20,images/assets/success_money.jpg,images/assets/gameover.jpg,,,,,,,,,,,,,0,5,5,7,1,,,,,,,,,,,,,,,,,,,,,,,,,,,,,,,,
,,,,,,,,,,,,67fc56e2b76355e0dcb30d27,001,3,2025-04-15_11h06.51.261,avatar_quest_3AFC_legacy,2022.1.3,Win32,59.88023952,67fc56e2b76355e0dcb30d27,67fe6e666cecbc9329ddf6d6,67fe70f12cef9cbc84311687,"[""left"",""right"",""right"",""right"",""left"",""right"",""right"",""right"",""right"",""left"",""left"",""left"",""right"",""right"",""right"",""left"",""left"",""left""]","[1.057699999988074,1.5429000000357576,1.890600000023852,2.307800000011923,2.9148000000119225,3.445199999988091,3.7511999999880743,4.08660000002385,4.337699999988075,4.688300000011907,5.020300000011929,5.27419999998807,5.587100000023838,5.831400000035757,6.037100000023827,6.516500000000008,6.889499999999998,7.121999999999986]",,calibration,With Brainslug Difficult 1 No Money,10,10.42565,7.5369,11,4,0,TRUE,na,na,na,na,,,,,,,,,,,,,,,,,,,,,,,,,,,,,,,,,,0,0,0,0,1,,,,,,,,,,,,,,,,,,,,,,,
,,,,,,,,,,,,67fc56e2b76355e0dcb30d27,001,3,2025-04-15_11h06.51.261,avatar_quest_3AFC_legacy,2022.1.3,Win32,59.88023952,67fc56e2b76355e0dcb30d27,67fe6e666cecbc9329ddf6d6,67fe70f12cef9cbc84311687,,,,,,,,,,,,,,,,,,,,,,With Brainslug Difficult 1 No Money,6,images/assets/snowy_original.jpg,learning,20,images/assets/success.jpg,images/assets/gameover.jpg,,,,,,,,,,,,,0,6,6,1,1,,,,,,,,,,,,,,,,,,,,,,,,,,,,,,,,
,,,,,,,,,,,,67fc56e2b76355e0dcb30d27,001,3,2025-04-15_11h06.51.261,avatar_quest_3AFC_legacy,2022.1.3,Win32,59.88023952,67fc56e2b76355e0dcb30d27,67fe6e666cecbc9329ddf6d6,67fe70f12cef9cbc84311687,,,,,,,,,,,,,,,,,,,,,,No Brainslug No Barriers No Money,0,images/assets/snowy_original.jpg,learning,10,images/assets/success.jpg,images/assets/gameover.jpg,,,,,,,,,,,,,0,7,7,10,1,,,,,,,,,,,,,,,,,,,,,,,,,,,,,,,,
,,,,,,,,,,,,67fc56e2b76355e0dcb30d27,001,3,2025-04-15_11h06.51.261,avatar_quest_3AFC_legacy,2022.1.3,Win32,59.88023952,67fc56e2b76355e0dcb30d27,67fe6e666cecbc9329ddf6d6,67fe70f12cef9cbc84311687,,,,,,,,,,,,,,,,,,,,,,No Brainslug Difficult 1 No Money,6,images/assets/snowy_original.jpg,learning,20,images/assets/success.jpg,images/assets/gameover.jpg,,,,,,,,,,,,,0,8,8,6,1,,,,,,,,,,,,,,,,,,,,,,,,,,,,,,,,
,,,,,,,,,,,,67fc56e2b76355e0dcb30d27,001,3,2025-04-15_11h06.51.261,avatar_quest_3AFC_legacy,2022.1.3,Win32,59.88023952,67fc56e2b76355e0dcb30d27,67fe6e666cecbc9329ddf6d6,67fe70f12cef9cbc84311687,,,,,,,,,,,,,,,,,,,,,,No Brainslug No Barriers With Money,0,images/assets/snowy_money.jpg,learning,10,images/assets/success_money.jpg,images/assets/gameover.jpg,,,,,,,,,,,,,0,9,9,9,1,,,,,,,,,,,,,,,,,,,,,,,,,,,,,,,,
,,,,,,,,,,,,67fc56e2b76355e0dcb30d27,001,3,2025-04-15_11h06.51.261,avatar_quest_3AFC_legacy,2022.1.3,Win32,59.88023952,67fc56e2b76355e0dcb30d27,67fe6e666cecbc9329ddf6d6,67fe70f12cef9cbc84311687,,,,,,,,,,,,,,,,,,,,,,With Brainslug Difficult 1 With Money,6,images/assets/snowy_money.jpg,learning,20,images/assets/success_money.jpg,images/assets/gameover.jpg,,,,,,,,,,,,,0,10,10,0,1,,,,,,,,,,,,,,,,,,,,,,,,,,,,,,,,
,,,,,,,,,,,,67fc56e2b76355e0dcb30d27,001,3,2025-04-15_11h06.51.261,avatar_quest_3AFC_legacy,2022.1.3,Win32,59.88023952,67fc56e2b76355e0dcb30d27,67fe6e666cecbc9329ddf6d6,67fe70f12cef9cbc84311687,,,,,,,,,,,,,,,,,,,,,,,,,,,,,,,,,,,,,,,,,,,,,,,,,,,,,,,6,0,6,0,1,,,,,,,,,,,,,,,,,,
,,,,,,,,,,,,67fc56e2b76355e0dcb30d27,001,3,2025-04-15_11h06.51.261,avatar_quest_3AFC_legacy,2022.1.3,Win32,59.88023952,67fc56e2b76355e0dcb30d27,67fe6e666cecbc9329ddf6d6,67fe70f12cef9cbc84311687,,,,,,,,,,,,,,,,,,,,,,No Brainslug Difficult 2 No Money,12,images/assets/snowy_original.jpg,learning,20,images/assets/success.jpg,images/assets/gameover.jpg,,,,,,,,With Brainslug Difficult 1 No Money,With Brainslug Difficult 1 No Money,left,4.0553,"[""With Brainslug Difficult 2 No Money"",""With Brainslug Difficult 2 With Money""]",0,0,0,8,1,,,,,,,,,,,,,,,,,,,,,,,,,,,,,,,,
,,,,,,,,,,,,67fc56e2b76355e0dcb30d27,001,3,2025-04-15_11h06.51.261,avatar_quest_3AFC_legacy,2022.1.3,Win32,59.88023952,67fc56e2b76355e0dcb30d27,67fe6e666cecbc9329ddf6d6,67fe70f12cef9cbc84311687,,,,,,,,,,,,,,,,,,,,,,No Brainslug Difficult 2 With Money,12,images/assets/snowy_money.jpg,learning,20,images/assets/success_money.jpg,images/assets/gameover.jpg,,,,,,,,,,,,,0,1,1,7,1,,,,,,,,,,,,,,,,,,,,,,,,,,,,,,,,
,,,,,,,,,,,,67fc56e2b76355e0dcb30d27,001,3,2025-04-15_11h06.51.261,avatar_quest_3AFC_legacy,2022.1.3,Win32,59.88023952,67fc56e2b76355e0dcb30d27,67fe6e666cecbc9329ddf6d6,67fe70f12cef9cbc84311687,,,,,,,,,,,,,,,,,,,,,,With Brainslug Difficult 1 With Money,6,images/assets/snowy_money.jpg,learning,20,images/assets/success_money.jpg,images/assets/gameover.jpg,,,,,,,,,,,,,0,2,2,0,1,,,,,,,,,,,,,,,,,,,,,,,,,,,,,,,,
,,,,,,,,,,,,67fc56e2b76355e0dcb30d27,001,3,2025-04-15_11h06.51.261,avatar_quest_3AFC_legacy,2022.1.3,Win32,59.88023952,67fc56e2b76355e0dcb30d27,67fe6e666cecbc9329ddf6d6,67fe70f12cef9cbc84311687,,,,,,,,,,,,,,,,,,,,,,With Brainslug Difficult 2 No Money,12,images/assets/snowy_original.jpg,learning,20,images/assets/success.jpg,images/assets/gameover.jpg,,,,,,,,,,,,,0,3,3,3,1,,,,,,,,,,,,,,,,,,,,,,,,,,,,,,,,
,,,,,,,,,,,,67fc56e2b76355e0dcb30d27,001,3,2025-04-15_11h06.51.261,avatar_quest_3AFC_legacy,2022.1.3,Win32,59.88023952,67fc56e2b76355e0dcb30d27,67fe6e666cecbc9329ddf6d6,67fe70f12cef9cbc84311687,,,,,,,,,,,,,,,,,,,,,,With Brainslug No Barriers With Money,0,images/assets/snowy_money.jpg,learning,10,images/assets/success_money.jpg,images/assets/gameover.jpg,,,,,,,,,,,,,0,4,4,4,1,,,,,,,,,,,,,,,,,,,,,,,,,,,,,,,,
,,,,,,,,,,,,67fc56e2b76355e0dcb30d27,001,3,2025-04-15_11h06.51.261,avatar_quest_3AFC_legacy,2022.1.3,Win32,59.88023952,67fc56e2b76355e0dcb30d27,67fe6e666cecbc9329ddf6d6,67fe70f12cef9cbc84311687,,,,,,,,,,,,,,,,,,,,,,With Brainslug Difficult 2 With Money,12,images/assets/snowy_money.jpg,learning,20,images/assets/success_money.jpg,images/assets/gameover.jpg,,,,,,,,,,,,,0,5,5,2,1,,,,,,,,,,,,,,,,,,,,,,,,,,,,,,,,
,,,,,,,,,,,,67fc56e2b76355e0dcb30d27,001,3,2025-04-15_11h06.51.261,avatar_quest_3AFC_legacy,2022.1.3,Win32,59.88023952,67fc56e2b76355e0dcb30d27,67fe6e666cecbc9329ddf6d6,67fe70f12cef9cbc84311687,,,,,,,,,,,,,,,,,,,,,,No Brainslug No Barriers With Money,0,images/assets/snowy_money.jpg,learning,10,images/assets/success_money.jpg,images/assets/gameover.jpg,,,,,,,,,,,,,0,6,6,9,1,,,,,,,,,,,,,,,,,,,,,,,,,,,,,,,,
,,,,,,,,,,,,67fc56e2b76355e0dcb30d27,001,3,2025-04-15_11h06.51.261,avatar_quest_3AFC_legacy,2022.1.3,Win32,59.88023952,67fc56e2b76355e0dcb30d27,67fe6e666cecbc9329ddf6d6,67fe70f12cef9cbc84311687,,,,,,,,,,,,,,,,,,,,,,No Brainslug No Barriers No Money,0,images/assets/snowy_original.jpg,learning,10,images/assets/success.jpg,images/assets/gameover.jpg,,,,,,,,,,,,,0,7,7,10,1,,,,,,,,,,,,,,,,,,,,,,,,,,,,,,,,
,,,,,,,,,,,,67fc56e2b76355e0dcb30d27,001,3,2025-04-15_11h06.51.261,avatar_quest_3AFC_legacy,2022.1.3,Win32,59.88023952,67fc56e2b76355e0dcb30d27,67fe6e666cecbc9329ddf6d6,67fe70f12cef9cbc84311687,,,,,,,,,,,,,,,,,,,,,,No Brainslug Difficult 1 No Money,6,images/assets/snowy_original.jpg,learning,20,images/assets/success.jpg,images/assets/gameover.jpg,,,,,,,,,,,,,0,8,8,6,1,,,,,,,,,,,,,,,,,,,,,,,,,,,,,,,,
,,,,,,,,,,,,67fc56e2b76355e0dcb30d27,001,3,2025-04-15_11h06.51.261,avatar_quest_3AFC_legacy,2022.1.3,Win32,59.88023952,67fc56e2b76355e0dcb30d27,67fe6e666cecbc9329ddf6d6,67fe70f12cef9cbc84311687,"[""left"",""left"",""left"",""left"",""left"",""left"",""left"",""left"",""right"",""right"",""right"",""left"",""left"",""left"",""right"",""right"",""right"",""right"",""right"",""right"",""left"",""left"",""left"",""left""]","[0.9831000000238532,1.3693000000119184,1.9226999999880832,2.176899999976172,2.5346000000238575,2.739300000011923,2.9976000000238514,3.26010000002384,3.5341999999880898,3.785399999976164,3.9613000000119314,4.2263999999761666,4.591000000000008,4.812399999976151,5.258600000023847,5.497100000023835,5.699399999976151,5.903999999999996,6.110300000011932,6.306699999988098,6.700500000000005,6.997000000000014,7.197100000023852,7.636699999988082]",,calibration,With Brainslug Difficult 1 No Money,11,10.42565,8.0664,13,3,0,TRUE,na,na,na,na,,,,,,,,,,,,,,,,,,,,,,,,,,,,,,,,,,0,0,0,0,1,,,,,,,,,,,,,,,,,,,,,,,
,,,,,,,,,,,,67fc56e2b76355e0dcb30d27,001,3,2025-04-15_11h06.51.261,avatar_quest_3AFC_legacy,2022.1.3,Win32,59.88023952,67fc56e2b76355e0dcb30d27,67fe6e666cecbc9329ddf6d6,67fe70f12cef9cbc84311687,,,,,,,,,,,,,,,,,,,,,,With Brainslug Difficult 1 No Money,6,images/assets/snowy_original.jpg,learning,20,images/assets/success.jpg,images/assets/gameover.jpg,,,,,,,,,,,,,0,9,9,1,1,,,,,,,,,,,,,,,,,,,,,,,,,,,,,,,,
,,,,,,,,,,,,67fc56e2b76355e0dcb30d27,001,3,2025-04-15_11h06.51.261,avatar_quest_3AFC_legacy,2022.1.3,Win32,59.88023952,67fc56e2b76355e0dcb30d27,67fe6e666cecbc9329ddf6d6,67fe70f12cef9cbc84311687,,,,,,,,,,,,,,,,,,,,,,With Brainslug No Barriers No Money,0,images/assets/snowy_original.jpg,learning,10,images/assets/success.jpg,images/assets/gameover.jpg,,,,,,,,,,,,,0,10,10,5,1,,,,,,,,,,,,,,,,,,,,,,,,,,,,,,,,
,,,,,,,,,,,,67fc56e2b76355e0dcb30d27,001,3,2025-04-15_11h06.51.261,avatar_quest_3AFC_legacy,2022.1.3,Win32,59.88023952,67fc56e2b76355e0dcb30d27,67fe6e666cecbc9329ddf6d6,67fe70f12cef9cbc84311687,,,,,,,,,,,,,,,,,,,,,,,,,,,,,,,,,,,,,,,,,,,,,,,,,,,,,,,7,0,7,0,1,,,,,,,,,,,,,,,,,,
,,,,,,,,,,,,67fc56e2b76355e0dcb30d27,001,3,2025-04-15_11h06.51.261,avatar_quest_3AFC_legacy,2022.1.3,Win32,59.88023952,67fc56e2b76355e0dcb30d27,67fe6e666cecbc9329ddf6d6,67fe70f12cef9cbc84311687,,,,,,,,,,,,,,,,,,,,,,With Brainslug Difficult 2 With Money,12,images/assets/snowy_money.jpg,learning,20,images/assets/success_money.jpg,images/assets/gameover.jpg,,,,,,,,With Brainslug Difficult 1 No Money,With Brainslug Difficult 1 No Money,left,4.1107,"[""With Brainslug Difficult 2 No Money"",""With Brainslug Difficult 2 With Money""]",0,0,0,2,1,,,,,,,,,,,,,,,,,,,,,,,,,,,,,,,,
,,,,,,,,,,,,67fc56e2b76355e0dcb30d27,001,3,2025-04-15_11h06.51.261,avatar_quest_3AFC_legacy,2022.1.3,Win32,59.88023952,67fc56e2b76355e0dcb30d27,67fe6e666cecbc9329ddf6d6,67fe70f12cef9cbc84311687,,,,,,,,,,,,,,,,,,,,,,With Brainslug No Barriers With Money,0,images/assets/snowy_money.jpg,learning,10,images/assets/success_money.jpg,images/assets/gameover.jpg,,,,,,,,,,,,,0,1,1,4,1,,,,,,,,,,,,,,,,,,,,,,,,,,,,,,,,
,,,,,,,,,,,,67fc56e2b76355e0dcb30d27,001,3,2025-04-15_11h06.51.261,avatar_quest_3AFC_legacy,2022.1.3,Win32,59.88023952,67fc56e2b76355e0dcb30d27,67fe6e666cecbc9329ddf6d6,67fe70f12cef9cbc84311687,,,,,,,,,,,,,,,,,,,,,,With Brainslug Difficult 1 With Money,6,images/assets/snowy_money.jpg,learning,20,images/assets/success_money.jpg,images/assets/gameover.jpg,,,,,,,,,,,,,0,2,2,0,1,,,,,,,,,,,,,,,,,,,,,,,,,,,,,,,,
,,,,,,,,,,,,67fc56e2b76355e0dcb30d27,001,3,2025-04-15_11h06.51.261,avatar_quest_3AFC_legacy,2022.1.3,Win32,59.88023952,67fc56e2b76355e0dcb30d27,67fe6e666cecbc9329ddf6d6,67fe70f12cef9cbc84311687,"[""left"",""left"",""left"",""left"",""left"",""left"",""left"",""left"",""right"",""right"",""right"",""left"",""left"",""left"",""left"",""left"",""right"",""right"",""right"",""right"",""right"",""right""]","[0.8298999999761634,1.1998000000118907,1.4141999999880852,1.619600000023837,1.866399999976096,2.0868999999761115,2.3404999999999916,2.615600000023818,2.992300000011909,3.2218999999761024,3.3854999999999507,3.62160000002379,3.9371000000238325,4.132100000023769,4.344999999999999,4.630199999988093,4.967499999999944,5.195300000011883,5.392399999976163,5.599500000000006,6.015499999999946,6.518000000000001]",,calibration,With Brainslug Difficult 1 No Money,12,10.42565,6.7821,9,2,0,TRUE,na,na,na,na,,,,,,,,,,,,,,,,,,,,,,,,,,,,,,,,,,0,0,0,0,1,,,,,,,,,,,,,,,,,,,,,,,
,,,,,,,,,,,,67fc56e2b76355e0dcb30d27,001,3,2025-04-15_11h06.51.261,avatar_quest_3AFC_legacy,2022.1.3,Win32,59.88023952,67fc56e2b76355e0dcb30d27,67fe6e666cecbc9329ddf6d6,67fe70f12cef9cbc84311687,,,,,,,,,,,,,,,,,,,,,,With Brainslug Difficult 1 No Money,6,images/assets/snowy_original.jpg,learning,20,images/assets/success.jpg,images/assets/gameover.jpg,,,,,,,,,,,,,0,3,3,1,1,,,,,,,,,,,,,,,,,,,,,,,,,,,,,,,,
,,,,,,,,,,,,67fc56e2b76355e0dcb30d27,001,3,2025-04-15_11h06.51.261,avatar_quest_3AFC_legacy,2022.1.3,Win32,59.88023952,67fc56e2b76355e0dcb30d27,67fe6e666cecbc9329ddf6d6,67fe70f12cef9cbc84311687,,,,,,,,,,,,,,,,,,,,,,With Brainslug Difficult 2 No Money,12,images/assets/snowy_original.jpg,learning,20,images/assets/success.jpg,images/assets/gameover.jpg,,,,,,,,,,,,,0,4,4,3,1,,,,,,,,,,,,,,,,,,,,,,,,,,,,,,,,
,,,,,,,,,,,,67fc56e2b76355e0dcb30d27,001,3,2025-04-15_11h06.51.261,avatar_quest_3AFC_legacy,2022.1.3,Win32,59.88023952,67fc56e2b76355e0dcb30d27,67fe6e666cecbc9329ddf6d6,67fe70f12cef9cbc84311687,,,,,,,,,,,,,,,,,,,,,,No Brainslug Difficult 2 With Money,12,images/assets/snowy_money.jpg,learning,20,images/assets/success_money.jpg,images/assets/gameover.jpg,,,,,,,,,,,,,0,5,5,7,1,,,,,,,,,,,,,,,,,,,,,,,,,,,,,,,,
,,,,,,,,,,,,67fc56e2b76355e0dcb30d27,001,3,2025-04-15_11h06.51.261,avatar_quest_3AFC_legacy,2022.1.3,Win32,59.88023952,67fc56e2b76355e0dcb30d27,67fe6e666cecbc9329ddf6d6,67fe70f12cef9cbc84311687,,,,,,,,,,,,,,,,,,,,,,No Brainslug Difficult 1 No Money,6,images/assets/snowy_original.jpg,learning,20,images/assets/success.jpg,images/assets/gameover.jpg,,,,,,,,,,,,,0,6,6,6,1,,,,,,,,,,,,,,,,,,,,,,,,,,,,,,,,
,,,,,,,,,,,,67fc56e2b76355e0dcb30d27,001,3,2025-04-15_11h06.51.261,avatar_quest_3AFC_legacy,2022.1.3,Win32,59.88023952,67fc56e2b76355e0dcb30d27,67fe6e666cecbc9329ddf6d6,67fe70f12cef9cbc84311687,,,,,,,,,,,,,,,,,,,,,,No Brainslug Difficult 2 No Money,12,images/assets/snowy_original.jpg,learning,20,images/assets/success.jpg,images/assets/gameover.jpg,,,,,,,,,,,,,0,7,7,8,1,,,,,,,,,,,,,,,,,,,,,,,,,,,,,,,,
,,,,,,,,,,,,67fc56e2b76355e0dcb30d27,001,3,2025-04-15_11h06.51.261,avatar_quest_3AFC_legacy,2022.1.3,Win32,59.88023952,67fc56e2b76355e0dcb30d27,67fe6e666cecbc9329ddf6d6,67fe70f12cef9cbc84311687,,,,,,,,,,,,,,,,,,,,,,No Brainslug No Barriers No Money,0,images/assets/snowy_original.jpg,learning,10,images/assets/success.jpg,images/assets/gameover.jpg,,,,,,,,,,,,,0,8,8,10,1,,,,,,,,,,,,,,,,,,,,,,,,,,,,,,,,
,,,,,,,,,,,,67fc56e2b76355e0dcb30d27,001,3,2025-04-15_11h06.51.261,avatar_quest_3AFC_legacy,2022.1.3,Win32,59.88023952,67fc56e2b76355e0dcb30d27,67fe6e666cecbc9329ddf6d6,67fe70f12cef9cbc84311687,,,,,,,,,,,,,,,,,,,,,,No Brainslug No Barriers With Money,0,images/assets/snowy_money.jpg,learning,10,images/assets/success_money.jpg,images/assets/gameover.jpg,,,,,,,,,,,,,0,9,9,9,1,,,,,,,,,,,,,,,,,,,,,,,,,,,,,,,,
,,,,,,,,,,,,67fc56e2b76355e0dcb30d27,001,3,2025-04-15_11h06.51.261,avatar_quest_3AFC_legacy,2022.1.3,Win32,59.88023952,67fc56e2b76355e0dcb30d27,67fe6e666cecbc9329ddf6d6,67fe70f12cef9cbc84311687,,,,,,,,,,,,,,,,,,,,,,With Brainslug No Barriers No Money,0,images/assets/snowy_original.jpg,learning,10,images/assets/success.jpg,images/assets/gameover.jpg,,,,,,,,,,,,,0,10,10,5,1,,,,,,,,,,,,,,,,,,,,,,,,,,,,,,,,
,,,,,,,,,,,,67fc56e2b76355e0dcb30d27,001,3,2025-04-15_11h06.51.261,avatar_quest_3AFC_legacy,2022.1.3,Win32,59.88023952,67fc56e2b76355e0dcb30d27,67fe6e666cecbc9329ddf6d6,67fe70f12cef9cbc84311687,,,,,,,,,,,,,,,,,,,,,,,,,,,,,,,,,,,,,,,,,,,,,,,,,,,,,,,8,0,8,0,1,,,,,,,,,,,,,,,,,,
,,,,,,,,,,,,67fc56e2b76355e0dcb30d27,001,3,2025-04-15_11h06.51.261,avatar_quest_3AFC_legacy,2022.1.3,Win32,59.88023952,67fc56e2b76355e0dcb30d27,67fe6e666cecbc9329ddf6d6,67fe70f12cef9cbc84311687,,,,,,,,,,,,,,,,,,,,,,With Brainslug Difficult 2 With Money,12,images/assets/snowy_money.jpg,learning,20,images/assets/success_money.jpg,images/assets/gameover.jpg,,,,,,,,With Brainslug Difficult 1 No Money,With Brainslug Difficult 1 No Money,left,2.1672,"[""With Brainslug Difficult 2 No Money"",""With Brainslug Difficult 2 With Money""]",0,0,0,2,1,,,,,,,,,,,,,,,,,,,,,,,,,,,,,,,,
,,,,,,,,,,,,67fc56e2b76355e0dcb30d27,001,3,2025-04-15_11h06.51.261,avatar_quest_3AFC_legacy,2022.1.3,Win32,59.88023952,67fc56e2b76355e0dcb30d27,67fe6e666cecbc9329ddf6d6,67fe70f12cef9cbc84311687,,,,,,,,,,,,,,,,,,,,,,No Brainslug Difficult 1 No Money,6,images/assets/snowy_original.jpg,learning,20,images/assets/success.jpg,images/assets/gameover.jpg,,,,,,,,,,,,,0,1,1,6,1,,,,,,,,,,,,,,,,,,,,,,,,,,,,,,,,
,,,,,,,,,,,,67fc56e2b76355e0dcb30d27,001,3,2025-04-15_11h06.51.261,avatar_quest_3AFC_legacy,2022.1.3,Win32,59.88023952,67fc56e2b76355e0dcb30d27,67fe6e666cecbc9329ddf6d6,67fe70f12cef9cbc84311687,,,,,,,,,,,,,,,,,,,,,,With Brainslug Difficult 1 With Money,6,images/assets/snowy_money.jpg,learning,20,images/assets/success_money.jpg,images/assets/gameover.jpg,,,,,,,,,,,,,0,2,2,0,1,,,,,,,,,,,,,,,,,,,,,,,,,,,,,,,,
,,,,,,,,,,,,67fc56e2b76355e0dcb30d27,001,3,2025-04-15_11h06.51.261,avatar_quest_3AFC_legacy,2022.1.3,Win32,59.88023952,67fc56e2b76355e0dcb30d27,67fe6e666cecbc9329ddf6d6,67fe70f12cef9cbc84311687,"[""left"",""left"",""left"",""left"",""left"",""left"",""right"",""right"",""right"",""right"",""left"",""left"",""left"",""left"",""left"",""left"",""left"",""left"",""left"",""left"",""left"",""right"",""right"",""right"",""left"",""left"",""left"",""left"",""left"",""left"",""left"",""left""]","[1.2276000000238128,1.3418000000118582,1.6289999999999054,1.9511000000237573,2.4669999999999845,2.934100000023818,3.1264999999999645,3.379800000011869,3.5519000000357437,3.7471000000238064,3.9973000000119328,4.457199999988006,4.711500000000001,4.99819999998806,5.210400000035747,5.419900000035682,5.634600000023852,5.843499999999949,6.026800000011917,6.245300000011866,6.609100000023773,6.930999999999926,7.138499999999908,7.32730000001186,7.904600000023834,8.109900000035736,8.324999999999932,8.569900000035773,8.811199999988048,9.065900000035754,9.409699999987993,9.651100000023803]",,calibration,With Brainslug Difficult 1 No Money,13,10.42565,10.1258,13,4,0,TRUE,na,na,na,na,,,,,,,,,,,,,,,,,,,,,,,,,,,,,,,,,,0,0,0,0,1,,,,,,,,,,,,,,,,,,,,,,,
,,,,,,,,,,,,67fc56e2b76355e0dcb30d27,001,3,2025-04-15_11h06.51.261,avatar_quest_3AFC_legacy,2022.1.3,Win32,59.88023952,67fc56e2b76355e0dcb30d27,67fe6e666cecbc9329ddf6d6,67fe70f12cef9cbc84311687,,,,,,,,,,,,,,,,,,,,,,With Brainslug Difficult 1 No Money,6,images/assets/snowy_original.jpg,learning,20,images/assets/success.jpg,images/assets/gameover.jpg,,,,,,,,,,,,,0,3,3,1,1,,,,,,,,,,,,,,,,,,,,,,,,,,,,,,,,
,,,,,,,,,,,,67fc56e2b76355e0dcb30d27,001,3,2025-04-15_11h06.51.261,avatar_quest_3AFC_legacy,2022.1.3,Win32,59.88023952,67fc56e2b76355e0dcb30d27,67fe6e666cecbc9329ddf6d6,67fe70f12cef9cbc84311687,,,,,,,,,,,,,,,,,,,,,,With Brainslug Difficult 2 No Money,12,images/assets/snowy_original.jpg,learning,20,images/assets/success.jpg,images/assets/gameover.jpg,,,,,,,,,,,,,0,4,4,3,1,,,,,,,,,,,,,,,,,,,,,,,,,,,,,,,,
,,,,,,,,,,,,67fc56e2b76355e0dcb30d27,001,3,2025-04-15_11h06.51.261,avatar_quest_3AFC_legacy,2022.1.3,Win32,59.88023952,67fc56e2b76355e0dcb30d27,67fe6e666cecbc9329ddf6d6,67fe70f12cef9cbc84311687,,,,,,,,,,,,,,,,,,,,,,With Brainslug No Barriers With Money,0,images/assets/snowy_money.jpg,learning,10,images/assets/success_money.jpg,images/assets/gameover.jpg,,,,,,,,,,,,,0,5,5,4,1,,,,,,,,,,,,,,,,,,,,,,,,,,,,,,,,
,,,,,,,,,,,,67fc56e2b76355e0dcb30d27,001,3,2025-04-15_11h06.51.261,avatar_quest_3AFC_legacy,2022.1.3,Win32,59.88023952,67fc56e2b76355e0dcb30d27,67fe6e666cecbc9329ddf6d6,67fe70f12cef9cbc84311687,,,,,,,,,,,,,,,,,,,,,,No Brainslug Difficult 2 With Money,12,images/assets/snowy_money.jpg,learning,20,images/assets/success_money.jpg,images/assets/gameover.jpg,,,,,,,,,,,,,0,6,6,7,1,,,,,,,,,,,,,,,,,,,,,,,,,,,,,,,,
,,,,,,,,,,,,67fc56e2b76355e0dcb30d27,001,3,2025-04-15_11h06.51.261,avatar_quest_3AFC_legacy,2022.1.3,Win32,59.88023952,67fc56e2b76355e0dcb30d27,67fe6e666cecbc9329ddf6d6,67fe70f12cef9cbc84311687,,,,,,,,,,,,,,,,,,,,,,With Brainslug No Barriers No Money,0,images/assets/snowy_original.jpg,learning,10,images/assets/success.jpg,images/assets/gameover.jpg,,,,,,,,,,,,,0,7,7,5,1,,,,,,,,,,,,,,,,,,,,,,,,,,,,,,,,
,,,,,,,,,,,,67fc56e2b76355e0dcb30d27,001,3,2025-04-15_11h06.51.261,avatar_quest_3AFC_legacy,2022.1.3,Win32,59.88023952,67fc56e2b76355e0dcb30d27,67fe6e666cecbc9329ddf6d6,67fe70f12cef9cbc84311687,,,,,,,,,,,,,,,,,,,,,,No Brainslug Difficult 2 No Money,12,images/assets/snowy_original.jpg,learning,20,images/assets/success.jpg,images/assets/gameover.jpg,,,,,,,,,,,,,0,8,8,8,1,,,,,,,,,,,,,,,,,,,,,,,,,,,,,,,,
,,,,,,,,,,,,67fc56e2b76355e0dcb30d27,001,3,2025-04-15_11h06.51.261,avatar_quest_3AFC_legacy,2022.1.3,Win32,59.88023952,67fc56e2b76355e0dcb30d27,67fe6e666cecbc9329ddf6d6,67fe70f12cef9cbc84311687,,,,,,,,,,,,,,,,,,,,,,No Brainslug No Barriers No Money,0,images/assets/snowy_original.jpg,learning,10,images/assets/success.jpg,images/assets/gameover.jpg,,,,,,,,,,,,,0,9,9,10,1,,,,,,,,,,,,,,,,,,,,,,,,,,,,,,,,
,,,,,,,,,,,,67fc56e2b76355e0dcb30d27,001,3,2025-04-15_11h06.51.261,avatar_quest_3AFC_legacy,2022.1.3,Win32,59.88023952,67fc56e2b76355e0dcb30d27,67fe6e666cecbc9329ddf6d6,67fe70f12cef9cbc84311687,,,,,,,,,,,,,,,,,,,,,,No Brainslug No Barriers With Money,0,images/assets/snowy_money.jpg,learning,10,images/assets/success_money.jpg,images/assets/gameover.jpg,,,,,,,,,,,,,0,10,10,9,1,,,,,,,,,,,,,,,,,,,,,,,,,,,,,,,,
,,,,,,,,,,,,67fc56e2b76355e0dcb30d27,001,3,2025-04-15_11h06.51.261,avatar_quest_3AFC_legacy,2022.1.3,Win32,59.88023952,67fc56e2b76355e0dcb30d27,67fe6e666cecbc9329ddf6d6,67fe70f12cef9cbc84311687,,,,,,,,,,,,,,,,,,,,,,,,,,,,,,,,,,,,,,,,,,,,,,,,,,,,,,,9,0,9,0,1,,,,,,,,,,,,,,,,,,
,,,,,,,,,,,,67fc56e2b76355e0dcb30d27,001,3,2025-04-15_11h06.51.261,avatar_quest_3AFC_legacy,2022.1.3,Win32,59.88023952,67fc56e2b76355e0dcb30d27,67fe6e666cecbc9329ddf6d6,67fe70f12cef9cbc84311687,,,,,,,,,,,,,,,,,,,,,,No Brainslug No Barriers No Money,0,images/assets/snowy_original.jpg,learning,10,images/assets/success.jpg,images/assets/gameover.jpg,,,,,,,,With Brainslug Difficult 1 No Money,With Brainslug Difficult 1 No Money,left,1.3186,"[""With Brainslug Difficult 2 No Money"",""With Brainslug Difficult 2 With Money""]",0,0,0,10,1,,,,,,,,,,,,,,,,,,,,,,,,,,,,,,,,
,,,,,,,,,,,,67fc56e2b76355e0dcb30d27,001,3,2025-04-15_11h06.51.261,avatar_quest_3AFC_legacy,2022.1.3,Win32,59.88023952,67fc56e2b76355e0dcb30d27,67fe6e666cecbc9329ddf6d6,67fe70f12cef9cbc84311687,"[""left"",""left"",""right"",""right"",""right"",""right"",""right"",""right"",""right"",""left"",""left"",""left"",""left"",""left"",""left"",""left"",""left"",""left"",""left"",""right"",""right"",""right"",""right"",""left"",""left"",""left"",""left""]","[0.7109000000357355,1.1954999999999245,2.7835000000000036,3.0251999999881036,3.2301000000238673,3.3953000000118436,3.593499999999949,3.7938000000118564,3.9891999999880454,4.359600000023875,4.783999999999992,5.036999999999921,5.291400000035765,5.495499999999993,5.7288000000119155,5.91700000000003,6.124199999988036,6.335500000000025,6.567900000035706,6.616900000035685,6.8315000000000055,7.019100000023855,7.206999999999994,7.522600000023772,7.835800000011886,8.07469999998807,8.400999999999954]",,calibration,With Brainslug Difficult 1 No Money,14,10.42565,8.8016,13,4,0,TRUE,na,na,na,na,,,,,,,,,,,,,,,,,,,,,,,,,,,,,,,,,,0,0,0,0,1,,,,,,,,,,,,,,,,,,,,,,,
,,,,,,,,,,,,67fc56e2b76355e0dcb30d27,001,3,2025-04-15_11h06.51.261,avatar_quest_3AFC_legacy,2022.1.3,Win32,59.88023952,67fc56e2b76355e0dcb30d27,67fe6e666cecbc9329ddf6d6,67fe70f12cef9cbc84311687,,,,,,,,,,,,,,,,,,,,,,With Brainslug Difficult 1 No Money,6,images/assets/snowy_original.jpg,learning,20,images/assets/success.jpg,images/assets/gameover.jpg,,,,,,,,,,,,,0,1,1,1,1,,,,,,,,,,,,,,,,,,,,,,,,,,,,,,,,
,,,,,,,,,,,,67fc56e2b76355e0dcb30d27,001,3,2025-04-15_11h06.51.261,avatar_quest_3AFC_legacy,2022.1.3,Win32,59.88023952,67fc56e2b76355e0dcb30d27,67fe6e666cecbc9329ddf6d6,67fe70f12cef9cbc84311687,,,,,,,,,,,,,,,,,,,,,,No Brainslug No Barriers With Money,0,images/assets/snowy_money.jpg,learning,10,images/assets/success_money.jpg,images/assets/gameover.jpg,,,,,,,,,,,,,0,2,2,9,1,,,,,,,,,,,,,,,,,,,,,,,,,,,,,,,,
,,,,,,,,,,,,67fc56e2b76355e0dcb30d27,001,3,2025-04-15_11h06.51.261,avatar_quest_3AFC_legacy,2022.1.3,Win32,59.88023952,67fc56e2b76355e0dcb30d27,67fe6e666cecbc9329ddf6d6,67fe70f12cef9cbc84311687,,,,,,,,,,,,,,,,,,,,,,With Brainslug Difficult 1 With Money,6,images/assets/snowy_money.jpg,learning,20,images/assets/success_money.jpg,images/assets/gameover.jpg,,,,,,,,,,,,,0,3,3,0,1,,,,,,,,,,,,,,,,,,,,,,,,,,,,,,,,
,,,,,,,,,,,,67fc56e2b76355e0dcb30d27,001,3,2025-04-15_11h06.51.261,avatar_quest_3AFC_legacy,2022.1.3,Win32,59.88023952,67fc56e2b76355e0dcb30d27,67fe6e666cecbc9329ddf6d6,67fe70f12cef9cbc84311687,,,,,,,,,,,,,,,,,,,,,,With Brainslug Difficult 2 With Money,12,images/assets/snowy_money.jpg,learning,20,images/assets/success_money.jpg,images/assets/gameover.jpg,,,,,,,,,,,,,0,4,4,2,1,,,,,,,,,,,,,,,,,,,,,,,,,,,,,,,,
,,,,,,,,,,,,67fc56e2b76355e0dcb30d27,001,3,2025-04-15_11h06.51.261,avatar_quest_3AFC_legacy,2022.1.3,Win32,59.88023952,67fc56e2b76355e0dcb30d27,67fe6e666cecbc9329ddf6d6,67fe70f12cef9cbc84311687,,,,,,,,,,,,,,,,,,,,,,No Brainslug Difficult 2 With Money,12,images/assets/snowy_money.jpg,learning,20,images/assets/success_money.jpg,images/assets/gameover.jpg,,,,,,,,,,,,,0,5,5,7,1,,,,,,,,,,,,,,,,,,,,,,,,,,,,,,,,
,,,,,,,,,,,,67fc56e2b76355e0dcb30d27,001,3,2025-04-15_11h06.51.261,avatar_quest_3AFC_legacy,2022.1.3,Win32,59.88023952,67fc56e2b76355e0dcb30d27,67fe6e666cecbc9329ddf6d6,67fe70f12cef9cbc84311687,,,,,,,,,,,,,,,,,,,,,,No Brainslug Difficult 1 No Money,6,images/assets/snowy_original.jpg,learning,20,images/assets/success.jpg,images/assets/gameover.jpg,,,,,,,,,,,,,0,6,6,6,1,,,,,,,,,,,,,,,,,,,,,,,,,,,,,,,,
,,,,,,,,,,,,67fc56e2b76355e0dcb30d27,001,3,2025-04-15_11h06.51.261,avatar_quest_3AFC_legacy,2022.1.3,Win32,59.88023952,67fc56e2b76355e0dcb30d27,67fe6e666cecbc9329ddf6d6,67fe70f12cef9cbc84311687,,,,,,,,,,,,,,,,,,,,,,With Brainslug Difficult 2 No Money,12,images/assets/snowy_original.jpg,learning,20,images/assets/success.jpg,images/assets/gameover.jpg,,,,,,,,,,,,,0,7,7,3,1,,,,,,,,,,,,,,,,,,,,,,,,,,,,,,,,
,,,,,,,,,,,,67fc56e2b76355e0dcb30d27,001,3,2025-04-15_11h06.51.261,avatar_quest_3AFC_legacy,2022.1.3,Win32,59.88023952,67fc56e2b76355e0dcb30d27,67fe6e666cecbc9329ddf6d6,67fe70f12cef9cbc84311687,,,,,,,,,,,,,,,,,,,,,,No Brainslug Difficult 2 No Money,12,images/assets/snowy_original.jpg,learning,20,images/assets/success.jpg,images/assets/gameover.jpg,,,,,,,,,,,,,0,8,8,8,1,,,,,,,,,,,,,,,,,,,,,,,,,,,,,,,,
,,,,,,,,,,,,67fc56e2b76355e0dcb30d27,001,3,2025-04-15_11h06.51.261,avatar_quest_3AFC_legacy,2022.1.3,Win32,59.88023952,67fc56e2b76355e0dcb30d27,67fe6e666cecbc9329ddf6d6,67fe70f12cef9cbc84311687,,,,,,,,,,,,,,,,,,,,,,With Brainslug No Barriers No Money,0,images/assets/snowy_original.jpg,learning,10,images/assets/success.jpg,images/assets/gameover.jpg,,,,,,,,,,,,,0,9,9,5,1,,,,,,,,,,,,,,,,,,,,,,,,,,,,,,,,
,,,,,,,,,,,,67fc56e2b76355e0dcb30d27,001,3,2025-04-15_11h06.51.261,avatar_quest_3AFC_legacy,2022.1.3,Win32,59.88023952,67fc56e2b76355e0dcb30d27,67fe6e666cecbc9329ddf6d6,67fe70f12cef9cbc84311687,,,,,,,,,,,,,,,,,,,,,,With Brainslug No Barriers With Money,0,images/assets/snowy_money.jpg,learning,10,images/assets/success_money.jpg,images/assets/gameover.jpg,,,,,,,,,,,,,0,10,10,4,1,,,,,,,,,,,,,,,,,,,,,,,,,,,,,,,,
,,,,,,,,,,,,67fc56e2b76355e0dcb30d27,001,3,2025-04-15_11h06.51.261,avatar_quest_3AFC_legacy,2022.1.3,Win32,59.88023952,67fc56e2b76355e0dcb30d27,67fe6e666cecbc9329ddf6d6,67fe70f12cef9cbc84311687,,,,,,,,,,,,,,,,,,,,,,,,,,,,,,,,,,,,,,,,,,,,,,,,,,,,,,,10,0,10,0,1,,,,,,,,,,,,,,,,,,
,,,,,,,,,,,,67fc56e2b76355e0dcb30d27,001,3,2025-04-15_11h06.51.261,avatar_quest_3AFC_legacy,2022.1.3,Win32,59.88023952,67fc56e2b76355e0dcb30d27,67fe6e666cecbc9329ddf6d6,67fe70f12cef9cbc84311687,,,,,,,,,,,,,,,,,,,,,,With Brainslug Difficult 2 No Money,12,images/assets/snowy_original.jpg,learning,20,images/assets/success.jpg,images/assets/gameover.jpg,,,,,,,,With Brainslug Difficult 1 No Money,With Brainslug Difficult 1 No Money,left,2.5385,"[""With Brainslug Difficult 2 No Money"",""With Brainslug Difficult 2 With Money""]",0,0,0,3,1,,,,,,,,,,,,,,,,,,,,,,,,,,,,,,,,
,,,,,,,,,,,,67fc56e2b76355e0dcb30d27,001,3,2025-04-15_11h06.51.261,avatar_quest_3AFC_legacy,2022.1.3,Win32,59.88023952,67fc56e2b76355e0dcb30d27,67fe6e666cecbc9329ddf6d6,67fe70f12cef9cbc84311687,,,,,,,,,,,,,,,,,,,,,,No Brainslug Difficult 2 With Money,12,images/assets/snowy_money.jpg,learning,20,images/assets/success_money.jpg,images/assets/gameover.jpg,,,,,,,,,,,,,0,1,1,7,1,,,,,,,,,,,,,,,,,,,,,,,,,,,,,,,,
,,,,,,,,,,,,67fc56e2b76355e0dcb30d27,001,3,2025-04-15_11h06.51.261,avatar_quest_3AFC_legacy,2022.1.3,Win32,59.88023952,67fc56e2b76355e0dcb30d27,67fe6e666cecbc9329ddf6d6,67fe70f12cef9cbc84311687,,,,,,,,,,,,,,,,,,,,,,With Brainslug No Barriers No Money,0,images/assets/snowy_original.jpg,learning,10,images/assets/success.jpg,images/assets/gameover.jpg,,,,,,,,,,,,,0,2,2,5,1,,,,,,,,,,,,,,,,,,,,,,,,,,,,,,,,
,,,,,,,,,,,,67fc56e2b76355e0dcb30d27,001,3,2025-04-15_11h06.51.261,avatar_quest_3AFC_legacy,2022.1.3,Win32,59.88023952,67fc56e2b76355e0dcb30d27,67fe6e666cecbc9329ddf6d6,67fe70f12cef9cbc84311687,,,,,,,,,,,,,,,,,,,,,,With Brainslug No Barriers With Money,0,images/assets/snowy_money.jpg,learning,10,images/assets/success_money.jpg,images/assets/gameover.jpg,,,,,,,,,,,,,0,3,3,4,1,,,,,,,,,,,,,,,,,,,,,,,,,,,,,,,,
,,,,,,,,,,,,67fc56e2b76355e0dcb30d27,001,3,2025-04-15_11h06.51.261,avatar_quest_3AFC_legacy,2022.1.3,Win32,59.88023952,67fc56e2b76355e0dcb30d27,67fe6e666cecbc9329ddf6d6,67fe70f12cef9cbc84311687,,,,,,,,,,,,,,,,,,,,,,No Brainslug Difficult 1 No Money,6,images/assets/snowy_original.jpg,learning,20,images/assets/success.jpg,images/assets/gameover.jpg,,,,,,,,,,,,,0,4,4,6,1,,,,,,,,,,,,,,,,,,,,,,,,,,,,,,,,
,,,,,,,,,,,,67fc56e2b76355e0dcb30d27,001,3,2025-04-15_11h06.51.261,avatar_quest_3AFC_legacy,2022.1.3,Win32,59.88023952,67fc56e2b76355e0dcb30d27,67fe6e666cecbc9329ddf6d6,67fe70f12cef9cbc84311687,,,,,,,,,,,,,,,,,,,,,,No Brainslug No Barriers With Money,0,images/assets/snowy_money.jpg,learning,10,images/assets/success_money.jpg,images/assets/gameover.jpg,,,,,,,,,,,,,0,5,5,9,1,,,,,,,,,,,,,,,,,,,,,,,,,,,,,,,,
,,,,,,,,,,,,67fc56e2b76355e0dcb30d27,001,3,2025-04-15_11h06.51.261,avatar_quest_3AFC_legacy,2022.1.3,Win32,59.88023952,67fc56e2b76355e0dcb30d27,67fe6e666cecbc9329ddf6d6,67fe70f12cef9cbc84311687,,,,,,,,,,,,,,,,,,,,,,No Brainslug Difficult 2 No Money,12,images/assets/snowy_original.jpg,learning,20,images/assets/success.jpg,images/assets/gameover.jpg,,,,,,,,,,,,,0,6,6,8,1,,,,,,,,,,,,,,,,,,,,,,,,,,,,,,,,
,,,,,,,,,,,,67fc56e2b76355e0dcb30d27,001,3,2025-04-15_11h06.51.261,avatar_quest_3AFC_legacy,2022.1.3,Win32,59.88023952,67fc56e2b76355e0dcb30d27,67fe6e666cecbc9329ddf6d6,67fe70f12cef9cbc84311687,,,,,,,,,,,,,,,,,,,,,,No Brainslug No Barriers No Money,0,images/assets/snowy_original.jpg,learning,10,images/assets/success.jpg,images/assets/gameover.jpg,,,,,,,,,,,,,0,7,7,10,1,,,,,,,,,,,,,,,,,,,,,,,,,,,,,,,,
,,,,,,,,,,,,67fc56e2b76355e0dcb30d27,001,3,2025-04-15_11h06.51.261,avatar_quest_3AFC_legacy,2022.1.3,Win32,59.88023952,67fc56e2b76355e0dcb30d27,67fe6e666cecbc9329ddf6d6,67fe70f12cef9cbc84311687,,,,,,,,,,,,,,,,,,,,,,With Brainslug Difficult 2 With Money,12,images/assets/snowy_money.jpg,learning,20,images/assets/success_money.jpg,images/assets/gameover.jpg,,,,,,,,,,,,,0,8,8,2,1,,,,,,,,,,,,,,,,,,,,,,,,,,,,,,,,
,,,,,,,,,,,,67fc56e2b76355e0dcb30d27,001,3,2025-04-15_11h06.51.261,avatar_quest_3AFC_legacy,2022.1.3,Win32,59.88023952,67fc56e2b76355e0dcb30d27,67fe6e666cecbc9329ddf6d6,67fe70f12cef9cbc84311687,"[""left"",""left"",""left"",""right"",""right"",""right"",""right"",""left"",""left"",""left"",""right"",""left"",""right"",""right"",""right"",""left"",""left"",""right"",""right"",""right"",""right"",""left"",""left""]","[0.6218999999761081,0.8479999999999563,1.126199999987989,1.5519999999999072,1.7938999999761336,2.0039999999999054,2.19969999998807,2.5231999999880372,2.891999999999939,3.0823999999761327,3.4874999999999545,3.5556999999880645,3.8299999999999272,4.107199999987984,4.30889999997612,4.690799999952219,5.066199999988044,5.597699999987981,5.885299999952281,6.067399999976146,6.268299999952205,6.584399999976085,6.933299999952283]",,calibration,With Brainslug Difficult 1 No Money,15,10.42565,7.5769,12,2,0,TRUE,na,na,na,na,,,,,,,,,,,,,,,,,,,,,,,,,,,,,,,,,,0,0,0,0,1,,,,,,,,,,,,,,,,,,,,,,,
,,,,,,,,,,,,67fc56e2b76355e0dcb30d27,001,3,2025-04-15_11h06.51.261,avatar_quest_3AFC_legacy,2022.1.3,Win32,59.88023952,67fc56e2b76355e0dcb30d27,67fe6e666cecbc9329ddf6d6,67fe70f12cef9cbc84311687,,,,,,,,,,,,,,,,,,,,,,With Brainslug Difficult 1 No Money,6,images/assets/snowy_original.jpg,learning,20,images/assets/success.jpg,images/assets/gameover.jpg,,,,,,,,,,,,,0,9,9,1,1,,,,,,,,,,,,,,,,,,,,,,,,,,,,,,,,
,,,,,,,,,,,,67fc56e2b76355e0dcb30d27,001,3,2025-04-15_11h06.51.261,avatar_quest_3AFC_legacy,2022.1.3,Win32,59.88023952,67fc56e2b76355e0dcb30d27,67fe6e666cecbc9329ddf6d6,67fe70f12cef9cbc84311687,,,,,,,,,,,,,,,,,,,,,,With Brainslug Difficult 1 With Money,6,images/assets/snowy_money.jpg,learning,20,images/assets/success_money.jpg,images/assets/gameover.jpg,,,,,,,,,,,,,0,10,10,0,1,,,,,,,,,,,,,,,,,,,,,,,,,,,,,,,,
,,,,,,,,,,,,67fc56e2b76355e0dcb30d27,001,3,2025-04-15_11h06.51.261,avatar_quest_3AFC_legacy,2022.1.3,Win32,59.88023952,67fc56e2b76355e0dcb30d27,67fe6e666cecbc9329ddf6d6,67fe70f12cef9cbc84311687,,,,,,,,,,,,,,,,,,,,,,,,,,,,,,,,,,,,,,,,,,,,,,,,,,,,,,,11,0,11,0,1,,,,,,,,,,,,,,,,,,
,,,,,,,,,,,,67fc56e2b76355e0dcb30d27,001,3,2025-04-15_11h06.51.261,avatar_quest_3AFC_legacy,2022.1.3,Win32,59.88023952,67fc56e2b76355e0dcb30d27,67fe6e666cecbc9329ddf6d6,67fe70f12cef9cbc84311687,,,,,,,,,,,,,,,,,,,,,,,,,,,,,,,,,,,,,,,,,,,,,,,,,,,,,,,,,,,,0,0,0,0,1,1,With Brainslug Difficult 1 No Money,images/assets/With Brainslug Difficult 1 No Money.png,With Brainslug Difficult 2 No Money,images/assets/With Brainslug Difficult 2 No Money.png,With Brainslug Difficult 2 With Money,images/assets/With Brainslug Difficult 2 With Money.png,Achievement vs. money,,,,,
,,,,,,,,,,,,67fc56e2b76355e0dcb30d27,001,3,2025-04-15_11h06.51.261,avatar_quest_3AFC_legacy,2022.1.3,Win32,59.88023952,67fc56e2b76355e0dcb30d27,67fe6e666cecbc9329ddf6d6,67fe70f12cef9cbc84311687,"[""left"",""left"",""right""]","[1.217199999988111,2.3826999999880627,3.7483999999761863]",,calibration,No Brainslug No Barriers No Money,16,8.34052,5.4961,3,0,0,TRUE,na,na,na,na,,,,,,,,,,,,,,,,,,,,No Brainslug No Barriers No Money,No Brainslug No Barriers No Money,left,1.5578,"[""No Brainslug Difficult 1 No Money"",""No Brainslug No Barriers With Money""]",,,,,,,,,,0,0,0,0,1,,,,,,,,,,,,,,,,,,,,,,,
,,,,,,,,,,,,67fc56e2b76355e0dcb30d27,001,3,2025-04-15_11h06.51.261,avatar_quest_3AFC_legacy,2022.1.3,Win32,59.88023952,67fc56e2b76355e0dcb30d27,67fe6e666cecbc9329ddf6d6,67fe70f12cef9cbc84311687,,,,,,,,,,,,,,,,,,,,,,No Brainslug No Barriers No Money,0,images/assets/snowy_original.jpg,learning,10,images/assets/success.jpg,images/assets/gameover.jpg,,,,,,,,,,,,,0,0,0,10,1,,,,,,,,,,,,,,,,,,,,,,,,,,,,,,,,
,,,,,,,,,,,,67fc56e2b76355e0dcb30d27,001,3,2025-04-15_11h06.51.261,avatar_quest_3AFC_legacy,2022.1.3,Win32,59.88023952,67fc56e2b76355e0dcb30d27,67fe6e666cecbc9329ddf6d6,67fe70f12cef9cbc84311687,,,,,,,,,,,,,,,,,,,,,,With Brainslug No Barriers No Money,0,images/assets/snowy_original.jpg,learning,10,images/assets/success.jpg,images/assets/gameover.jpg,,,,,,,,,,,,,0,1,1,5,1,,,,,,,,,,,,,,,,,,,,,,,,,,,,,,,,
,,,,,,,,,,,,67fc56e2b76355e0dcb30d27,001,3,2025-04-15_11h06.51.261,avatar_quest_3AFC_legacy,2022.1.3,Win32,59.88023952,67fc56e2b76355e0dcb30d27,67fe6e666cecbc9329ddf6d6,67fe70f12cef9cbc84311687,,,,,,,,,,,,,,,,,,,,,,With Brainslug Difficult 1 No Money,6,images/assets/snowy_original.jpg,learning,20,images/assets/success.jpg,images/assets/gameover.jpg,,,,,,,,,,,,,0,2,2,1,1,,,,,,,,,,,,,,,,,,,,,,,,,,,,,,,,
,,,,,,,,,,,,67fc56e2b76355e0dcb30d27,001,3,2025-04-15_11h06.51.261,avatar_quest_3AFC_legacy,2022.1.3,Win32,59.88023952,67fc56e2b76355e0dcb30d27,67fe6e666cecbc9329ddf6d6,67fe70f12cef9cbc84311687,,,,,,,,,,,,,,,,,,,,,,With Brainslug Difficult 2 No Money,12,images/assets/snowy_original.jpg,learning,20,images/assets/success.jpg,images/assets/gameover.jpg,,,,,,,,,,,,,0,3,3,3,1,,,,,,,,,,,,,,,,,,,,,,,,,,,,,,,,
,,,,,,,,,,,,67fc56e2b76355e0dcb30d27,001,3,2025-04-15_11h06.51.261,avatar_quest_3AFC_legacy,2022.1.3,Win32,59.88023952,67fc56e2b76355e0dcb30d27,67fe6e666cecbc9329ddf6d6,67fe70f12cef9cbc84311687,,,,,,,,,,,,,,,,,,,,,,No Brainslug No Barriers With Money,0,images/assets/snowy_money.jpg,learning,10,images/assets/success_money.jpg,images/assets/gameover.jpg,,,,,,,,,,,,,0,4,4,9,1,,,,,,,,,,,,,,,,,,,,,,,,,,,,,,,,
,,,,,,,,,,,,67fc56e2b76355e0dcb30d27,001,3,2025-04-15_11h06.51.261,avatar_quest_3AFC_legacy,2022.1.3,Win32,59.88023952,67fc56e2b76355e0dcb30d27,67fe6e666cecbc9329ddf6d6,67fe70f12cef9cbc84311687,,,,,,,,,,,,,,,,,,,,,,No Brainslug Difficult 2 With Money,12,images/assets/snowy_money.jpg,learning,20,images/assets/success_money.jpg,images/assets/gameover.jpg,,,,,,,,,,,,,0,5,5,7,1,,,,,,,,,,,,,,,,,,,,,,,,,,,,,,,,
,,,,,,,,,,,,67fc56e2b76355e0dcb30d27,001,3,2025-04-15_11h06.51.261,avatar_quest_3AFC_legacy,2022.1.3,Win32,59.88023952,67fc56e2b76355e0dcb30d27,67fe6e666cecbc9329ddf6d6,67fe70f12cef9cbc84311687,,,,,,,,,,,,,,,,,,,,,,With Brainslug Difficult 1 With Money,6,images/assets/snowy_money.jpg,learning,20,images/assets/success_money.jpg,images/assets/gameover.jpg,,,,,,,,,,,,,0,6,6,0,1,,,,,,,,,,,,,,,,,,,,,,,,,,,,,,,,
,,,,,,,,,,,,67fc56e2b76355e0dcb30d27,001,3,2025-04-15_11h06.51.261,avatar_quest_3AFC_legacy,2022.1.3,Win32,59.88023952,67fc56e2b76355e0dcb30d27,67fe6e666cecbc9329ddf6d6,67fe70f12cef9cbc84311687,,,,,,,,,,,,,,,,,,,,,,With Brainslug No Barriers With Money,0,images/assets/snowy_money.jpg,learning,10,images/assets/success_money.jpg,images/assets/gameover.jpg,,,,,,,,,,,,,0,7,7,4,1,,,,,,,,,,,,,,,,,,,,,,,,,,,,,,,,
,,,,,,,,,,,,67fc56e2b76355e0dcb30d27,001,3,2025-04-15_11h06.51.261,avatar_quest_3AFC_legacy,2022.1.3,Win32,59.88023952,67fc56e2b76355e0dcb30d27,67fe6e666cecbc9329ddf6d6,67fe70f12cef9cbc84311687,,,,,,,,,,,,,,,,,,,,,,No Brainslug Difficult 1 No Money,6,images/assets/snowy_original.jpg,learning,20,images/assets/success.jpg,images/assets/gameover.jpg,,,,,,,,,,,,,0,8,8,6,1,,,,,,,,,,,,,,,,,,,,,,,,,,,,,,,,
,,,,,,,,,,,,67fc56e2b76355e0dcb30d27,001,3,2025-04-15_11h06.51.261,avatar_quest_3AFC_legacy,2022.1.3,Win32,59.88023952,67fc56e2b76355e0dcb30d27,67fe6e666cecbc9329ddf6d6,67fe70f12cef9cbc84311687,,,,,,,,,,,,,,,,,,,,,,No Brainslug Difficult 2 No Money,12,images/assets/snowy_original.jpg,learning,20,images/assets/success.jpg,images/assets/gameover.jpg,,,,,,,,,,,,,0,9,9,8,1,,,,,,,,,,,,,,,,,,,,,,,,,,,,,,,,
,,,,,,,,,,,,67fc56e2b76355e0dcb30d27,001,3,2025-04-15_11h06.51.261,avatar_quest_3AFC_legacy,2022.1.3,Win32,59.88023952,67fc56e2b76355e0dcb30d27,67fe6e666cecbc9329ddf6d6,67fe70f12cef9cbc84311687,,,,,,,,,,,,,,,,,,,,,,With Brainslug Difficult 2 With Money,12,images/assets/snowy_money.jpg,learning,20,images/assets/success_money.jpg,images/assets/gameover.jpg,,,,,,,,,,,,,0,10,10,2,1,,,,,,,,,,,,,,,,,,,,,,,,,,,,,,,,
,,,,,,,,,,,,67fc56e2b76355e0dcb30d27,001,3,2025-04-15_11h06.51.261,avatar_quest_3AFC_legacy,2022.1.3,Win32,59.88023952,67fc56e2b76355e0dcb30d27,67fe6e666cecbc9329ddf6d6,67fe70f12cef9cbc84311687,,,,,,,,,,,,,,,,,,,,,,,,,,,,,,,,,,,,,,,,,,,,,,,,,,,,,,,0,0,0,0,1,,,,,,,,,,,,,,,,,,
,,,,,,,,,,,,67fc56e2b76355e0dcb30d27,001,3,2025-04-15_11h06.51.261,avatar_quest_3AFC_legacy,2022.1.3,Win32,59.88023952,67fc56e2b76355e0dcb30d27,67fe6e666cecbc9329ddf6d6,67fe70f12cef9cbc84311687,,,,,,,,,,,,,,,,,,,,,,No Brainslug Difficult 2 With Money,12,images/assets/snowy_money.jpg,learning,20,images/assets/success_money.jpg,images/assets/gameover.jpg,,,,,,,,No Brainslug No Barriers No Money,No Brainslug No Barriers No Money,left,1.7695,"[""No Brainslug Difficult 1 No Money"",""No Brainslug No Barriers With Money""]",0,0,0,7,1,,,,,,,,,,,,,,,,,,,,,,,,,,,,,,,,
,,,,,,,,,,,,67fc56e2b76355e0dcb30d27,001,3,2025-04-15_11h06.51.261,avatar_quest_3AFC_legacy,2022.1.3,Win32,59.88023952,67fc56e2b76355e0dcb30d27,67fe6e666cecbc9329ddf6d6,67fe70f12cef9cbc84311687,,,,,,,,,,,,,,,,,,,,,,With Brainslug Difficult 2 No Money,12,images/assets/snowy_original.jpg,learning,20,images/assets/success.jpg,images/assets/gameover.jpg,,,,,,,,,,,,,0,1,1,3,1,,,,,,,,,,,,,,,,,,,,,,,,,,,,,,,,
,,,,,,,,,,,,67fc56e2b76355e0dcb30d27,001,3,2025-04-15_11h06.51.261,avatar_quest_3AFC_legacy,2022.1.3,Win32,59.88023952,67fc56e2b76355e0dcb30d27,67fe6e666cecbc9329ddf6d6,67fe70f12cef9cbc84311687,,,,,,,,,,,,,,,,,,,,,,No Brainslug No Barriers With Money,0,images/assets/snowy_money.jpg,learning,10,images/assets/success_money.jpg,images/assets/gameover.jpg,,,,,,,,,,,,,0,2,2,9,1,,,,,,,,,,,,,,,,,,,,,,,,,,,,,,,,
,,,,,,,,,,,,67fc56e2b76355e0dcb30d27,001,3,2025-04-15_11h06.51.261,avatar_quest_3AFC_legacy,2022.1.3,Win32,59.88023952,67fc56e2b76355e0dcb30d27,67fe6e666cecbc9329ddf6d6,67fe70f12cef9cbc84311687,"[""left"",""left"",""right""]","[2.215600000023869,2.9987000000477337,3.5974000000358046]",,calibration,No Brainslug No Barriers No Money,17,8.34052,5.4473,3,0,0,TRUE,na,na,na,na,,,,,,,,,,,,,,,,,,,,,,,,,,,,,,,,,,0,0,0,0,1,,,,,,,,,,,,,,,,,,,,,,,
,,,,,,,,,,,,67fc56e2b76355e0dcb30d27,001,3,2025-04-15_11h06.51.261,avatar_quest_3AFC_legacy,2022.1.3,Win32,59.88023952,67fc56e2b76355e0dcb30d27,67fe6e666cecbc9329ddf6d6,67fe70f12cef9cbc84311687,,,,,,,,,,,,,,,,,,,,,,No Brainslug No Barriers No Money,0,images/assets/snowy_original.jpg,learning,10,images/assets/success.jpg,images/assets/gameover.jpg,,,,,,,,,,,,,0,3,3,10,1,,,,,,,,,,,,,,,,,,,,,,,,,,,,,,,,
,,,,,,,,,,,,67fc56e2b76355e0dcb30d27,001,3,2025-04-15_11h06.51.261,avatar_quest_3AFC_legacy,2022.1.3,Win32,59.88023952,67fc56e2b76355e0dcb30d27,67fe6e666cecbc9329ddf6d6,67fe70f12cef9cbc84311687,,,,,,,,,,,,,,,,,,,,,,With Brainslug Difficult 1 No Money,6,images/assets/snowy_original.jpg,learning,20,images/assets/success.jpg,images/assets/gameover.jpg,,,,,,,,,,,,,0,4,4,1,1,,,,,,,,,,,,,,,,,,,,,,,,,,,,,,,,
,,,,,,,,,,,,67fc56e2b76355e0dcb30d27,001,3,2025-04-15_11h06.51.261,avatar_quest_3AFC_legacy,2022.1.3,Win32,59.88023952,67fc56e2b76355e0dcb30d27,67fe6e666cecbc9329ddf6d6,67fe70f12cef9cbc84311687,,,,,,,,,,,,,,,,,,,,,,No Brainslug Difficult 2 No Money,12,images/assets/snowy_original.jpg,learning,20,images/assets/success.jpg,images/assets/gameover.jpg,,,,,,,,,,,,,0,5,5,8,1,,,,,,,,,,,,,,,,,,,,,,,,,,,,,,,,
,,,,,,,,,,,,67fc56e2b76355e0dcb30d27,001,3,2025-04-15_11h06.51.261,avatar_quest_3AFC_legacy,2022.1.3,Win32,59.88023952,67fc56e2b76355e0dcb30d27,67fe6e666cecbc9329ddf6d6,67fe70f12cef9cbc84311687,,,,,,,,,,,,,,,,,,,,,,With Brainslug No Barriers With Money,0,images/assets/snowy_money.jpg,learning,10,images/assets/success_money.jpg,images/assets/gameover.jpg,,,,,,,,,,,,,0,6,6,4,1,,,,,,,,,,,,,,,,,,,,,,,,,,,,,,,,
,,,,,,,,,,,,67fc56e2b76355e0dcb30d27,001,3,2025-04-15_11h06.51.261,avatar_quest_3AFC_legacy,2022.1.3,Win32,59.88023952,67fc56e2b76355e0dcb30d27,67fe6e666cecbc9329ddf6d6,67fe70f12cef9cbc84311687,,,,,,,,,,,,,,,,,,,,,,With Brainslug Difficult 2 With Money,12,images/assets/snowy_money.jpg,learning,20,images/assets/success_money.jpg,images/assets/gameover.jpg,,,,,,,,,,,,,0,7,7,2,1,,,,,,,,,,,,,,,,,,,,,,,,,,,,,,,,
,,,,,,,,,,,,67fc56e2b76355e0dcb30d27,001,3,2025-04-15_11h06.51.261,avatar_quest_3AFC_legacy,2022.1.3,Win32,59.88023952,67fc56e2b76355e0dcb30d27,67fe6e666cecbc9329ddf6d6,67fe70f12cef9cbc84311687,,,,,,,,,,,,,,,,,,,,,,With Brainslug Difficult 1 With Money,6,images/assets/snowy_money.jpg,learning,20,images/assets/success_money.jpg,images/assets/gameover.jpg,,,,,,,,,,,,,0,8,8,0,1,,,,,,,,,,,,,,,,,,,,,,,,,,,,,,,,
,,,,,,,,,,,,67fc56e2b76355e0dcb30d27,001,3,2025-04-15_11h06.51.261,avatar_quest_3AFC_legacy,2022.1.3,Win32,59.88023952,67fc56e2b76355e0dcb30d27,67fe6e666cecbc9329ddf6d6,67fe70f12cef9cbc84311687,,,,,,,,,,,,,,,,,,,,,,No Brainslug Difficult 1 No Money,6,images/assets/snowy_original.jpg,learning,20,images/assets/success.jpg,images/assets/gameover.jpg,,,,,,,,,,,,,0,9,9,6,1,,,,,,,,,,,,,,,,,,,,,,,,,,,,,,,,
,,,,,,,,,,,,67fc56e2b76355e0dcb30d27,001,3,2025-04-15_11h06.51.261,avatar_quest_3AFC_legacy,2022.1.3,Win32,59.88023952,67fc56e2b76355e0dcb30d27,67fe6e666cecbc9329ddf6d6,67fe70f12cef9cbc84311687,,,,,,,,,,,,,,,,,,,,,,With Brainslug No Barriers No Money,0,images/assets/snowy_original.jpg,learning,10,images/assets/success.jpg,images/assets/gameover.jpg,,,,,,,,,,,,,0,10,10,5,1,,,,,,,,,,,,,,,,,,,,,,,,,,,,,,,,
,,,,,,,,,,,,67fc56e2b76355e0dcb30d27,001,3,2025-04-15_11h06.51.261,avatar_quest_3AFC_legacy,2022.1.3,Win32,59.88023952,67fc56e2b76355e0dcb30d27,67fe6e666cecbc9329ddf6d6,67fe70f12cef9cbc84311687,,,,,,,,,,,,,,,,,,,,,,,,,,,,,,,,,,,,,,,,,,,,,,,,,,,,,,,1,0,1,0,1,,,,,,,,,,,,,,,,,,
,,,,,,,,,,,,67fc56e2b76355e0dcb30d27,001,3,2025-04-15_11h06.51.261,avatar_quest_3AFC_legacy,2022.1.3,Win32,59.88023952,67fc56e2b76355e0dcb30d27,67fe6e666cecbc9329ddf6d6,67fe70f12cef9cbc84311687,,,,,,,,,,,,,,,,,,,,,,With Brainslug Difficult 1 With Money,6,images/assets/snowy_money.jpg,learning,20,images/assets/success_money.jpg,images/assets/gameover.jpg,,,,,,,,No Brainslug No Barriers No Money,No Brainslug No Barriers No Money,left,0.8502,"[""No Brainslug Difficult 1 No Money"",""No Brainslug No Barriers With Money""]",0,0,0,0,1,,,,,,,,,,,,,,,,,,,,,,,,,,,,,,,,
,,,,,,,,,,,,67fc56e2b76355e0dcb30d27,001,3,2025-04-15_11h06.51.261,avatar_quest_3AFC_legacy,2022.1.3,Win32,59.88023952,67fc56e2b76355e0dcb30d27,67fe6e666cecbc9329ddf6d6,67fe70f12cef9cbc84311687,,,,,,,,,,,,,,,,,,,,,,With Brainslug Difficult 2 No Money,12,images/assets/snowy_original.jpg,learning,20,images/assets/success.jpg,images/assets/gameover.jpg,,,,,,,,,,,,,0,1,1,3,1,,,,,,,,,,,,,,,,,,,,,,,,,,,,,,,,
,,,,,,,,,,,,67fc56e2b76355e0dcb30d27,001,3,2025-04-15_11h06.51.261,avatar_quest_3AFC_legacy,2022.1.3,Win32,59.88023952,67fc56e2b76355e0dcb30d27,67fe6e666cecbc9329ddf6d6,67fe70f12cef9cbc84311687,,,,,,,,,,,,,,,,,,,,,,No Brainslug Difficult 1 No Money,6,images/assets/snowy_original.jpg,learning,20,images/assets/success.jpg,images/assets/gameover.jpg,,,,,,,,,,,,,0,2,2,6,1,,,,,,,,,,,,,,,,,,,,,,,,,,,,,,,,
,,,,,,,,,,,,67fc56e2b76355e0dcb30d27,001,3,2025-04-15_11h06.51.261,avatar_quest_3AFC_legacy,2022.1.3,Win32,59.88023952,67fc56e2b76355e0dcb30d27,67fe6e666cecbc9329ddf6d6,67fe70f12cef9cbc84311687,,,,,,,,,,,,,,,,,,,,,,No Brainslug No Barriers With Money,0,images/assets/snowy_money.jpg,learning,10,images/assets/success_money.jpg,images/assets/gameover.jpg,,,,,,,,,,,,,0,3,3,9,1,,,,,,,,,,,,,,,,,,,,,,,,,,,,,,,,
,,,,,,,,,,,,67fc56e2b76355e0dcb30d27,001,3,2025-04-15_11h06.51.261,avatar_quest_3AFC_legacy,2022.1.3,Win32,59.88023952,67fc56e2b76355e0dcb30d27,67fe6e666cecbc9329ddf6d6,67fe70f12cef9cbc84311687,,,,,,,,,,,,,,,,,,,,,,With Brainslug No Barriers With Money,0,images/assets/snowy_money.jpg,learning,10,images/assets/success_money.jpg,images/assets/gameover.jpg,,,,,,,,,,,,,0,4,4,4,1,,,,,,,,,,,,,,,,,,,,,,,,,,,,,,,,
,,,,,,,,,,,,67fc56e2b76355e0dcb30d27,001,3,2025-04-15_11h06.51.261,avatar_quest_3AFC_legacy,2022.1.3,Win32,59.88023952,67fc56e2b76355e0dcb30d27,67fe6e666cecbc9329ddf6d6,67fe70f12cef9cbc84311687,,,,,,,,,,,,,,,,,,,,,,No Brainslug Difficult 2 No Money,12,images/assets/snowy_original.jpg,learning,20,images/assets/success.jpg,images/assets/gameover.jpg,,,,,,,,,,,,,0,5,5,8,1,,,,,,,,,,,,,,,,,,,,,,,,,,,,,,,,
,,,,,,,,,,,,67fc56e2b76355e0dcb30d27,001,3,2025-04-15_11h06.51.261,avatar_quest_3AFC_legacy,2022.1.3,Win32,59.88023952,67fc56e2b76355e0dcb30d27,67fe6e666cecbc9329ddf6d6,67fe70f12cef9cbc84311687,"[""left"",""left"",""right""]","[0.666600000023891,2.8149000000357773,3.4646999999880563]",,calibration,No Brainslug No Barriers No Money,18,8.34052,5.5316,3,0,0,TRUE,na,na,na,na,,,,,,,,,,,,,,,,,,,,,,,,,,,,,,,,,,0,0,0,0,1,,,,,,,,,,,,,,,,,,,,,,,
,,,,,,,,,,,,67fc56e2b76355e0dcb30d27,001,3,2025-04-15_11h06.51.261,avatar_quest_3AFC_legacy,2022.1.3,Win32,59.88023952,67fc56e2b76355e0dcb30d27,67fe6e666cecbc9329ddf6d6,67fe70f12cef9cbc84311687,,,,,,,,,,,,,,,,,,,,,,No Brainslug No Barriers No Money,0,images/assets/snowy_original.jpg,learning,10,images/assets/success.jpg,images/assets/gameover.jpg,,,,,,,,,,,,,0,6,6,10,1,,,,,,,,,,,,,,,,,,,,,,,,,,,,,,,,
,,,,,,,,,,,,67fc56e2b76355e0dcb30d27,001,3,2025-04-15_11h06.51.261,avatar_quest_3AFC_legacy,2022.1.3,Win32,59.88023952,67fc56e2b76355e0dcb30d27,67fe6e666cecbc9329ddf6d6,67fe70f12cef9cbc84311687,,,,,,,,,,,,,,,,,,,,,,With Brainslug Difficult 1 No Money,6,images/assets/snowy_original.jpg,learning,20,images/assets/success.jpg,images/assets/gameover.jpg,,,,,,,,,,,,,0,7,7,1,1,,,,,,,,,,,,,,,,,,,,,,,,,,,,,,,,
,,,,,,,,,,,,67fc56e2b76355e0dcb30d27,001,3,2025-04-15_11h06.51.261,avatar_quest_3AFC_legacy,2022.1.3,Win32,59.88023952,67fc56e2b76355e0dcb30d27,67fe6e666cecbc9329ddf6d6,67fe70f12cef9cbc84311687,,,,,,,,,,,,,,,,,,,,,,No Brainslug Difficult 2 With Money,12,images/assets/snowy_money.jpg,learning,20,images/assets/success_money.jpg,images/assets/gameover.jpg,,,,,,,,,,,,,0,8,8,7,1,,,,,,,,,,,,,,,,,,,,,,,,,,,,,,,,
,,,,,,,,,,,,67fc56e2b76355e0dcb30d27,001,3,2025-04-15_11h06.51.261,avatar_quest_3AFC_legacy,2022.1.3,Win32,59.88023952,67fc56e2b76355e0dcb30d27,67fe6e666cecbc9329ddf6d6,67fe70f12cef9cbc84311687,,,,,,,,,,,,,,,,,,,,,,With Brainslug No Barriers No Money,0,images/assets/snowy_original.jpg,learning,10,images/assets/success.jpg,images/assets/gameover.jpg,,,,,,,,,,,,,0,9,9,5,1,,,,,,,,,,,,,,,,,,,,,,,,,,,,,,,,
,,,,,,,,,,,,67fc56e2b76355e0dcb30d27,001,3,2025-04-15_11h06.51.261,avatar_quest_3AFC_legacy,2022.1.3,Win32,59.88023952,67fc56e2b76355e0dcb30d27,67fe6e666cecbc9329ddf6d6,67fe70f12cef9cbc84311687,,,,,,,,,,,,,,,,,,,,,,With Brainslug Difficult 2 With Money,12,images/assets/snowy_money.jpg,learning,20,images/assets/success_money.jpg,images/assets/gameover.jpg,,,,,,,,,,,,,0,10,10,2,1,,,,,,,,,,,,,,,,,,,,,,,,,,,,,,,,
,,,,,,,,,,,,67fc56e2b76355e0dcb30d27,001,3,2025-04-15_11h06.51.261,avatar_quest_3AFC_legacy,2022.1.3,Win32,59.88023952,67fc56e2b76355e0dcb30d27,67fe6e666cecbc9329ddf6d6,67fe70f12cef9cbc84311687,,,,,,,,,,,,,,,,,,,,,,,,,,,,,,,,,,,,,,,,,,,,,,,,,,,,,,,2,0,2,0,1,,,,,,,,,,,,,,,,,,
,,,,,,,,,,,,67fc56e2b76355e0dcb30d27,001,3,2025-04-15_11h06.51.261,avatar_quest_3AFC_legacy,2022.1.3,Win32,59.88023952,67fc56e2b76355e0dcb30d27,67fe6e666cecbc9329ddf6d6,67fe70f12cef9cbc84311687,,,,,,,,,,,,,,,,,,,,,,With Brainslug Difficult 1 No Money,6,images/assets/snowy_original.jpg,learning,20,images/assets/success.jpg,images/assets/gameover.jpg,,,,,,,,No Brainslug No Barriers No Money,No Brainslug No Barriers No Money,left,1.992,"[""No Brainslug Difficult 1 No Money"",""No Brainslug No Barriers With Money""]",0,0,0,1,1,,,,,,,,,,,,,,,,,,,,,,,,,,,,,,,,
,,,,,,,,,,,,67fc56e2b76355e0dcb30d27,001,3,2025-04-15_11h06.51.261,avatar_quest_3AFC_legacy,2022.1.3,Win32,59.88023952,67fc56e2b76355e0dcb30d27,67fe6e666cecbc9329ddf6d6,67fe70f12cef9cbc84311687,,,,,,,,,,,,,,,,,,,,,,No Brainslug Difficult 2 With Money,12,images/assets/snowy_money.jpg,learning,20,images/assets/success_money.jpg,images/assets/gameover.jpg,,,,,,,,,,,,,0,1,1,7,1,,,,,,,,,,,,,,,,,,,,,,,,,,,,,,,,
,,,,,,,,,,,,67fc56e2b76355e0dcb30d27,001,3,2025-04-15_11h06.51.261,avatar_quest_3AFC_legacy,2022.1.3,Win32,59.88023952,67fc56e2b76355e0dcb30d27,67fe6e666cecbc9329ddf6d6,67fe70f12cef9cbc84311687,,,,,,,,,,,,,,,,,,,,,,No Brainslug No Barriers With Money,0,images/assets/snowy_money.jpg,learning,10,images/assets/success_money.jpg,images/assets/gameover.jpg,,,,,,,,,,,,,0,2,2,9,1,,,,,,,,,,,,,,,,,,,,,,,,,,,,,,,,
,,,,,,,,,,,,67fc56e2b76355e0dcb30d27,001,3,2025-04-15_11h06.51.261,avatar_quest_3AFC_legacy,2022.1.3,Win32,59.88023952,67fc56e2b76355e0dcb30d27,67fe6e666cecbc9329ddf6d6,67fe70f12cef9cbc84311687,,,,,,,,,,,,,,,,,,,,,,With Brainslug Difficult 2 With Money,12,images/assets/snowy_money.jpg,learning,20,images/assets/success_money.jpg,images/assets/gameover.jpg,,,,,,,,,,,,,0,3,3,2,1,,,,,,,,,,,,,,,,,,,,,,,,,,,,,,,,
,,,,,,,,,,,,67fc56e2b76355e0dcb30d27,001,3,2025-04-15_11h06.51.261,avatar_quest_3AFC_legacy,2022.1.3,Win32,59.88023952,67fc56e2b76355e0dcb30d27,67fe6e666cecbc9329ddf6d6,67fe70f12cef9cbc84311687,,,,,,,,,,,,,,,,,,,,,,No Brainslug Difficult 2 No Money,12,images/assets/snowy_original.jpg,learning,20,images/assets/success.jpg,images/assets/gameover.jpg,,,,,,,,,,,,,0,4,4,8,1,,,,,,,,,,,,,,,,,,,,,,,,,,,,,,,,
,,,,,,,,,,,,67fc56e2b76355e0dcb30d27,001,3,2025-04-15_11h06.51.261,avatar_quest_3AFC_legacy,2022.1.3,Win32,59.88023952,67fc56e2b76355e0dcb30d27,67fe6e666cecbc9329ddf6d6,67fe70f12cef9cbc84311687,,,,,,,,,,,,,,,,,,,,,,With Brainslug No Barriers No Money,0,images/assets/snowy_original.jpg,learning,10,images/assets/success.jpg,images/assets/gameover.jpg,,,,,,,,,,,,,0,5,5,5,1,,,,,,,,,,,,,,,,,,,,,,,,,,,,,,,,
,,,,,,,,,,,,67fc56e2b76355e0dcb30d27,001,3,2025-04-15_11h06.51.261,avatar_quest_3AFC_legacy,2022.1.3,Win32,59.88023952,67fc56e2b76355e0dcb30d27,67fe6e666cecbc9329ddf6d6,67fe70f12cef9cbc84311687,"[""left"",""left"",""right"",""right""]","[2.2325999999642363,2.815099999964218,3.49819999998806,4.081399999976156]",,calibration,No Brainslug No Barriers No Money,19,8.34052,5.5159,4,0,0,TRUE,na,na,na,na,,,,,,,,,,,,,,,,,,,,,,,,,,,,,,,,,,0,0,0,0,1,,,,,,,,,,,,,,,,,,,,,,,
,,,,,,,,,,,,67fc56e2b76355e0dcb30d27,001,3,2025-04-15_11h06.51.261,avatar_quest_3AFC_legacy,2022.1.3,Win32,59.88023952,67fc56e2b76355e0dcb30d27,67fe6e666cecbc9329ddf6d6,67fe70f12cef9cbc84311687,,,,,,,,,,,,,,,,,,,,,,No Brainslug No Barriers No Money,0,images/assets/snowy_original.jpg,learning,10,images/assets/success.jpg,images/assets/gameover.jpg,,,,,,,,,,,,,0,6,6,10,1,,,,,,,,,,,,,,,,,,,,,,,,,,,,,,,,
,,,,,,,,,,,,67fc56e2b76355e0dcb30d27,001,3,2025-04-15_11h06.51.261,avatar_quest_3AFC_legacy,2022.1.3,Win32,59.88023952,67fc56e2b76355e0dcb30d27,67fe6e666cecbc9329ddf6d6,67fe70f12cef9cbc84311687,,,,,,,,,,,,,,,,,,,,,,No Brainslug Difficult 1 No Money,6,images/assets/snowy_original.jpg,learning,20,images/assets/success.jpg,images/assets/gameover.jpg,,,,,,,,,,,,,0,7,7,6,1,,,,,,,,,,,,,,,,,,,,,,,,,,,,,,,,
,,,,,,,,,,,,67fc56e2b76355e0dcb30d27,001,3,2025-04-15_11h06.51.261,avatar_quest_3AFC_legacy,2022.1.3,Win32,59.88023952,67fc56e2b76355e0dcb30d27,67fe6e666cecbc9329ddf6d6,67fe70f12cef9cbc84311687,,,,,,,,,,,,,,,,,,,,,,With Brainslug Difficult 2 No Money,12,images/assets/snowy_original.jpg,learning,20,images/assets/success.jpg,images/assets/gameover.jpg,,,,,,,,,,,,,0,8,8,3,1,,,,,,,,,,,,,,,,,,,,,,,,,,,,,,,,
,,,,,,,,,,,,67fc56e2b76355e0dcb30d27,001,3,2025-04-15_11h06.51.261,avatar_quest_3AFC_legacy,2022.1.3,Win32,59.88023952,67fc56e2b76355e0dcb30d27,67fe6e666cecbc9329ddf6d6,67fe70f12cef9cbc84311687,,,,,,,,,,,,,,,,,,,,,,With Brainslug Difficult 1 With Money,6,images/assets/snowy_money.jpg,learning,20,images/assets/success_money.jpg,images/assets/gameover.jpg,,,,,,,,,,,,,0,9,9,0,1,,,,,,,,,,,,,,,,,,,,,,,,,,,,,,,,
,,,,,,,,,,,,67fc56e2b76355e0dcb30d27,001,3,2025-04-15_11h06.51.261,avatar_quest_3AFC_legacy,2022.1.3,Win32,59.88023952,67fc56e2b76355e0dcb30d27,67fe6e666cecbc9329ddf6d6,67fe70f12cef9cbc84311687,,,,,,,,,,,,,,,,,,,,,,With Brainslug No Barriers With Money,0,images/assets/snowy_money.jpg,learning,10,images/assets/success_money.jpg,images/assets/gameover.jpg,,,,,,,,,,,,,0,10,10,4,1,,,,,,,,,,,,,,,,,,,,,,,,,,,,,,,,
,,,,,,,,,,,,67fc56e2b76355e0dcb30d27,001,3,2025-04-15_11h06.51.261,avatar_quest_3AFC_legacy,2022.1.3,Win32,59.88023952,67fc56e2b76355e0dcb30d27,67fe6e666cecbc9329ddf6d6,67fe70f12cef9cbc84311687,,,,,,,,,,,,,,,,,,,,,,,,,,,,,,,,,,,,,,,,,,,,,,,,,,,,,,,3,0,3,0,1,,,,,,,,,,,,,,,,,,
,,,,,,,,,,,,67fc56e2b76355e0dcb30d27,001,3,2025-04-15_11h06.51.261,avatar_quest_3AFC_legacy,2022.1.3,Win32,59.88023952,67fc56e2b76355e0dcb30d27,67fe6e666cecbc9329ddf6d6,67fe70f12cef9cbc84311687,,,,,,,,,,,,,,,,,,,,,,With Brainslug No Barriers No Money,0,images/assets/snowy_original.jpg,learning,10,images/assets/success.jpg,images/assets/gameover.jpg,,,,,,,,No Brainslug No Barriers No Money,No Brainslug No Barriers No Money,left,1.3724,"[""No Brainslug Difficult 1 No Money"",""No Brainslug No Barriers With Money""]",0,0,0,5,1,,,,,,,,,,,,,,,,,,,,,,,,,,,,,,,,
,,,,,,,,,,,,67fc56e2b76355e0dcb30d27,001,3,2025-04-15_11h06.51.261,avatar_quest_3AFC_legacy,2022.1.3,Win32,59.88023952,67fc56e2b76355e0dcb30d27,67fe6e666cecbc9329ddf6d6,67fe70f12cef9cbc84311687,,,,,,,,,,,,,,,,,,,,,,No Brainslug No Barriers With Money,0,images/assets/snowy_money.jpg,learning,10,images/assets/success_money.jpg,images/assets/gameover.jpg,,,,,,,,,,,,,0,1,1,9,1,,,,,,,,,,,,,,,,,,,,,,,,,,,,,,,,
,,,,,,,,,,,,67fc56e2b76355e0dcb30d27,001,3,2025-04-15_11h06.51.261,avatar_quest_3AFC_legacy,2022.1.3,Win32,59.88023952,67fc56e2b76355e0dcb30d27,67fe6e666cecbc9329ddf6d6,67fe70f12cef9cbc84311687,,,,,,,,,,,,,,,,,,,,,,With Brainslug Difficult 1 With Money,6,images/assets/snowy_money.jpg,learning,20,images/assets/success_money.jpg,images/assets/gameover.jpg,,,,,,,,,,,,,0,2,2,0,1,,,,,,,,,,,,,,,,,,,,,,,,,,,,,,,,
