instruction_mouse.x,instruction_mouse.y,instruction_mouse.leftButton,instruction_mouse.midButton,instruction_mouse.rightButton,instruction_mouse.clicked_name,introduce_general.thisRepN,introduce_general.thisTrialN,introduce_general.thisN,introduce_general.thisIndex,introduce_general.ran,thisInstruction,participant,session,game version,date,expName,psychopyVersion,OS,frameRate,PROLIFIC PID,STUDY ID,SESSION ID,move_resp.keys,move_resp.rt,end_resp.keys,phase,condition,trial_num,time_limit,completion_time,left_right_steps,number_of_obsticle_blocks,number_of_tree_blocks,quest_complete,responsivity_summary,av_inter_brainslug_intervals,proportion_jitter,jitter_direction_proportion_right,calibration_phase.thisRepN,calibration_phase.thisTrialN,calibration_phase.thisN,calibration_phase.thisIndex,calibration_phase.ran,BlockLabel,nObsticles,backgroundImage,phaseLabel,n_side_steps,success_im,gameover_im,success_condition,introduce_learning_or_choice.thisRepN,introduce_learning_or_choice.thisTrialN,introduce_learning_or_choice.thisN,introduce_learning_or_choice.thisIndex,introduce_learning_or_choice.ran,choice_resp.keys,chosen_quest,unchosen_quest,choice_resp_3afc.keys,choice_resp_3afc.rt,unchosen_quests,forced_choice_trial.thisRepN,forced_choice_trial.thisTrialN,forced_choice_trial.thisN,forced_choice_trial.thisIndex,forced_choice_trial.ran,enjoyment_slider.response,enjoyment_slider.rt,effort_slider.response,effort_slider.rt,show_loop2.thisRepN,show_loop2.thisTrialN,show_loop2.thisN,show_loop2.thisIndex,show_loop2.ran,trials_per_block.thisRepN,trials_per_block.thisTrialN,trials_per_block.thisN,trials_per_block.thisIndex,trials_per_block.ran,decision_phase_AFC.thisRepN,decision_phase_AFC.thisTrialN,decision_phase_AFC.thisN,decision_phase_AFC.thisIndex,decision_phase_AFC.ran,blockN,BlockLabel1,questIm1,BlockLabel2,questIm2,BlockLabel3,questIm3,quest_condition,showForcedChoice.thisRepN,showForcedChoice.thisTrialN,showForcedChoice.thisN,showForcedChoice.thisIndex,showForcedChoice.ran
0.376302083,-0.41015625,1,0,0,instruction_button,0,0,0,0,1,images/instructions_part1_LSM_taskversion1/Slide1.JPG,67fd4f955123c6d79ae66a3a,001,3,2025-04-15_11h16.00.052,avatar_quest_3AFC_legacy,2022.1.3,Win32,60.97560976,67fd4f955123c6d79ae66a3a,67fe6e666cecbc9329ddf6d6,67fe759218bc917acc053e81,,,,,,,,,,,,,,,,,,,,,,,,,,,,,,,,,,,,,,,,,,,,,,,,,,,,,,,,,,,,,,,,,,,,,,,,,,,,,
0.372395833,-0.393229167,1,0,0,instruction_button,0,1,1,1,1,images/instructions_part1_LSM_taskversion1/Slide2.JPG,67fd4f955123c6d79ae66a3a,001,3,2025-04-15_11h16.00.052,avatar_quest_3AFC_legacy,2022.1.3,Win32,60.97560976,67fd4f955123c6d79ae66a3a,67fe6e666cecbc9329ddf6d6,67fe759218bc917acc053e81,,,,,,,,,,,,,,,,,,,,,,,,,,,,,,,,,,,,,,,,,,,,,,,,,,,,,,,,,,,,,,,,,,,,,,,,,,,,,
0.373697917,-0.395833333,1,0,0,instruction_button,0,2,2,2,1,images/instructions_part1_LSM_taskversion1/Slide3.JPG,67fd4f955123c6d79ae66a3a,001,3,2025-04-15_11h16.00.052,avatar_quest_3AFC_legacy,2022.1.3,Win32,60.97560976,67fd4f955123c6d79ae66a3a,67fe6e666cecbc9329ddf6d6,67fe759218bc917acc053e81,,,,,,,,,,,,,,,,,,,,,,,,,,,,,,,,,,,,,,,,,,,,,,,,,,,,,,,,,,,,,,,,,,,,,,,,,,,,,
0.373697917,-0.395833333,1,0,0,instruction_button,0,3,3,3,1,images/instructions_part1_LSM_taskversion1/Slide3.5.JPG,67fd4f955123c6d79ae66a3a,001,3,2025-04-15_11h16.00.052,avatar_quest_3AFC_legacy,2022.1.3,Win32,60.97560976,67fd4f955123c6d79ae66a3a,67fe6e666cecbc9329ddf6d6,67fe759218bc917acc053e81,,,,,,,,,,,,,,,,,,,,,,,,,,,,,,,,,,,,,,,,,,,,,,,,,,,,,,,,,,,,,,,,,,,,,,,,,,,,,
0.373697917,-0.395833333,1,0,0,instruction_button,0,4,4,4,1,images/instructions_part1_LSM_taskversion1/Slide4.JPG,67fd4f955123c6d79ae66a3a,001,3,2025-04-15_11h16.00.052,avatar_quest_3AFC_legacy,2022.1.3,Win32,60.97560976,67fd4f955123c6d79ae66a3a,67fe6e666cecbc9329ddf6d6,67fe759218bc917acc053e81,,,,,,,,,,,,,,,,,,,,,,,,,,,,,,,,,,,,,,,,,,,,,,,,,,,,,,,,,,,,,,,,,,,,,,,,,,,,,
0.373697917,-0.395833333,1,0,0,instruction_button,0,5,5,5,1,images/instructions_part1_LSM_taskversion1/Slide6.5.JPG,67fd4f955123c6d79ae66a3a,001,3,2025-04-15_11h16.00.052,avatar_quest_3AFC_legacy,2022.1.3,Win32,60.97560976,67fd4f955123c6d79ae66a3a,67fe6e666cecbc9329ddf6d6,67fe759218bc917acc053e81,,,,,,,,,,,,,,,,,,,,,,,,,,,,,,,,,,,,,,,,,,,,,,,,,,,,,,,,,,,,,,,,,,,,,,,,,,,,,
,,,,,,,,,,,,67fd4f955123c6d79ae66a3a,001,3,2025-04-15_11h16.00.052,avatar_quest_3AFC_legacy,2022.1.3,Win32,60.97560976,67fd4f955123c6d79ae66a3a,67fe6e666cecbc9329ddf6d6,67fe759218bc917acc053e81,"[""up"",""up"",""left"",""right"",""right"",""right"",""up"",""left"",""up"",""up"",""right"",""up"",""up"",""left"",""up"",""up"",""up"",""down"",""left"",""up"",""up""]","[3.2479999999999905,3.899000000000001,5.879100000001529,6.677000000000021,7.0481000000015115,8.012700000001132,8.525800000000743,9.109700000001112,9.324300000000733,9.49070000000114,9.823500000000024,10.712800000000755,10.843800000000783,11.281600000001504,12.013100000001486,12.170900000000415,12.34680000000077,12.6616000000015,13.088200000001109,13.412500000000023,13.835200000001123]",,calibration,No Brainslug No Barriers No Money,1,100,14.7529,7,0,569,TRUE,na,na,na,na,0,0,0,0,1,No Brainslug No Barriers No Money,0,images/assets/snowy_original.jpg,calibration,10,images/assets/success.jpg,images/assets/gameover.jpg,never,,,,,,,,,,,,,,,,,,,,,,,,,,,,,,,,,,,,,,,,,,,,,,,,
,,,,,,,,,,,,67fd4f955123c6d79ae66a3a,001,3,2025-04-15_11h16.00.052,avatar_quest_3AFC_legacy,2022.1.3,Win32,60.97560976,67fd4f955123c6d79ae66a3a,67fe6e666cecbc9329ddf6d6,67fe759218bc917acc053e81,"[""right"",""up"",""up"",""up"",""up"",""up"",""up"",""left"",""left"",""left"",""left"",""left"",""left"",""up""]","[0.15240000000034115,0.7635999999995988,1.5340999999996257,1.6850000000000023,2.0113000000007446,2.227900000000375,2.4161999999992645,2.934599999999591,3.3315000000000055,3.6591999999992595,3.929800000000739,5.215900000000374,5.593500000000006,5.828900000000374]",,calibration,No Brainslug No Barriers No Money,2,100,5.8398,5,0,25,TRUE,na,na,na,na,0,1,1,1,1,No Brainslug No Barriers No Money,0,images/assets/snowy_original.jpg,calibration,10,images/assets/success.jpg,images/assets/gameover.jpg,never,,,,,,,,,,,,,,,,,,,,,,,,,,,,,,,,,,,,,,,,,,,,,,,,
,,,,,,,,,,,,67fd4f955123c6d79ae66a3a,001,3,2025-04-15_11h16.00.052,avatar_quest_3AFC_legacy,2022.1.3,Win32,60.97560976,67fd4f955123c6d79ae66a3a,67fe6e666cecbc9329ddf6d6,67fe759218bc917acc053e81,"[""left"",""up"",""up"",""up"",""up"",""up"",""left"",""left"",""left"",""left"",""left"",""left"",""left"",""left"",""left"",""left"",""left""]","[1.1456999999992945,1.7996999999992909,1.9447999999989065,2.115000000000009,2.3163999999985094,2.661799999998891,2.8950000000000387,3.0931999999992854,3.2437999999988847,3.5421999999992977,3.778699999999276,4.134199999999282,4.592099999999675,4.859000000000037,5.048399999998537,5.260000000000048,5.381000000000029]",,calibration,No Brainslug No Barriers No Money,3,100,5.5409,3,0,0,TRUE,na,na,na,na,0,2,2,2,1,No Brainslug No Barriers No Money,0,images/assets/snowy_original.jpg,calibration,10,images/assets/success.jpg,images/assets/gameover.jpg,never,,,,,,,,,,,,,,,,,,,,,,,,,,,,,,,,,,,,,,,,,,,,,,,,
0.44921875,-0.397135417,1,0,0,instruction_button,,,,,,images/instructions_part2_LSM_taskversion3.jpg,67fd4f955123c6d79ae66a3a,001,3,2025-04-15_11h16.00.052,avatar_quest_3AFC_legacy,2022.1.3,Win32,60.97560976,67fd4f955123c6d79ae66a3a,67fe6e666cecbc9329ddf6d6,67fe759218bc917acc053e81,,,,,,,,,,,,,,,,,,,,,,,,,,,,,,0,0,0,0,1,,,,,,,,,,,,,,,,,,,,,,,,,,,,,,,,,,,,,,,,,,,
,,,,,,,,,,,,67fd4f955123c6d79ae66a3a,001,3,2025-04-15_11h16.00.052,avatar_quest_3AFC_legacy,2022.1.3,Win32,60.97560976,67fd4f955123c6d79ae66a3a,67fe6e666cecbc9329ddf6d6,67fe759218bc917acc053e81,,,,,,,,,,,,,,,,,,,,,,No Brainslug Difficult 2 No Money,12,images/assets/snowy_original.jpg,learning,20,images/assets/success.jpg,images/assets/gameover.jpg,,,,,,,,With Brainslug Difficult 2 With Money,With Brainslug Difficult 1 No Money,right,2.1692,"[""With Brainslug Difficult 1 No Money"",""With Brainslug Difficult 2 No Money""]",0,0,0,8,1,,,,,,,,,,,,,,,,,,,,,,,,,,,,,,,,
,,,,,,,,,,,,67fd4f955123c6d79ae66a3a,001,3,2025-04-15_11h16.00.052,avatar_quest_3AFC_legacy,2022.1.3,Win32,60.97560976,67fd4f955123c6d79ae66a3a,67fe6e666cecbc9329ddf6d6,67fe759218bc917acc053e81,,,,,,,,,,,,,,,,,,,,,,With Brainslug Difficult 1 With Money,6,images/assets/snowy_money.jpg,learning,20,images/assets/success_money.jpg,images/assets/gameover.jpg,,,,,,,,,,,,,0,1,1,0,1,,,,,,,,,,,,,,,,,,,,,,,,,,,,,,,,
,,,,,,,,,,,,67fd4f955123c6d79ae66a3a,001,3,2025-04-15_11h16.00.052,avatar_quest_3AFC_legacy,2022.1.3,Win32,60.97560976,67fd4f955123c6d79ae66a3a,67fe6e666cecbc9329ddf6d6,67fe759218bc917acc053e81,,,,,,,,,,,,,,,,,,,,,,With Brainslug Difficult 1 No Money,6,images/assets/snowy_original.jpg,learning,20,images/assets/success.jpg,images/assets/gameover.jpg,,,,,,,,,,,,,0,2,2,1,1,,,,,,,,,,,,,,,,,,,,,,,,,,,,,,,,
,,,,,,,,,,,,67fd4f955123c6d79ae66a3a,001,3,2025-04-15_11h16.00.052,avatar_quest_3AFC_legacy,2022.1.3,Win32,60.97560976,67fd4f955123c6d79ae66a3a,67fe6e666cecbc9329ddf6d6,67fe759218bc917acc053e81,,,,,,,,,,,,,,,,,,,,,,No Brainslug No Barriers No Money,0,images/assets/snowy_original.jpg,learning,10,images/assets/success.jpg,images/assets/gameover.jpg,,,,,,,,,,,,,0,3,3,10,1,,,,,,,,,,,,,,,,,,,,,,,,,,,,,,,,
,,,,,,,,,,,,67fd4f955123c6d79ae66a3a,001,3,2025-04-15_11h16.00.052,avatar_quest_3AFC_legacy,2022.1.3,Win32,60.97560976,67fd4f955123c6d79ae66a3a,67fe6e666cecbc9329ddf6d6,67fe759218bc917acc053e81,,,,,,,,,,,,,,,,,,,,,,With Brainslug No Barriers With Money,0,images/assets/snowy_money.jpg,learning,10,images/assets/success_money.jpg,images/assets/gameover.jpg,,,,,,,,,,,,,0,4,4,4,1,,,,,,,,,,,,,,,,,,,,,,,,,,,,,,,,
,,,,,,,,,,,,67fd4f955123c6d79ae66a3a,001,3,2025-04-15_11h16.00.052,avatar_quest_3AFC_legacy,2022.1.3,Win32,60.97560976,67fd4f955123c6d79ae66a3a,67fe6e666cecbc9329ddf6d6,67fe759218bc917acc053e81,,,,,,,,,,,,,,,,,,,,,,With Brainslug No Barriers No Money,0,images/assets/snowy_original.jpg,learning,10,images/assets/success.jpg,images/assets/gameover.jpg,,,,,,,,,,,,,0,5,5,5,1,,,,,,,,,,,,,,,,,,,,,,,,,,,,,,,,
,,,,,,,,,,,,67fd4f955123c6d79ae66a3a,001,3,2025-04-15_11h16.00.052,avatar_quest_3AFC_legacy,2022.1.3,Win32,60.97560976,67fd4f955123c6d79ae66a3a,67fe6e666cecbc9329ddf6d6,67fe759218bc917acc053e81,"[""right"",""left"",""left"",""down"",""down"",""down"",""right"",""right"",""right"",""left"",""down"",""down"",""down"",""left"",""down"",""up"",""up"",""up"",""up"",""right"",""left"",""left"",""left"",""left"",""left"",""left"",""up"",""up"",""up"",""right"",""right"",""left""]","[1.5734000000003334,2.241799999998875,2.5650999999995747,3.024000000000001,3.306099999999617,3.4705999999995925,4.305199999999218,4.703900000000317,4.886499999999955,5.1534000000003175,5.55190000000033,5.76849999999996,5.952699999999254,6.548799999998835,6.948499999999967,6.948999999999955,7.450299999998833,7.652400000000341,8.173199999999213,8.734599999999602,9.022400000000346,9.259400000000369,9.619199999999239,10.337799999998879,10.871400000000335,11.173799999998835,11.507499999999993,11.695099999999627,11.881900000000371,12.17890000000034,12.411900000000344,12.727599999999597]",,calibration,With Brainslug Difficult 2 With Money,4,13.0668,13.0796,4,2,0,FALSE,na,na,na,na,,,,,,,,,,,,,,,,,,,,,,,,,,,,,,,,,,0,0,0,0,1,,,,,,,,,,,,,,,,,,,,,,,
,,,,,,,,,,,,67fd4f955123c6d79ae66a3a,001,3,2025-04-15_11h16.00.052,avatar_quest_3AFC_legacy,2022.1.3,Win32,60.97560976,67fd4f955123c6d79ae66a3a,67fe6e666cecbc9329ddf6d6,67fe759218bc917acc053e81,,,,,,,,,,,,,,,,,,,,,,With Brainslug Difficult 2 With Money,12,images/assets/snowy_money.jpg,learning,20,images/assets/success_money.jpg,images/assets/gameover.jpg,,,,,,,,,,,,,0,6,6,2,1,,,,,,,,,,,,,,,,,,,,,,,,,,,,,,,,
,,,,,,,,,,,,67fd4f955123c6d79ae66a3a,001,3,2025-04-15_11h16.00.052,avatar_quest_3AFC_legacy,2022.1.3,Win32,60.97560976,67fd4f955123c6d79ae66a3a,67fe6e666cecbc9329ddf6d6,67fe759218bc917acc053e81,,,,,,,,,,,,,,,,,,,,,,No Brainslug Difficult 1 No Money,6,images/assets/snowy_original.jpg,learning,20,images/assets/success.jpg,images/assets/gameover.jpg,,,,,,,,,,,,,0,7,7,6,1,,,,,,,,,,,,,,,,,,,,,,,,,,,,,,,,
,,,,,,,,,,,,67fd4f955123c6d79ae66a3a,001,3,2025-04-15_11h16.00.052,avatar_quest_3AFC_legacy,2022.1.3,Win32,60.97560976,67fd4f955123c6d79ae66a3a,67fe6e666cecbc9329ddf6d6,67fe759218bc917acc053e81,,,,,,,,,,,,,,,,,,,,,,With Brainslug Difficult 2 No Money,12,images/assets/snowy_original.jpg,learning,20,images/assets/success.jpg,images/assets/gameover.jpg,,,,,,,,,,,,,0,8,8,3,1,,,,,,,,,,,,,,,,,,,,,,,,,,,,,,,,
,,,,,,,,,,,,67fd4f955123c6d79ae66a3a,001,3,2025-04-15_11h16.00.052,avatar_quest_3AFC_legacy,2022.1.3,Win32,60.97560976,67fd4f955123c6d79ae66a3a,67fe6e666cecbc9329ddf6d6,67fe759218bc917acc053e81,,,,,,,,,,,,,,,,,,,,,,No Brainslug Difficult 2 With Money,12,images/assets/snowy_money.jpg,learning,20,images/assets/success_money.jpg,images/assets/gameover.jpg,,,,,,,,,,,,,0,9,9,7,1,,,,,,,,,,,,,,,,,,,,,,,,,,,,,,,,
,,,,,,,,,,,,67fd4f955123c6d79ae66a3a,001,3,2025-04-15_11h16.00.052,avatar_quest_3AFC_legacy,2022.1.3,Win32,60.97560976,67fd4f955123c6d79ae66a3a,67fe6e666cecbc9329ddf6d6,67fe759218bc917acc053e81,,,,,,,,,,,,,,,,,,,,,,No Brainslug No Barriers With Money,0,images/assets/snowy_money.jpg,learning,10,images/assets/success_money.jpg,images/assets/gameover.jpg,,,,,,,,,,,,,0,10,10,9,1,,,,,,,,,,,,,,,,,,,,,,,,,,,,,,,,
,,,,,,,,,,,,67fd4f955123c6d79ae66a3a,001,3,2025-04-15_11h16.00.052,avatar_quest_3AFC_legacy,2022.1.3,Win32,60.97560976,67fd4f955123c6d79ae66a3a,67fe6e666cecbc9329ddf6d6,67fe759218bc917acc053e81,,,,,,,,,,,,,,,,,,,,,,,,,,,,,,,,,,,,,,,,,,,,,,,,,,,,,,,0,0,0,0,1,,,,,,,,,,,,,,,,,,
,,,,,,,,,,,,67fd4f955123c6d79ae66a3a,001,3,2025-04-15_11h16.00.052,avatar_quest_3AFC_legacy,2022.1.3,Win32,60.97560976,67fd4f955123c6d79ae66a3a,67fe6e666cecbc9329ddf6d6,67fe759218bc917acc053e81,,,,,,,,,,,,,,,,,,,,,,No Brainslug Difficult 2 No Money,12,images/assets/snowy_original.jpg,learning,20,images/assets/success.jpg,images/assets/gameover.jpg,,,,,,,,With Brainslug Difficult 2 With Money,With Brainslug Difficult 1 No Money,right,1.5428,"[""With Brainslug Difficult 1 No Money"",""With Brainslug Difficult 2 No Money""]",0,0,0,8,1,,,,,,,,,,,,,,,,,,,,,,,,,,,,,,,,
,,,,,,,,,,,,67fd4f955123c6d79ae66a3a,001,3,2025-04-15_11h16.00.052,avatar_quest_3AFC_legacy,2022.1.3,Win32,60.97560976,67fd4f955123c6d79ae66a3a,67fe6e666cecbc9329ddf6d6,67fe759218bc917acc053e81,,,,,,,,,,,,,,,,,,,,,,With Brainslug Difficult 1 No Money,6,images/assets/snowy_original.jpg,learning,20,images/assets/success.jpg,images/assets/gameover.jpg,,,,,,,,,,,,,0,1,1,1,1,,,,,,,,,,,,,,,,,,,,,,,,,,,,,,,,
,,,,,,,,,,,,67fd4f955123c6d79ae66a3a,001,3,2025-04-15_11h16.00.052,avatar_quest_3AFC_legacy,2022.1.3,Win32,60.97560976,67fd4f955123c6d79ae66a3a,67fe6e666cecbc9329ddf6d6,67fe759218bc917acc053e81,,,,,,,,,,,,,,,,,,,,,,No Brainslug No Barriers With Money,0,images/assets/snowy_money.jpg,learning,10,images/assets/success_money.jpg,images/assets/gameover.jpg,,,,,,,,,,,,,0,2,2,9,1,,,,,,,,,,,,,,,,,,,,,,,,,,,,,,,,
,,,,,,,,,,,,67fd4f955123c6d79ae66a3a,001,3,2025-04-15_11h16.00.052,avatar_quest_3AFC_legacy,2022.1.3,Win32,60.97560976,67fd4f955123c6d79ae66a3a,67fe6e666cecbc9329ddf6d6,67fe759218bc917acc053e81,,,,,,,,,,,,,,,,,,,,,,With Brainslug No Barriers With Money,0,images/assets/snowy_money.jpg,learning,10,images/assets/success_money.jpg,images/assets/gameover.jpg,,,,,,,,,,,,,0,3,3,4,1,,,,,,,,,,,,,,,,,,,,,,,,,,,,,,,,
,,,,,,,,,,,,67fd4f955123c6d79ae66a3a,001,3,2025-04-15_11h16.00.052,avatar_quest_3AFC_legacy,2022.1.3,Win32,60.97560976,67fd4f955123c6d79ae66a3a,67fe6e666cecbc9329ddf6d6,67fe759218bc917acc053e81,,,,,,,,,,,,,,,,,,,,,,No Brainslug Difficult 2 With Money,12,images/assets/snowy_money.jpg,learning,20,images/assets/success_money.jpg,images/assets/gameover.jpg,,,,,,,,,,,,,0,4,4,7,1,,,,,,,,,,,,,,,,,,,,,,,,,,,,,,,,
,,,,,,,,,,,,67fd4f955123c6d79ae66a3a,001,3,2025-04-15_11h16.00.052,avatar_quest_3AFC_legacy,2022.1.3,Win32,60.97560976,67fd4f955123c6d79ae66a3a,67fe6e666cecbc9329ddf6d6,67fe759218bc917acc053e81,"[""right"",""right"",""right"",""right"",""left"",""left"",""left"",""left"",""right"",""right"",""left"",""left"",""right"",""right"",""right"",""right"",""left"",""left"",""left"",""right"",""right"",""right"",""left"",""left"",""left"",""right"",""right"",""left"",""right"",""left"",""left"",""left""]","[0.6888000000007537,0.8745000000000118,1.0644000000003757,1.2164999999999964,1.3004999999999995,1.7042000000011512,2.106300000000772,2.3729999999999905,3.3140000000000214,3.830500000000029,4.367900000000361,4.828900000000374,5.299099999999612,5.513099999999611,5.661400000000356,6.1727000000011,6.600099999999657,6.898700000001156,7.216099999999642,7.809900000000368,8.112599999999645,8.303099999999631,8.683200000001136,8.86420000000112,9.719499999999982,10.618599999999617,10.76600000000002,11.809000000000026,12.215000000000032,12.267800000000761,12.848099999999647,13.010599999999613]",,calibration,With Brainslug Difficult 2 With Money,5,13.0668,13.0803,12,9,0,FALSE,na,na,na,na,,,,,,,,,,,,,,,,,,,,,,,,,,,,,,,,,,0,0,0,0,1,,,,,,,,,,,,,,,,,,,,,,,
,,,,,,,,,,,,67fd4f955123c6d79ae66a3a,001,3,2025-04-15_11h16.00.052,avatar_quest_3AFC_legacy,2022.1.3,Win32,60.97560976,67fd4f955123c6d79ae66a3a,67fe6e666cecbc9329ddf6d6,67fe759218bc917acc053e81,,,,,,,,,,,,,,,,,,,,,,With Brainslug Difficult 2 With Money,12,images/assets/snowy_money.jpg,learning,20,images/assets/success_money.jpg,images/assets/gameover.jpg,,,,,,,,,,,,,0,5,5,2,1,,,,,,,,,,,,,,,,,,,,,,,,,,,,,,,,
,,,,,,,,,,,,67fd4f955123c6d79ae66a3a,001,3,2025-04-15_11h16.00.052,avatar_quest_3AFC_legacy,2022.1.3,Win32,60.97560976,67fd4f955123c6d79ae66a3a,67fe6e666cecbc9329ddf6d6,67fe759218bc917acc053e81,,,,,,,,,,,,,,,,,,,,,,With Brainslug Difficult 2 No Money,12,images/assets/snowy_original.jpg,learning,20,images/assets/success.jpg,images/assets/gameover.jpg,,,,,,,,,,,,,0,6,6,3,1,,,,,,,,,,,,,,,,,,,,,,,,,,,,,,,,
,,,,,,,,,,,,67fd4f955123c6d79ae66a3a,001,3,2025-04-15_11h16.00.052,avatar_quest_3AFC_legacy,2022.1.3,Win32,60.97560976,67fd4f955123c6d79ae66a3a,67fe6e666cecbc9329ddf6d6,67fe759218bc917acc053e81,,,,,,,,,,,,,,,,,,,,,,No Brainslug No Barriers No Money,0,images/assets/snowy_original.jpg,learning,10,images/assets/success.jpg,images/assets/gameover.jpg,,,,,,,,,,,,,0,7,7,10,1,,,,,,,,,,,,,,,,,,,,,,,,,,,,,,,,
,,,,,,,,,,,,67fd4f955123c6d79ae66a3a,001,3,2025-04-15_11h16.00.052,avatar_quest_3AFC_legacy,2022.1.3,Win32,60.97560976,67fd4f955123c6d79ae66a3a,67fe6e666cecbc9329ddf6d6,67fe759218bc917acc053e81,,,,,,,,,,,,,,,,,,,,,,With Brainslug Difficult 1 With Money,6,images/assets/snowy_money.jpg,learning,20,images/assets/success_money.jpg,images/assets/gameover.jpg,,,,,,,,,,,,,0,8,8,0,1,,,,,,,,,,,,,,,,,,,,,,,,,,,,,,,,
,,,,,,,,,,,,67fd4f955123c6d79ae66a3a,001,3,2025-04-15_11h16.00.052,avatar_quest_3AFC_legacy,2022.1.3,Win32,60.97560976,67fd4f955123c6d79ae66a3a,67fe6e666cecbc9329ddf6d6,67fe759218bc917acc053e81,,,,,,,,,,,,,,,,,,,,,,No Brainslug Difficult 1 No Money,6,images/assets/snowy_original.jpg,learning,20,images/assets/success.jpg,images/assets/gameover.jpg,,,,,,,,,,,,,0,9,9,6,1,,,,,,,,,,,,,,,,,,,,,,,,,,,,,,,,
,,,,,,,,,,,,67fd4f955123c6d79ae66a3a,001,3,2025-04-15_11h16.00.052,avatar_quest_3AFC_legacy,2022.1.3,Win32,60.97560976,67fd4f955123c6d79ae66a3a,67fe6e666cecbc9329ddf6d6,67fe759218bc917acc053e81,,,,,,,,,,,,,,,,,,,,,,With Brainslug No Barriers No Money,0,images/assets/snowy_original.jpg,learning,10,images/assets/success.jpg,images/assets/gameover.jpg,,,,,,,,,,,,,0,10,10,5,1,,,,,,,,,,,,,,,,,,,,,,,,,,,,,,,,
,,,,,,,,,,,,67fd4f955123c6d79ae66a3a,001,3,2025-04-15_11h16.00.052,avatar_quest_3AFC_legacy,2022.1.3,Win32,60.97560976,67fd4f955123c6d79ae66a3a,67fe6e666cecbc9329ddf6d6,67fe759218bc917acc053e81,,,,,,,,,,,,,,,,,,,,,,,,,,,,,,,,,,,,,,,,,,,,,,,,,,,,,,,1,0,1,0,1,,,,,,,,,,,,,,,,,,
,,,,,,,,,,,,67fd4f955123c6d79ae66a3a,001,3,2025-04-15_11h16.00.052,avatar_quest_3AFC_legacy,2022.1.3,Win32,60.97560976,67fd4f955123c6d79ae66a3a,67fe6e666cecbc9329ddf6d6,67fe759218bc917acc053e81,,,,,,,,,,,,,,,,,,,,,,With Brainslug No Barriers With Money,0,images/assets/snowy_money.jpg,learning,10,images/assets/success_money.jpg,images/assets/gameover.jpg,,,,,,,,With Brainslug Difficult 2 With Money,With Brainslug Difficult 1 No Money,right,2.7119,"[""With Brainslug Difficult 1 No Money"",""With Brainslug Difficult 2 No Money""]",0,0,0,4,1,,,,,,,,,,,,,,,,,,,,,,,,,,,,,,,,
,,,,,,,,,,,,67fd4f955123c6d79ae66a3a,001,3,2025-04-15_11h16.00.052,avatar_quest_3AFC_legacy,2022.1.3,Win32,60.97560976,67fd4f955123c6d79ae66a3a,67fe6e666cecbc9329ddf6d6,67fe759218bc917acc053e81,,,,,,,,,,,,,,,,,,,,,,With Brainslug Difficult 2 No Money,12,images/assets/snowy_original.jpg,learning,20,images/assets/success.jpg,images/assets/gameover.jpg,,,,,,,,,,,,,0,1,1,3,1,,,,,,,,,,,,,,,,,,,,,,,,,,,,,,,,
,,,,,,,,,,,,67fd4f955123c6d79ae66a3a,001,3,2025-04-15_11h16.00.052,avatar_quest_3AFC_legacy,2022.1.3,Win32,60.97560976,67fd4f955123c6d79ae66a3a,67fe6e666cecbc9329ddf6d6,67fe759218bc917acc053e81,"[""left"",""left"",""left"",""left"",""left"",""left"",""right"",""right"",""right"",""right"",""left"",""right"",""right"",""left"",""right"",""right"",""right"",""right"",""right"",""right"",""left"",""right"",""right"",""right"",""right"",""right"",""left"",""left"",""left"",""left"",""right"",""left"",""right"",""right"",""right"",""left"",""right"",""right"",""right"",""right"",""right"",""right"",""right"",""left"",""right"",""right"",""left"",""left"",""right"",""right"",""right"",""right""]","[0.5036000000014837,0.7192000000011376,1.8788000000007514,2.175900000000354,2.6510000000000105,3.134400000000369,3.3975000000000364,3.7595000000000027,3.939200000001108,4.244300000000749,4.480000000000018,5.24920000000111,5.457100000001503,5.5756000000014865,5.6965000000000146,5.889499999999998,6.078600000001472,6.347700000001112,6.506500000000017,6.7718000000007805,6.805400000000361,6.938500000000033,7.13820000000112,7.289900000000387,7.474300000000767,7.6393000000007305,7.707300000000771,8.044900000000382,8.293900000000406,8.569100000001526,8.587500000000034,8.762800000000766,8.797500000000014,8.96350000000001,9.143900000000372,9.178100000001507,9.328400000000386,9.511600000001522,9.647800000000757,9.902400000000398,10.142499999999984,10.341999999999985,10.544100000001492,10.70070000000112,10.72290000000038,10.910200000001112,10.927999999999997,11.431900000000383,11.584600000001501,11.774600000001499,11.939200000001108,12.149200000001144]",,calibration,With Brainslug Difficult 2 With Money,6,13.0668,12.4209,21,7,0,TRUE,na,na,na,na,,,,,,,,,,,,,,,,,,,,,,,,,,,,,,,,,,0,0,0,0,1,,,,,,,,,,,,,,,,,,,,,,,
,,,,,,,,,,,,67fd4f955123c6d79ae66a3a,001,3,2025-04-15_11h16.00.052,avatar_quest_3AFC_legacy,2022.1.3,Win32,60.97560976,67fd4f955123c6d79ae66a3a,67fe6e666cecbc9329ddf6d6,67fe759218bc917acc053e81,,,,,,,,,,,,,,,,,,,,,,With Brainslug Difficult 2 With Money,12,images/assets/snowy_money.jpg,learning,20,images/assets/success_money.jpg,images/assets/gameover.jpg,,,,,,,,,,,,,0,2,2,2,1,,,,,,,,,,,,,,,,,,,,,,,,,,,,,,,,
,,,,,,,,,,,,67fd4f955123c6d79ae66a3a,001,3,2025-04-15_11h16.00.052,avatar_quest_3AFC_legacy,2022.1.3,Win32,60.97560976,67fd4f955123c6d79ae66a3a,67fe6e666cecbc9329ddf6d6,67fe759218bc917acc053e81,,,,,,,,,,,,,,,,,,,,,,No Brainslug Difficult 2 No Money,12,images/assets/snowy_original.jpg,learning,20,images/assets/success.jpg,images/assets/gameover.jpg,,,,,,,,,,,,,0,3,3,8,1,,,,,,,,,,,,,,,,,,,,,,,,,,,,,,,,
,,,,,,,,,,,,67fd4f955123c6d79ae66a3a,001,3,2025-04-15_11h16.00.052,avatar_quest_3AFC_legacy,2022.1.3,Win32,60.97560976,67fd4f955123c6d79ae66a3a,67fe6e666cecbc9329ddf6d6,67fe759218bc917acc053e81,,,,,,,,,,,,,,,,,,,,,,With Brainslug No Barriers No Money,0,images/assets/snowy_original.jpg,learning,10,images/assets/success.jpg,images/assets/gameover.jpg,,,,,,,,,,,,,0,4,4,5,1,,,,,,,,,,,,,,,,,,,,,,,,,,,,,,,,
,,,,,,,,,,,,67fd4f955123c6d79ae66a3a,001,3,2025-04-15_11h16.00.052,avatar_quest_3AFC_legacy,2022.1.3,Win32,60.97560976,67fd4f955123c6d79ae66a3a,67fe6e666cecbc9329ddf6d6,67fe759218bc917acc053e81,,,,,,,,,,,,,,,,,,,,,,No Brainslug No Barriers With Money,0,images/assets/snowy_money.jpg,learning,10,images/assets/success_money.jpg,images/assets/gameover.jpg,,,,,,,,,,,,,0,5,5,9,1,,,,,,,,,,,,,,,,,,,,,,,,,,,,,,,,
,,,,,,,,,,,,67fd4f955123c6d79ae66a3a,001,3,2025-04-15_11h16.00.052,avatar_quest_3AFC_legacy,2022.1.3,Win32,60.97560976,67fd4f955123c6d79ae66a3a,67fe6e666cecbc9329ddf6d6,67fe759218bc917acc053e81,,,,,,,,,,,,,,,,,,,,,,With Brainslug Difficult 1 No Money,6,images/assets/snowy_original.jpg,learning,20,images/assets/success.jpg,images/assets/gameover.jpg,,,,,,,,,,,,,0,6,6,1,1,,,,,,,,,,,,,,,,,,,,,,,,,,,,,,,,
,,,,,,,,,,,,67fd4f955123c6d79ae66a3a,001,3,2025-04-15_11h16.00.052,avatar_quest_3AFC_legacy,2022.1.3,Win32,60.97560976,67fd4f955123c6d79ae66a3a,67fe6e666cecbc9329ddf6d6,67fe759218bc917acc053e81,,,,,,,,,,,,,,,,,,,,,,No Brainslug No Barriers No Money,0,images/assets/snowy_original.jpg,learning,10,images/assets/success.jpg,images/assets/gameover.jpg,,,,,,,,,,,,,0,7,7,10,1,,,,,,,,,,,,,,,,,,,,,,,,,,,,,,,,
,,,,,,,,,,,,67fd4f955123c6d79ae66a3a,001,3,2025-04-15_11h16.00.052,avatar_quest_3AFC_legacy,2022.1.3,Win32,60.97560976,67fd4f955123c6d79ae66a3a,67fe6e666cecbc9329ddf6d6,67fe759218bc917acc053e81,,,,,,,,,,,,,,,,,,,,,,With Brainslug Difficult 1 With Money,6,images/assets/snowy_money.jpg,learning,20,images/assets/success_money.jpg,images/assets/gameover.jpg,,,,,,,,,,,,,0,8,8,0,1,,,,,,,,,,,,,,,,,,,,,,,,,,,,,,,,
,,,,,,,,,,,,67fd4f955123c6d79ae66a3a,001,3,2025-04-15_11h16.00.052,avatar_quest_3AFC_legacy,2022.1.3,Win32,60.97560976,67fd4f955123c6d79ae66a3a,67fe6e666cecbc9329ddf6d6,67fe759218bc917acc053e81,,,,,,,,,,,,,,,,,,,,,,No Brainslug Difficult 2 With Money,12,images/assets/snowy_money.jpg,learning,20,images/assets/success_money.jpg,images/assets/gameover.jpg,,,,,,,,,,,,,0,9,9,7,1,,,,,,,,,,,,,,,,,,,,,,,,,,,,,,,,
,,,,,,,,,,,,67fd4f955123c6d79ae66a3a,001,3,2025-04-15_11h16.00.052,avatar_quest_3AFC_legacy,2022.1.3,Win32,60.97560976,67fd4f955123c6d79ae66a3a,67fe6e666cecbc9329ddf6d6,67fe759218bc917acc053e81,,,,,,,,,,,,,,,,,,,,,,No Brainslug Difficult 1 No Money,6,images/assets/snowy_original.jpg,learning,20,images/assets/success.jpg,images/assets/gameover.jpg,,,,,,,,,,,,,0,10,10,6,1,,,,,,,,,,,,,,,,,,,,,,,,,,,,,,,,
,,,,,,,,,,,,67fd4f955123c6d79ae66a3a,001,3,2025-04-15_11h16.00.052,avatar_quest_3AFC_legacy,2022.1.3,Win32,60.97560976,67fd4f955123c6d79ae66a3a,67fe6e666cecbc9329ddf6d6,67fe759218bc917acc053e81,,,,,,,,,,,,,,,,,,,,,,,,,,,,,,,,,,,,,,,,,,,,,,,,,,,,,,,2,0,2,0,1,,,,,,,,,,,,,,,,,,
,,,,,,,,,,,,67fd4f955123c6d79ae66a3a,001,3,2025-04-15_11h16.00.052,avatar_quest_3AFC_legacy,2022.1.3,Win32,60.97560976,67fd4f955123c6d79ae66a3a,67fe6e666cecbc9329ddf6d6,67fe759218bc917acc053e81,,,,,,,,,,,,,,,,,,,,,,No Brainslug No Barriers With Money,0,images/assets/snowy_money.jpg,learning,10,images/assets/success_money.jpg,images/assets/gameover.jpg,,,,,,,,With Brainslug Difficult 2 With Money,With Brainslug Difficult 1 No Money,right,1.7283,"[""With Brainslug Difficult 1 No Money"",""With Brainslug Difficult 2 No Money""]",0,0,0,9,1,,,,,,,,,,,,,,,,,,,,,,,,,,,,,,,,
,,,,,,,,,,,,67fd4f955123c6d79ae66a3a,001,3,2025-04-15_11h16.00.052,avatar_quest_3AFC_legacy,2022.1.3,Win32,60.97560976,67fd4f955123c6d79ae66a3a,67fe6e666cecbc9329ddf6d6,67fe759218bc917acc053e81,,,,,,,,,,,,,,,,,,,,,,No Brainslug Difficult 1 No Money,6,images/assets/snowy_original.jpg,learning,20,images/assets/success.jpg,images/assets/gameover.jpg,,,,,,,,,,,,,0,1,1,6,1,,,,,,,,,,,,,,,,,,,,,,,,,,,,,,,,
,,,,,,,,,,,,67fd4f955123c6d79ae66a3a,001,3,2025-04-15_11h16.00.052,avatar_quest_3AFC_legacy,2022.1.3,Win32,60.97560976,67fd4f955123c6d79ae66a3a,67fe6e666cecbc9329ddf6d6,67fe759218bc917acc053e81,,,,,,,,,,,,,,,,,,,,,,With Brainslug No Barriers No Money,0,images/assets/snowy_original.jpg,learning,10,images/assets/success.jpg,images/assets/gameover.jpg,,,,,,,,,,,,,0,2,2,5,1,,,,,,,,,,,,,,,,,,,,,,,,,,,,,,,,
,,,,,,,,,,,,67fd4f955123c6d79ae66a3a,001,3,2025-04-15_11h16.00.052,avatar_quest_3AFC_legacy,2022.1.3,Win32,60.97560976,67fd4f955123c6d79ae66a3a,67fe6e666cecbc9329ddf6d6,67fe759218bc917acc053e81,,,,,,,,,,,,,,,,,,,,,,With Brainslug Difficult 1 No Money,6,images/assets/snowy_original.jpg,learning,20,images/assets/success.jpg,images/assets/gameover.jpg,,,,,,,,,,,,,0,3,3,1,1,,,,,,,,,,,,,,,,,,,,,,,,,,,,,,,,
,,,,,,,,,,,,67fd4f955123c6d79ae66a3a,001,3,2025-04-15_11h16.00.052,avatar_quest_3AFC_legacy,2022.1.3,Win32,60.97560976,67fd4f955123c6d79ae66a3a,67fe6e666cecbc9329ddf6d6,67fe759218bc917acc053e81,,,,,,,,,,,,,,,,,,,,,,With Brainslug No Barriers With Money,0,images/assets/snowy_money.jpg,learning,10,images/assets/success_money.jpg,images/assets/gameover.jpg,,,,,,,,,,,,,0,4,4,4,1,,,,,,,,,,,,,,,,,,,,,,,,,,,,,,,,
,,,,,,,,,,,,67fd4f955123c6d79ae66a3a,001,3,2025-04-15_11h16.00.052,avatar_quest_3AFC_legacy,2022.1.3,Win32,60.97560976,67fd4f955123c6d79ae66a3a,67fe6e666cecbc9329ddf6d6,67fe759218bc917acc053e81,,,,,,,,,,,,,,,,,,,,,,With Brainslug Difficult 2 No Money,12,images/assets/snowy_original.jpg,learning,20,images/assets/success.jpg,images/assets/gameover.jpg,,,,,,,,,,,,,0,5,5,3,1,,,,,,,,,,,,,,,,,,,,,,,,,,,,,,,,
,,,,,,,,,,,,67fd4f955123c6d79ae66a3a,001,3,2025-04-15_11h16.00.052,avatar_quest_3AFC_legacy,2022.1.3,Win32,60.97560976,67fd4f955123c6d79ae66a3a,67fe6e666cecbc9329ddf6d6,67fe759218bc917acc053e81,,,,,,,,,,,,,,,,,,,,,,No Brainslug Difficult 2 No Money,12,images/assets/snowy_original.jpg,learning,20,images/assets/success.jpg,images/assets/gameover.jpg,,,,,,,,,,,,,0,6,6,8,1,,,,,,,,,,,,,,,,,,,,,,,,,,,,,,,,
,,,,,,,,,,,,67fd4f955123c6d79ae66a3a,001,3,2025-04-15_11h16.00.052,avatar_quest_3AFC_legacy,2022.1.3,Win32,60.97560976,67fd4f955123c6d79ae66a3a,67fe6e666cecbc9329ddf6d6,67fe759218bc917acc053e81,,,,,,,,,,,,,,,,,,,,,,No Brainslug No Barriers No Money,0,images/assets/snowy_original.jpg,learning,10,images/assets/success.jpg,images/assets/gameover.jpg,,,,,,,,,,,,,0,7,7,10,1,,,,,,,,,,,,,,,,,,,,,,,,,,,,,,,,
,,,,,,,,,,,,67fd4f955123c6d79ae66a3a,001,3,2025-04-15_11h16.00.052,avatar_quest_3AFC_legacy,2022.1.3,Win32,60.97560976,67fd4f955123c6d79ae66a3a,67fe6e666cecbc9329ddf6d6,67fe759218bc917acc053e81,"[""right"",""right"",""left"",""left"",""right"",""right"",""right"",""right"",""right"",""left"",""right"",""right"",""left"",""right"",""right"",""right"",""right"",""up"",""right"",""left"",""right"",""left"",""right"",""right"",""left"",""right"",""right"",""left"",""right"",""left"",""right"",""right"",""left"",""right"",""right"",""left"",""right"",""left"",""right"",""left"",""right"",""right"",""right"",""left"",""right"",""right"",""right"",""up"",""right"",""left"",""right"",""right"",""left"",""right"",""left"",""right"",""left"",""right"",""right"",""left"",""right"",""left"",""right""]","[0.38359999999960337,0.6165999999996075,0.8489999999999895,1.638400000000388,1.746400000000392,1.9461999999992372,2.1294000000003734,2.313199999999256,2.4805000000000064,2.695699999999249,2.963699999999278,3.1306999999992513,3.306699999999239,3.4459000000003925,3.6159999999999854,3.7718000000007237,3.922300000000746,4.530900000000372,5.0434999999999945,5.248099999999624,5.446099999999603,5.591199999999276,5.741699999999241,5.947800000000768,5.9985999999996125,6.147400000000346,6.344300000000771,6.3629999999999995,6.544099999999617,6.657699999999238,6.854400000000396,7.039900000000387,7.169699999999239,7.267199999999264,7.474400000000344,7.615000000000009,7.915999999999997,7.986400000000344,8.107199999999239,8.3125,8.387,8.552599999999643,8.862699999999279,9.405500000000018,9.540400000000375,9.752099999999643,9.984800000000746,10.286599999999623,10.68009999999964,10.822300000000723,11.01940000000036,11.222800000000746,11.307000000000016,11.456500000000005,11.628900000000385,11.79740000000038,11.972300000000757,12.121300000000758,12.386199999999235,12.454000000000008,12.65319999999923,12.787699999999234,12.938499999999976]",,calibration,With Brainslug Difficult 2 With Money,7,13.0668,13.0728,15,3,0,FALSE,na,na,na,na,,,,,,,,,,,,,,,,,,,,,,,,,,,,,,,,,,0,0,0,0,1,,,,,,,,,,,,,,,,,,,,,,,
,,,,,,,,,,,,67fd4f955123c6d79ae66a3a,001,3,2025-04-15_11h16.00.052,avatar_quest_3AFC_legacy,2022.1.3,Win32,60.97560976,67fd4f955123c6d79ae66a3a,67fe6e666cecbc9329ddf6d6,67fe759218bc917acc053e81,,,,,,,,,,,,,,,,,,,,,,With Brainslug Difficult 2 With Money,12,images/assets/snowy_money.jpg,learning,20,images/assets/success_money.jpg,images/assets/gameover.jpg,,,,,,,,,,,,,0,8,8,2,1,,,,,,,,,,,,,,,,,,,,,,,,,,,,,,,,
,,,,,,,,,,,,67fd4f955123c6d79ae66a3a,001,3,2025-04-15_11h16.00.052,avatar_quest_3AFC_legacy,2022.1.3,Win32,60.97560976,67fd4f955123c6d79ae66a3a,67fe6e666cecbc9329ddf6d6,67fe759218bc917acc053e81,,,,,,,,,,,,,,,,,,,,,,With Brainslug Difficult 1 With Money,6,images/assets/snowy_money.jpg,learning,20,images/assets/success_money.jpg,images/assets/gameover.jpg,,,,,,,,,,,,,0,9,9,0,1,,,,,,,,,,,,,,,,,,,,,,,,,,,,,,,,
,,,,,,,,,,,,67fd4f955123c6d79ae66a3a,001,3,2025-04-15_11h16.00.052,avatar_quest_3AFC_legacy,2022.1.3,Win32,60.97560976,67fd4f955123c6d79ae66a3a,67fe6e666cecbc9329ddf6d6,67fe759218bc917acc053e81,,,,,,,,,,,,,,,,,,,,,,No Brainslug Difficult 2 With Money,12,images/assets/snowy_money.jpg,learning,20,images/assets/success_money.jpg,images/assets/gameover.jpg,,,,,,,,,,,,,0,10,10,7,1,,,,,,,,,,,,,,,,,,,,,,,,,,,,,,,,
,,,,,,,,,,,,67fd4f955123c6d79ae66a3a,001,3,2025-04-15_11h16.00.052,avatar_quest_3AFC_legacy,2022.1.3,Win32,60.97560976,67fd4f955123c6d79ae66a3a,67fe6e666cecbc9329ddf6d6,67fe759218bc917acc053e81,,,,,,,,,,,,,,,,,,,,,,,,,,,,,,,,,,,,,,,,,,,,,,,,,,,,,,,3,0,3,0,1,,,,,,,,,,,,,,,,,,
,,,,,,,,,,,,67fd4f955123c6d79ae66a3a,001,3,2025-04-15_11h16.00.052,avatar_quest_3AFC_legacy,2022.1.3,Win32,60.97560976,67fd4f955123c6d79ae66a3a,67fe6e666cecbc9329ddf6d6,67fe759218bc917acc053e81,,,,,,,,,,,,,,,,,,,,,,With Brainslug Difficult 1 No Money,6,images/assets/snowy_original.jpg,learning,20,images/assets/success.jpg,images/assets/gameover.jpg,,,,,,,,With Brainslug Difficult 2 With Money,With Brainslug Difficult 1 No Money,right,1.0622,"[""With Brainslug Difficult 1 No Money"",""With Brainslug Difficult 2 No Money""]",0,0,0,1,1,,,,,,,,,,,,,,,,,,,,,,,,,,,,,,,,
,,,,,,,,,,,,67fd4f955123c6d79ae66a3a,001,3,2025-04-15_11h16.00.052,avatar_quest_3AFC_legacy,2022.1.3,Win32,60.97560976,67fd4f955123c6d79ae66a3a,67fe6e666cecbc9329ddf6d6,67fe759218bc917acc053e81,,,,,,,,,,,,,,,,,,,,,,No Brainslug No Barriers With Money,0,images/assets/snowy_money.jpg,learning,10,images/assets/success_money.jpg,images/assets/gameover.jpg,,,,,,,,,,,,,0,1,1,9,1,,,,,,,,,,,,,,,,,,,,,,,,,,,,,,,,
,,,,,,,,,,,,67fd4f955123c6d79ae66a3a,001,3,2025-04-15_11h16.00.052,avatar_quest_3AFC_legacy,2022.1.3,Win32,60.97560976,67fd4f955123c6d79ae66a3a,67fe6e666cecbc9329ddf6d6,67fe759218bc917acc053e81,,,,,,,,,,,,,,,,,,,,,,No Brainslug Difficult 1 No Money,6,images/assets/snowy_original.jpg,learning,20,images/assets/success.jpg,images/assets/gameover.jpg,,,,,,,,,,,,,0,2,2,6,1,,,,,,,,,,,,,,,,,,,,,,,,,,,,,,,,
,,,,,,,,,,,,67fd4f955123c6d79ae66a3a,001,3,2025-04-15_11h16.00.052,avatar_quest_3AFC_legacy,2022.1.3,Win32,60.97560976,67fd4f955123c6d79ae66a3a,67fe6e666cecbc9329ddf6d6,67fe759218bc917acc053e81,,,,,,,,,,,,,,,,,,,,,,With Brainslug Difficult 2 No Money,12,images/assets/snowy_original.jpg,learning,20,images/assets/success.jpg,images/assets/gameover.jpg,,,,,,,,,,,,,0,3,3,3,1,,,,,,,,,,,,,,,,,,,,,,,,,,,,,,,,
,,,,,,,,,,,,67fd4f955123c6d79ae66a3a,001,3,2025-04-15_11h16.00.052,avatar_quest_3AFC_legacy,2022.1.3,Win32,60.97560976,67fd4f955123c6d79ae66a3a,67fe6e666cecbc9329ddf6d6,67fe759218bc917acc053e81,,,,,,,,,,,,,,,,,,,,,,No Brainslug Difficult 2 With Money,12,images/assets/snowy_money.jpg,learning,20,images/assets/success_money.jpg,images/assets/gameover.jpg,,,,,,,,,,,,,0,4,4,7,1,,,,,,,,,,,,,,,,,,,,,,,,,,,,,,,,
,,,,,,,,,,,,67fd4f955123c6d79ae66a3a,001,3,2025-04-15_11h16.00.052,avatar_quest_3AFC_legacy,2022.1.3,Win32,60.97560976,67fd4f955123c6d79ae66a3a,67fe6e666cecbc9329ddf6d6,67fe759218bc917acc053e81,,,,,,,,,,,,,,,,,,,,,,No Brainslug No Barriers No Money,0,images/assets/snowy_original.jpg,learning,10,images/assets/success.jpg,images/assets/gameover.jpg,,,,,,,,,,,,,0,5,5,10,1,,,,,,,,,,,,,,,,,,,,,,,,,,,,,,,,
,,,,,,,,,,,,67fd4f955123c6d79ae66a3a,001,3,2025-04-15_11h16.00.052,avatar_quest_3AFC_legacy,2022.1.3,Win32,60.97560976,67fd4f955123c6d79ae66a3a,67fe6e666cecbc9329ddf6d6,67fe759218bc917acc053e81,,,,,,,,,,,,,,,,,,,,,,With Brainslug No Barriers No Money,0,images/assets/snowy_original.jpg,learning,10,images/assets/success.jpg,images/assets/gameover.jpg,,,,,,,,,,,,,0,6,6,5,1,,,,,,,,,,,,,,,,,,,,,,,,,,,,,,,,
,,,,,,,,,,,,67fd4f955123c6d79ae66a3a,001,3,2025-04-15_11h16.00.052,avatar_quest_3AFC_legacy,2022.1.3,Win32,60.97560976,67fd4f955123c6d79ae66a3a,67fe6e666cecbc9329ddf6d6,67fe759218bc917acc053e81,,,,,,,,,,,,,,,,,,,,,,With Brainslug Difficult 1 With Money,6,images/assets/snowy_money.jpg,learning,20,images/assets/success_money.jpg,images/assets/gameover.jpg,,,,,,,,,,,,,0,7,7,0,1,,,,,,,,,,,,,,,,,,,,,,,,,,,,,,,,
,,,,,,,,,,,,67fd4f955123c6d79ae66a3a,001,3,2025-04-15_11h16.00.052,avatar_quest_3AFC_legacy,2022.1.3,Win32,60.97560976,67fd4f955123c6d79ae66a3a,67fe6e666cecbc9329ddf6d6,67fe759218bc917acc053e81,,,,,,,,,,,,,,,,,,,,,,No Brainslug Difficult 2 No Money,12,images/assets/snowy_original.jpg,learning,20,images/assets/success.jpg,images/assets/gameover.jpg,,,,,,,,,,,,,0,8,8,8,1,,,,,,,,,,,,,,,,,,,,,,,,,,,,,,,,
,,,,,,,,,,,,67fd4f955123c6d79ae66a3a,001,3,2025-04-15_11h16.00.052,avatar_quest_3AFC_legacy,2022.1.3,Win32,60.97560976,67fd4f955123c6d79ae66a3a,67fe6e666cecbc9329ddf6d6,67fe759218bc917acc053e81,,,,,,,,,,,,,,,,,,,,,,With Brainslug No Barriers With Money,0,images/assets/snowy_money.jpg,learning,10,images/assets/success_money.jpg,images/assets/gameover.jpg,,,,,,,,,,,,,0,9,9,4,1,,,,,,,,,,,,,,,,,,,,,,,,,,,,,,,,
,,,,,,,,,,,,67fd4f955123c6d79ae66a3a,001,3,2025-04-15_11h16.00.052,avatar_quest_3AFC_legacy,2022.1.3,Win32,60.97560976,67fd4f955123c6d79ae66a3a,67fe6e666cecbc9329ddf6d6,67fe759218bc917acc053e81,"[""right"",""right"",""left"",""left"",""right"",""right"",""right"",""right"",""right"",""right"",""right"",""right"",""right"",""left"",""right"",""right"",""right"",""right"",""right"",""right"",""right"",""right"",""left"",""right"",""left"",""right"",""left"",""right"",""left"",""right"",""left"",""right""]","[6.432499999999948,6.666400000000351,6.832299999998838,7.300900000000354,7.450499999999977,7.651299999998855,7.833900000000369,8.015699999999242,8.198900000000322,8.423400000000356,8.574400000000367,8.824299999998857,9.03869999999921,9.138799999998866,9.347099999999614,10.39519999999925,10.58190000000036,10.751599999999598,10.92969999999923,11.099499999999978,11.247199999999225,11.429900000000373,11.59269999999924,11.905499999999961,11.974499999999978,12.143699999999228,12.307599999999582,12.405499999999961,12.571499999999958,12.642599999999618,12.791499999999985,12.89149999999995]",,calibration,With Brainslug Difficult 2 With Money,8,13.0668,13.0747,9,3,0,FALSE,na,na,na,na,,,,,,,,,,,,,,,,,,,,,,,,,,,,,,,,,,0,0,0,0,1,,,,,,,,,,,,,,,,,,,,,,,
,,,,,,,,,,,,67fd4f955123c6d79ae66a3a,001,3,2025-04-15_11h16.00.052,avatar_quest_3AFC_legacy,2022.1.3,Win32,60.97560976,67fd4f955123c6d79ae66a3a,67fe6e666cecbc9329ddf6d6,67fe759218bc917acc053e81,,,,,,,,,,,,,,,,,,,,,,With Brainslug Difficult 2 With Money,12,images/assets/snowy_money.jpg,learning,20,images/assets/success_money.jpg,images/assets/gameover.jpg,,,,,,,,,,,,,0,10,10,2,1,,,,,,,,,,,,,,,,,,,,,,,,,,,,,,,,
,,,,,,,,,,,,67fd4f955123c6d79ae66a3a,001,3,2025-04-15_11h16.00.052,avatar_quest_3AFC_legacy,2022.1.3,Win32,60.97560976,67fd4f955123c6d79ae66a3a,67fe6e666cecbc9329ddf6d6,67fe759218bc917acc053e81,,,,,,,,,,,,,,,,,,,,,,,,,,,,,,,,,,,,,,,,,,,,,,,,,,,,,,,4,0,4,0,1,,,,,,,,,,,,,,,,,,
,,,,,,,,,,,,67fd4f955123c6d79ae66a3a,001,3,2025-04-15_11h16.00.052,avatar_quest_3AFC_legacy,2022.1.3,Win32,60.97560976,67fd4f955123c6d79ae66a3a,67fe6e666cecbc9329ddf6d6,67fe759218bc917acc053e81,,,,,,,,,,,,,,,,,,,,,,With Brainslug No Barriers With Money,0,images/assets/snowy_money.jpg,learning,10,images/assets/success_money.jpg,images/assets/gameover.jpg,,,,,,,,With Brainslug Difficult 2 With Money,With Brainslug Difficult 1 No Money,right,0.4983,"[""With Brainslug Difficult 1 No Money"",""With Brainslug Difficult 2 No Money""]",0,0,0,4,1,,,,,,,,,,,,,,,,,,,,,,,,,,,,,,,,
,,,,,,,,,,,,67fd4f955123c6d79ae66a3a,001,3,2025-04-15_11h16.00.052,avatar_quest_3AFC_legacy,2022.1.3,Win32,60.97560976,67fd4f955123c6d79ae66a3a,67fe6e666cecbc9329ddf6d6,67fe759218bc917acc053e81,,,,,,,,,,,,,,,,,,,,,,With Brainslug No Barriers No Money,0,images/assets/snowy_original.jpg,learning,10,images/assets/success.jpg,images/assets/gameover.jpg,,,,,,,,,,,,,0,1,1,5,1,,,,,,,,,,,,,,,,,,,,,,,,,,,,,,,,
,,,,,,,,,,,,67fd4f955123c6d79ae66a3a,001,3,2025-04-15_11h16.00.052,avatar_quest_3AFC_legacy,2022.1.3,Win32,60.97560976,67fd4f955123c6d79ae66a3a,67fe6e666cecbc9329ddf6d6,67fe759218bc917acc053e81,,,,,,,,,,,,,,,,,,,,,,No Brainslug No Barriers No Money,0,images/assets/snowy_original.jpg,learning,10,images/assets/success.jpg,images/assets/gameover.jpg,,,,,,,,,,,,,0,2,2,10,1,,,,,,,,,,,,,,,,,,,,,,,,,,,,,,,,
,,,,,,,,,,,,67fd4f955123c6d79ae66a3a,001,3,2025-04-15_11h16.00.052,avatar_quest_3AFC_legacy,2022.1.3,Win32,60.97560976,67fd4f955123c6d79ae66a3a,67fe6e666cecbc9329ddf6d6,67fe759218bc917acc053e81,,,,,,,,,,,,,,,,,,,,,,No Brainslug Difficult 1 No Money,6,images/assets/snowy_original.jpg,learning,20,images/assets/success.jpg,images/assets/gameover.jpg,,,,,,,,,,,,,0,3,3,6,1,,,,,,,,,,,,,,,,,,,,,,,,,,,,,,,,
,,,,,,,,,,,,67fd4f955123c6d79ae66a3a,001,3,2025-04-15_11h16.00.052,avatar_quest_3AFC_legacy,2022.1.3,Win32,60.97560976,67fd4f955123c6d79ae66a3a,67fe6e666cecbc9329ddf6d6,67fe759218bc917acc053e81,"[""right"",""left"",""right"",""left"",""right"",""left"",""right"",""left"",""right"",""right"",""right"",""right"",""right"",""right"",""right"",""left"",""right"",""left"",""right"",""left"",""right"",""left"",""right"",""left"",""right"",""left"",""right"",""right"",""left"",""right"",""left"",""right"",""left"",""right"",""left""]","[1.0914999999999964,1.613300000000777,1.9300000000000068,2.0380999999996448,2.139499999999998,2.3804000000004066,2.429800000000796,2.6960000000000264,2.728900000000408,3.061300000000756,4.539199999999255,4.7514000000003875,4.923000000000002,5.18440000000038,5.400199999999302,5.5119000000004235,5.727300000000753,5.859099999999671,5.994699999999284,6.143599999999651,6.276300000000788,6.458400000000381,6.621099999999672,6.817199999999275,6.883900000000381,7.050699999999267,7.08509999999967,7.266199999999287,7.3180000000000405,7.483199999999272,7.585500000000025,7.73490000000038,7.799400000000389,7.899800000000766,11.93530000000078]",,calibration,With Brainslug Difficult 2 With Money,9,13.0668,13.0794,19,6,0,FALSE,na,na,na,na,,,,,,,,,,,,,,,,,,,,,,,,,,,,,,,,,,0,0,0,0,1,,,,,,,,,,,,,,,,,,,,,,,
,,,,,,,,,,,,67fd4f955123c6d79ae66a3a,001,3,2025-04-15_11h16.00.052,avatar_quest_3AFC_legacy,2022.1.3,Win32,60.97560976,67fd4f955123c6d79ae66a3a,67fe6e666cecbc9329ddf6d6,67fe759218bc917acc053e81,,,,,,,,,,,,,,,,,,,,,,With Brainslug Difficult 2 With Money,12,images/assets/snowy_money.jpg,learning,20,images/assets/success_money.jpg,images/assets/gameover.jpg,,,,,,,,,,,,,0,4,4,2,1,,,,,,,,,,,,,,,,,,,,,,,,,,,,,,,,
,,,,,,,,,,,,67fd4f955123c6d79ae66a3a,001,3,2025-04-15_11h16.00.052,avatar_quest_3AFC_legacy,2022.1.3,Win32,60.97560976,67fd4f955123c6d79ae66a3a,67fe6e666cecbc9329ddf6d6,67fe759218bc917acc053e81,,,,,,,,,,,,,,,,,,,,,,With Brainslug Difficult 2 No Money,12,images/assets/snowy_original.jpg,learning,20,images/assets/success.jpg,images/assets/gameover.jpg,,,,,,,,,,,,,0,5,5,3,1,,,,,,,,,,,,,,,,,,,,,,,,,,,,,,,,
,,,,,,,,,,,,67fd4f955123c6d79ae66a3a,001,3,2025-04-15_11h16.00.052,avatar_quest_3AFC_legacy,2022.1.3,Win32,60.97560976,67fd4f955123c6d79ae66a3a,67fe6e666cecbc9329ddf6d6,67fe759218bc917acc053e81,,,,,,,,,,,,,,,,,,,,,,No Brainslug No Barriers With Money,0,images/assets/snowy_money.jpg,learning,10,images/assets/success_money.jpg,images/assets/gameover.jpg,,,,,,,,,,,,,0,6,6,9,1,,,,,,,,,,,,,,,,,,,,,,,,,,,,,,,,
,,,,,,,,,,,,67fd4f955123c6d79ae66a3a,001,3,2025-04-15_11h16.00.052,avatar_quest_3AFC_legacy,2022.1.3,Win32,60.97560976,67fd4f955123c6d79ae66a3a,67fe6e666cecbc9329ddf6d6,67fe759218bc917acc053e81,,,,,,,,,,,,,,,,,,,,,,With Brainslug Difficult 1 With Money,6,images/assets/snowy_money.jpg,learning,20,images/assets/success_money.jpg,images/assets/gameover.jpg,,,,,,,,,,,,,0,7,7,0,1,,,,,,,,,,,,,,,,,,,,,,,,,,,,,,,,
,,,,,,,,,,,,67fd4f955123c6d79ae66a3a,001,3,2025-04-15_11h16.00.052,avatar_quest_3AFC_legacy,2022.1.3,Win32,60.97560976,67fd4f955123c6d79ae66a3a,67fe6e666cecbc9329ddf6d6,67fe759218bc917acc053e81,,,,,,,,,,,,,,,,,,,,,,No Brainslug Difficult 2 With Money,12,images/assets/snowy_money.jpg,learning,20,images/assets/success_money.jpg,images/assets/gameover.jpg,,,,,,,,,,,,,0,8,8,7,1,,,,,,,,,,,,,,,,,,,,,,,,,,,,,,,,
,,,,,,,,,,,,67fd4f955123c6d79ae66a3a,001,3,2025-04-15_11h16.00.052,avatar_quest_3AFC_legacy,2022.1.3,Win32,60.97560976,67fd4f955123c6d79ae66a3a,67fe6e666cecbc9329ddf6d6,67fe759218bc917acc053e81,,,,,,,,,,,,,,,,,,,,,,With Brainslug Difficult 1 No Money,6,images/assets/snowy_original.jpg,learning,20,images/assets/success.jpg,images/assets/gameover.jpg,,,,,,,,,,,,,0,9,9,1,1,,,,,,,,,,,,,,,,,,,,,,,,,,,,,,,,
,,,,,,,,,,,,67fd4f955123c6d79ae66a3a,001,3,2025-04-15_11h16.00.052,avatar_quest_3AFC_legacy,2022.1.3,Win32,60.97560976,67fd4f955123c6d79ae66a3a,67fe6e666cecbc9329ddf6d6,67fe759218bc917acc053e81,,,,,,,,,,,,,,,,,,,,,,No Brainslug Difficult 2 No Money,12,images/assets/snowy_original.jpg,learning,20,images/assets/success.jpg,images/assets/gameover.jpg,,,,,,,,,,,,,0,10,10,8,1,,,,,,,,,,,,,,,,,,,,,,,,,,,,,,,,
,,,,,,,,,,,,67fd4f955123c6d79ae66a3a,001,3,2025-04-15_11h16.00.052,avatar_quest_3AFC_legacy,2022.1.3,Win32,60.97560976,67fd4f955123c6d79ae66a3a,67fe6e666cecbc9329ddf6d6,67fe759218bc917acc053e81,,,,,,,,,,,,,,,,,,,,,,,,,,,,,,,,,,,,,,,,,,,,,,,,,,,,,,,5,0,5,0,1,,,,,,,,,,,,,,,,,,
,,,,,,,,,,,,67fd4f955123c6d79ae66a3a,001,3,2025-04-15_11h16.00.052,avatar_quest_3AFC_legacy,2022.1.3,Win32,60.97560976,67fd4f955123c6d79ae66a3a,67fe6e666cecbc9329ddf6d6,67fe759218bc917acc053e81,"[""left"",""left"",""left"",""left"",""left"",""right"",""left"",""left"",""right"",""left"",""up"",""up"",""up"",""up"",""right"",""right"",""left"",""right"",""right"",""right"",""left"",""right"",""right"",""right"",""left"",""right"",""right"",""right"",""right"",""right"",""left"",""right"",""right"",""right"",""right"",""right""]","[0.5450000000000159,0.9989999999999668,2.293299999998851,2.4950000000000045,2.743699999999251,3.569599999999639,4.0201999999992495,4.381699999999228,4.565299999998899,4.833099999999604,4.851499999999987,5.147199999999259,5.295099999999593,5.475500000000011,5.757199999999216,6.056699999999239,6.463900000000365,6.913900000000353,7.144900000000348,7.333599999999592,7.754500000000007,8.147400000000346,8.647799999998881,8.84899999999999,9.024000000000001,9.041999999999973,10.055000000000007,10.92240000000038,11.129999999999995,11.328299999998876,11.640799999998876,12.241900000000385,12.394799999998895,12.576900000000364,12.789299999998889,13.010599999999613]",,calibration,With Brainslug Difficult 2 With Money,10,13.0668,13.0827,9,2,0,FALSE,na,na,na,na,,,,,,,,,,,,,,,,,,,,With Brainslug Difficult 2 With Money,With Brainslug Difficult 1 No Money,right,3.2069,"[""With Brainslug Difficult 1 No Money"",""With Brainslug Difficult 2 No Money""]",,,,,,,,,,0,0,0,0,1,,,,,,,,,,,,,,,,,,,,,,,
,,,,,,,,,,,,67fd4f955123c6d79ae66a3a,001,3,2025-04-15_11h16.00.052,avatar_quest_3AFC_legacy,2022.1.3,Win32,60.97560976,67fd4f955123c6d79ae66a3a,67fe6e666cecbc9329ddf6d6,67fe759218bc917acc053e81,,,,,,,,,,,,,,,,,,,,,,With Brainslug Difficult 2 With Money,12,images/assets/snowy_money.jpg,learning,20,images/assets/success_money.jpg,images/assets/gameover.jpg,,,,,,,,,,,,,0,0,0,2,1,,,,,,,,,,,,,,,,,,,,,,,,,,,,,,,,
,,,,,,,,,,,,67fd4f955123c6d79ae66a3a,001,3,2025-04-15_11h16.00.052,avatar_quest_3AFC_legacy,2022.1.3,Win32,60.97560976,67fd4f955123c6d79ae66a3a,67fe6e666cecbc9329ddf6d6,67fe759218bc917acc053e81,,,,,,,,,,,,,,,,,,,,,,No Brainslug No Barriers With Money,0,images/assets/snowy_money.jpg,learning,10,images/assets/success_money.jpg,images/assets/gameover.jpg,,,,,,,,,,,,,0,1,1,9,1,,,,,,,,,,,,,,,,,,,,,,,,,,,,,,,,
,,,,,,,,,,,,67fd4f955123c6d79ae66a3a,001,3,2025-04-15_11h16.00.052,avatar_quest_3AFC_legacy,2022.1.3,Win32,60.97560976,67fd4f955123c6d79ae66a3a,67fe6e666cecbc9329ddf6d6,67fe759218bc917acc053e81,,,,,,,,,,,,,,,,,,,,,,With Brainslug No Barriers No Money,0,images/assets/snowy_original.jpg,learning,10,images/assets/success.jpg,images/assets/gameover.jpg,,,,,,,,,,,,,0,2,2,5,1,,,,,,,,,,,,,,,,,,,,,,,,,,,,,,,,
,,,,,,,,,,,,67fd4f955123c6d79ae66a3a,001,3,2025-04-15_11h16.00.052,avatar_quest_3AFC_legacy,2022.1.3,Win32,60.97560976,67fd4f955123c6d79ae66a3a,67fe6e666cecbc9329ddf6d6,67fe759218bc917acc053e81,,,,,,,,,,,,,,,,,,,,,,No Brainslug Difficult 2 No Money,12,images/assets/snowy_original.jpg,learning,20,images/assets/success.jpg,images/assets/gameover.jpg,,,,,,,,,,,,,0,3,3,8,1,,,,,,,,,,,,,,,,,,,,,,,,,,,,,,,,
,,,,,,,,,,,,67fd4f955123c6d79ae66a3a,001,3,2025-04-15_11h16.00.052,avatar_quest_3AFC_legacy,2022.1.3,Win32,60.97560976,67fd4f955123c6d79ae66a3a,67fe6e666cecbc9329ddf6d6,67fe759218bc917acc053e81,,,,,,,,,,,,,,,,,,,,,,With Brainslug Difficult 1 No Money,6,images/assets/snowy_original.jpg,learning,20,images/assets/success.jpg,images/assets/gameover.jpg,,,,,,,,,,,,,0,4,4,1,1,,,,,,,,,,,,,,,,,,,,,,,,,,,,,,,,
,,,,,,,,,,,,67fd4f955123c6d79ae66a3a,001,3,2025-04-15_11h16.00.052,avatar_quest_3AFC_legacy,2022.1.3,Win32,60.97560976,67fd4f955123c6d79ae66a3a,67fe6e666cecbc9329ddf6d6,67fe759218bc917acc053e81,,,,,,,,,,,,,,,,,,,,,,No Brainslug Difficult 1 No Money,6,images/assets/snowy_original.jpg,learning,20,images/assets/success.jpg,images/assets/gameover.jpg,,,,,,,,,,,,,0,5,5,6,1,,,,,,,,,,,,,,,,,,,,,,,,,,,,,,,,
,,,,,,,,,,,,67fd4f955123c6d79ae66a3a,001,3,2025-04-15_11h16.00.052,avatar_quest_3AFC_legacy,2022.1.3,Win32,60.97560976,67fd4f955123c6d79ae66a3a,67fe6e666cecbc9329ddf6d6,67fe759218bc917acc053e81,,,,,,,,,,,,,,,,,,,,,,No Brainslug No Barriers No Money,0,images/assets/snowy_original.jpg,learning,10,images/assets/success.jpg,images/assets/gameover.jpg,,,,,,,,,,,,,0,6,6,10,1,,,,,,,,,,,,,,,,,,,,,,,,,,,,,,,,
,,,,,,,,,,,,67fd4f955123c6d79ae66a3a,001,3,2025-04-15_11h16.00.052,avatar_quest_3AFC_legacy,2022.1.3,Win32,60.97560976,67fd4f955123c6d79ae66a3a,67fe6e666cecbc9329ddf6d6,67fe759218bc917acc053e81,,,,,,,,,,,,,,,,,,,,,,With Brainslug Difficult 2 No Money,12,images/assets/snowy_original.jpg,learning,20,images/assets/success.jpg,images/assets/gameover.jpg,,,,,,,,,,,,,0,7,7,3,1,,,,,,,,,,,,,,,,,,,,,,,,,,,,,,,,
,,,,,,,,,,,,67fd4f955123c6d79ae66a3a,001,3,2025-04-15_11h16.00.052,avatar_quest_3AFC_legacy,2022.1.3,Win32,60.97560976,67fd4f955123c6d79ae66a3a,67fe6e666cecbc9329ddf6d6,67fe759218bc917acc053e81,,,,,,,,,,,,,,,,,,,,,,With Brainslug No Barriers With Money,0,images/assets/snowy_money.jpg,learning,10,images/assets/success_money.jpg,images/assets/gameover.jpg,,,,,,,,,,,,,0,8,8,4,1,,,,,,,,,,,,,,,,,,,,,,,,,,,,,,,,
,,,,,,,,,,,,67fd4f955123c6d79ae66a3a,001,3,2025-04-15_11h16.00.052,avatar_quest_3AFC_legacy,2022.1.3,Win32,60.97560976,67fd4f955123c6d79ae66a3a,67fe6e666cecbc9329ddf6d6,67fe759218bc917acc053e81,,,,,,,,,,,,,,,,,,,,,,No Brainslug Difficult 2 With Money,12,images/assets/snowy_money.jpg,learning,20,images/assets/success_money.jpg,images/assets/gameover.jpg,,,,,,,,,,,,,0,9,9,7,1,,,,,,,,,,,,,,,,,,,,,,,,,,,,,,,,
,,,,,,,,,,,,67fd4f955123c6d79ae66a3a,001,3,2025-04-15_11h16.00.052,avatar_quest_3AFC_legacy,2022.1.3,Win32,60.97560976,67fd4f955123c6d79ae66a3a,67fe6e666cecbc9329ddf6d6,67fe759218bc917acc053e81,,,,,,,,,,,,,,,,,,,,,,With Brainslug Difficult 1 With Money,6,images/assets/snowy_money.jpg,learning,20,images/assets/success_money.jpg,images/assets/gameover.jpg,,,,,,,,,,,,,0,10,10,0,1,,,,,,,,,,,,,,,,,,,,,,,,,,,,,,,,
,,,,,,,,,,,,67fd4f955123c6d79ae66a3a,001,3,2025-04-15_11h16.00.052,avatar_quest_3AFC_legacy,2022.1.3,Win32,60.97560976,67fd4f955123c6d79ae66a3a,67fe6e666cecbc9329ddf6d6,67fe759218bc917acc053e81,,,,,,,,,,,,,,,,,,,,,,,,,,,,,,,,,,,,,,,,,,,,,,,,,,,,,,,6,0,6,0,1,,,,,,,,,,,,,,,,,,
,,,,,,,,,,,,67fd4f955123c6d79ae66a3a,001,3,2025-04-15_11h16.00.052,avatar_quest_3AFC_legacy,2022.1.3,Win32,60.97560976,67fd4f955123c6d79ae66a3a,67fe6e666cecbc9329ddf6d6,67fe759218bc917acc053e81,,,,,,,,,,,,,,,,,,,,,,With Brainslug Difficult 1 No Money,6,images/assets/snowy_original.jpg,learning,20,images/assets/success.jpg,images/assets/gameover.jpg,,,,,,,,With Brainslug Difficult 2 With Money,With Brainslug Difficult 1 No Money,right,0.127,"[""With Brainslug Difficult 1 No Money"",""With Brainslug Difficult 2 No Money""]",0,0,0,1,1,,,,,,,,,,,,,,,,,,,,,,,,,,,,,,,,
,,,,,,,,,,,,67fd4f955123c6d79ae66a3a,001,3,2025-04-15_11h16.00.052,avatar_quest_3AFC_legacy,2022.1.3,Win32,60.97560976,67fd4f955123c6d79ae66a3a,67fe6e666cecbc9329ddf6d6,67fe759218bc917acc053e81,,,,,,,,,,,,,,,,,,,,,,No Brainslug No Barriers With Money,0,images/assets/snowy_money.jpg,learning,10,images/assets/success_money.jpg,images/assets/gameover.jpg,,,,,,,,,,,,,0,1,1,9,1,,,,,,,,,,,,,,,,,,,,,,,,,,,,,,,,
,,,,,,,,,,,,67fd4f955123c6d79ae66a3a,001,3,2025-04-15_11h16.00.052,avatar_quest_3AFC_legacy,2022.1.3,Win32,60.97560976,67fd4f955123c6d79ae66a3a,67fe6e666cecbc9329ddf6d6,67fe759218bc917acc053e81,,,,,,,,,,,,,,,,,,,,,,No Brainslug Difficult 2 No Money,12,images/assets/snowy_original.jpg,learning,20,images/assets/success.jpg,images/assets/gameover.jpg,,,,,,,,,,,,,0,2,2,8,1,,,,,,,,,,,,,,,,,,,,,,,,,,,,,,,,
,,,,,,,,,,,,67fd4f955123c6d79ae66a3a,001,3,2025-04-15_11h16.00.052,avatar_quest_3AFC_legacy,2022.1.3,Win32,60.97560976,67fd4f955123c6d79ae66a3a,67fe6e666cecbc9329ddf6d6,67fe759218bc917acc053e81,,,,,,,,,,,,,,,,,,,,,,With Brainslug Difficult 1 With Money,6,images/assets/snowy_money.jpg,learning,20,images/assets/success_money.jpg,images/assets/gameover.jpg,,,,,,,,,,,,,0,3,3,0,1,,,,,,,,,,,,,,,,,,,,,,,,,,,,,,,,
,,,,,,,,,,,,67fd4f955123c6d79ae66a3a,001,3,2025-04-15_11h16.00.052,avatar_quest_3AFC_legacy,2022.1.3,Win32,60.97560976,67fd4f955123c6d79ae66a3a,67fe6e666cecbc9329ddf6d6,67fe759218bc917acc053e81,,,,,,,,,,,,,,,,,,,,,,No Brainslug Difficult 1 No Money,6,images/assets/snowy_original.jpg,learning,20,images/assets/success.jpg,images/assets/gameover.jpg,,,,,,,,,,,,,0,4,4,6,1,,,,,,,,,,,,,,,,,,,,,,,,,,,,,,,,
,,,,,,,,,,,,67fd4f955123c6d79ae66a3a,001,3,2025-04-15_11h16.00.052,avatar_quest_3AFC_legacy,2022.1.3,Win32,60.97560976,67fd4f955123c6d79ae66a3a,67fe6e666cecbc9329ddf6d6,67fe759218bc917acc053e81,,,,,,,,,,,,,,,,,,,,,,With Brainslug No Barriers No Money,0,images/assets/snowy_original.jpg,learning,10,images/assets/success.jpg,images/assets/gameover.jpg,,,,,,,,,,,,,0,5,5,5,1,,,,,,,,,,,,,,,,,,,,,,,,,,,,,,,,
,,,,,,,,,,,,67fd4f955123c6d79ae66a3a,001,3,2025-04-15_11h16.00.052,avatar_quest_3AFC_legacy,2022.1.3,Win32,60.97560976,67fd4f955123c6d79ae66a3a,67fe6e666cecbc9329ddf6d6,67fe759218bc917acc053e81,,,,,,,,,,,,,,,,,,,,,,No Brainslug No Barriers No Money,0,images/assets/snowy_original.jpg,learning,10,images/assets/success.jpg,images/assets/gameover.jpg,,,,,,,,,,,,,0,6,6,10,1,,,,,,,,,,,,,,,,,,,,,,,,,,,,,,,,
,,,,,,,,,,,,67fd4f955123c6d79ae66a3a,001,3,2025-04-15_11h16.00.052,avatar_quest_3AFC_legacy,2022.1.3,Win32,60.97560976,67fd4f955123c6d79ae66a3a,67fe6e666cecbc9329ddf6d6,67fe759218bc917acc053e81,,,,,,,,,,,,,,,,,,,,,,With Brainslug Difficult 2 No Money,12,images/assets/snowy_original.jpg,learning,20,images/assets/success.jpg,images/assets/gameover.jpg,,,,,,,,,,,,,0,7,7,3,1,,,,,,,,,,,,,,,,,,,,,,,,,,,,,,,,
,,,,,,,,,,,,67fd4f955123c6d79ae66a3a,001,3,2025-04-15_11h16.00.052,avatar_quest_3AFC_legacy,2022.1.3,Win32,60.97560976,67fd4f955123c6d79ae66a3a,67fe6e666cecbc9329ddf6d6,67fe759218bc917acc053e81,"[""right"",""right"",""right"",""right"",""right"",""left"",""right"",""right"",""right"",""left"",""right"",""right"",""right"",""right"",""right"",""right"",""left"",""right"",""right"",""right"",""left"",""right"",""right"",""right"",""left"",""right"",""right"",""right"",""left"",""right"",""left"",""left"",""left"",""up"",""right"",""left"",""right"",""right"",""right"",""left"",""right"",""right"",""right"",""right"",""right""]","[0.39080000000069504,0.6575000000000273,1.6924000000003616,1.9272000000011076,2.0924999999999727,2.328300000000695,2.6777000000010958,2.9332000000010794,3.129099999999653,3.3285999999995965,3.659400000000346,4.447700000001078,4.648000000000025,4.817599999999629,5.006900000000314,5.241099999999619,5.307700000001091,5.522700000001123,5.722200000001067,5.925200000001041,6.204999999999927,6.680599999999572,6.849200000001133,7.038499999999999,7.221800000000712,7.521300000000679,7.703400000000329,7.971900000000346,8.228300000000672,8.444800000000669,8.611700000001065,8.896800000000667,9.557999999999993,9.558300000000713,9.93320000000108,9.9504000000004,10.156900000000292,10.876700000001051,11.009500000000003,11.269900000000348,12.01620000000105,12.199999999999932,12.409200000001022,12.72430000000071,12.890400000000284]",,calibration,With Brainslug Difficult 2 With Money,11,13.0668,13.0767,15,5,0,FALSE,na,na,na,na,,,,,,,,,,,,,,,,,,,,,,,,,,,,,,,,,,0,0,0,0,1,,,,,,,,,,,,,,,,,,,,,,,
,,,,,,,,,,,,67fd4f955123c6d79ae66a3a,001,3,2025-04-15_11h16.00.052,avatar_quest_3AFC_legacy,2022.1.3,Win32,60.97560976,67fd4f955123c6d79ae66a3a,67fe6e666cecbc9329ddf6d6,67fe759218bc917acc053e81,,,,,,,,,,,,,,,,,,,,,,With Brainslug Difficult 2 With Money,12,images/assets/snowy_money.jpg,learning,20,images/assets/success_money.jpg,images/assets/gameover.jpg,,,,,,,,,,,,,0,8,8,2,1,,,,,,,,,,,,,,,,,,,,,,,,,,,,,,,,
,,,,,,,,,,,,67fd4f955123c6d79ae66a3a,001,3,2025-04-15_11h16.00.052,avatar_quest_3AFC_legacy,2022.1.3,Win32,60.97560976,67fd4f955123c6d79ae66a3a,67fe6e666cecbc9329ddf6d6,67fe759218bc917acc053e81,,,,,,,,,,,,,,,,,,,,,,With Brainslug No Barriers With Money,0,images/assets/snowy_money.jpg,learning,10,images/assets/success_money.jpg,images/assets/gameover.jpg,,,,,,,,,,,,,0,9,9,4,1,,,,,,,,,,,,,,,,,,,,,,,,,,,,,,,,
,,,,,,,,,,,,67fd4f955123c6d79ae66a3a,001,3,2025-04-15_11h16.00.052,avatar_quest_3AFC_legacy,2022.1.3,Win32,60.97560976,67fd4f955123c6d79ae66a3a,67fe6e666cecbc9329ddf6d6,67fe759218bc917acc053e81,,,,,,,,,,,,,,,,,,,,,,No Brainslug Difficult 2 With Money,12,images/assets/snowy_money.jpg,learning,20,images/assets/success_money.jpg,images/assets/gameover.jpg,,,,,,,,,,,,,0,10,10,7,1,,,,,,,,,,,,,,,,,,,,,,,,,,,,,,,,
,,,,,,,,,,,,67fd4f955123c6d79ae66a3a,001,3,2025-04-15_11h16.00.052,avatar_quest_3AFC_legacy,2022.1.3,Win32,60.97560976,67fd4f955123c6d79ae66a3a,67fe6e666cecbc9329ddf6d6,67fe759218bc917acc053e81,,,,,,,,,,,,,,,,,,,,,,,,,,,,,,,,,,,,,,,,,,,,,,,,,,,,,,,7,0,7,0,1,,,,,,,,,,,,,,,,,,
,,,,,,,,,,,,67fd4f955123c6d79ae66a3a,001,3,2025-04-15_11h16.00.052,avatar_quest_3AFC_legacy,2022.1.3,Win32,60.97560976,67fd4f955123c6d79ae66a3a,67fe6e666cecbc9329ddf6d6,67fe759218bc917acc053e81,,,,,,,,,,,,,,,,,,,,,,No Brainslug No Barriers No Money,0,images/assets/snowy_original.jpg,learning,10,images/assets/success.jpg,images/assets/gameover.jpg,,,,,,,,With Brainslug Difficult 2 With Money,With Brainslug Difficult 1 No Money,right,9.8695,"[""With Brainslug Difficult 1 No Money"",""With Brainslug Difficult 2 No Money""]",0,0,0,10,1,,,,,,,,,,,,,,,,,,,,,,,,,,,,,,,,
,,,,,,,,,,,,67fd4f955123c6d79ae66a3a,001,3,2025-04-15_11h16.00.052,avatar_quest_3AFC_legacy,2022.1.3,Win32,60.97560976,67fd4f955123c6d79ae66a3a,67fe6e666cecbc9329ddf6d6,67fe759218bc917acc053e81,,,,,,,,,,,,,,,,,,,,,,With Brainslug No Barriers With Money,0,images/assets/snowy_money.jpg,learning,10,images/assets/success_money.jpg,images/assets/gameover.jpg,,,,,,,,,,,,,0,1,1,4,1,,,,,,,,,,,,,,,,,,,,,,,,,,,,,,,,
,,,,,,,,,,,,67fd4f955123c6d79ae66a3a,001,3,2025-04-15_11h16.00.052,avatar_quest_3AFC_legacy,2022.1.3,Win32,60.97560976,67fd4f955123c6d79ae66a3a,67fe6e666cecbc9329ddf6d6,67fe759218bc917acc053e81,,,,,,,,,,,,,,,,,,,,,,No Brainslug Difficult 2 No Money,12,images/assets/snowy_original.jpg,learning,20,images/assets/success.jpg,images/assets/gameover.jpg,,,,,,,,,,,,,0,2,2,8,1,,,,,,,,,,,,,,,,,,,,,,,,,,,,,,,,
,,,,,,,,,,,,67fd4f955123c6d79ae66a3a,001,3,2025-04-15_11h16.00.052,avatar_quest_3AFC_legacy,2022.1.3,Win32,60.97560976,67fd4f955123c6d79ae66a3a,67fe6e666cecbc9329ddf6d6,67fe759218bc917acc053e81,"[""right"",""right"",""right"",""right"",""left"",""up"",""up"",""up"",""up"",""up"",""left"",""up"",""up"",""right"",""right"",""right"",""down"",""right"",""left"",""right"",""right"",""left"",""up"",""up"",""up"",""up"",""left"",""right"",""right"",""left"",""left"",""left"",""right"",""right"",""right"",""right"",""left"",""right"",""left""]","[1.3729000000004135,1.608599999999683,1.7916999999993095,2.236400000000458,2.9225999999996475,3.655800000000795,3.925800000000777,4.135800000000813,4.72090000000037,4.985300000000848,5.217400000000453,5.622199999999339,5.937599999999634,6.253400000000397,6.5090000000000146,6.7916999999993095,7.062099999999646,7.369800000000737,7.47300000000007,7.685800000000768,7.871400000000449,8.09580000000085,8.316300000000751,8.53769999999929,8.713500000000067,8.895000000000095,9.0775000000001,9.257599999999684,9.473900000000413,9.557199999999284,10.064699999999334,10.248199999999315,10.494300000000749,11.082199999999261,11.38030000000083,11.749400000000378,11.903900000000476,12.663199999999279,12.937400000000366]",,calibration,With Brainslug Difficult 2 With Money,12,13.0668,13.0726,2,1,0,FALSE,na,na,na,na,,,,,,,,,,,,,,,,,,,,,,,,,,,,,,,,,,0,0,0,0,1,,,,,,,,,,,,,,,,,,,,,,,
,,,,,,,,,,,,67fd4f955123c6d79ae66a3a,001,3,2025-04-15_11h16.00.052,avatar_quest_3AFC_legacy,2022.1.3,Win32,60.97560976,67fd4f955123c6d79ae66a3a,67fe6e666cecbc9329ddf6d6,67fe759218bc917acc053e81,,,,,,,,,,,,,,,,,,,,,,With Brainslug Difficult 2 With Money,12,images/assets/snowy_money.jpg,learning,20,images/assets/success_money.jpg,images/assets/gameover.jpg,,,,,,,,,,,,,0,3,3,2,1,,,,,,,,,,,,,,,,,,,,,,,,,,,,,,,,
,,,,,,,,,,,,67fd4f955123c6d79ae66a3a,001,3,2025-04-15_11h16.00.052,avatar_quest_3AFC_legacy,2022.1.3,Win32,60.97560976,67fd4f955123c6d79ae66a3a,67fe6e666cecbc9329ddf6d6,67fe759218bc917acc053e81,,,,,,,,,,,,,,,,,,,,,,No Brainslug Difficult 2 With Money,12,images/assets/snowy_money.jpg,learning,20,images/assets/success_money.jpg,images/assets/gameover.jpg,,,,,,,,,,,,,0,4,4,7,1,,,,,,,,,,,,,,,,,,,,,,,,,,,,,,,,
,,,,,,,,,,,,67fd4f955123c6d79ae66a3a,001,3,2025-04-15_11h16.00.052,avatar_quest_3AFC_legacy,2022.1.3,Win32,60.97560976,67fd4f955123c6d79ae66a3a,67fe6e666cecbc9329ddf6d6,67fe759218bc917acc053e81,,,,,,,,,,,,,,,,,,,,,,With Brainslug Difficult 1 No Money,6,images/assets/snowy_original.jpg,learning,20,images/assets/success.jpg,images/assets/gameover.jpg,,,,,,,,,,,,,0,5,5,1,1,,,,,,,,,,,,,,,,,,,,,,,,,,,,,,,,
,,,,,,,,,,,,67fd4f955123c6d79ae66a3a,001,3,2025-04-15_11h16.00.052,avatar_quest_3AFC_legacy,2022.1.3,Win32,60.97560976,67fd4f955123c6d79ae66a3a,67fe6e666cecbc9329ddf6d6,67fe759218bc917acc053e81,,,,,,,,,,,,,,,,,,,,,,With Brainslug No Barriers No Money,0,images/assets/snowy_original.jpg,learning,10,images/assets/success.jpg,images/assets/gameover.jpg,,,,,,,,,,,,,0,6,6,5,1,,,,,,,,,,,,,,,,,,,,,,,,,,,,,,,,
,,,,,,,,,,,,67fd4f955123c6d79ae66a3a,001,3,2025-04-15_11h16.00.052,avatar_quest_3AFC_legacy,2022.1.3,Win32,60.97560976,67fd4f955123c6d79ae66a3a,67fe6e666cecbc9329ddf6d6,67fe759218bc917acc053e81,,,,,,,,,,,,,,,,,,,,,,No Brainslug No Barriers With Money,0,images/assets/snowy_money.jpg,learning,10,images/assets/success_money.jpg,images/assets/gameover.jpg,,,,,,,,,,,,,0,7,7,9,1,,,,,,,,,,,,,,,,,,,,,,,,,,,,,,,,
,,,,,,,,,,,,67fd4f955123c6d79ae66a3a,001,3,2025-04-15_11h16.00.052,avatar_quest_3AFC_legacy,2022.1.3,Win32,60.97560976,67fd4f955123c6d79ae66a3a,67fe6e666cecbc9329ddf6d6,67fe759218bc917acc053e81,,,,,,,,,,,,,,,,,,,,,,With Brainslug Difficult 2 No Money,12,images/assets/snowy_original.jpg,learning,20,images/assets/success.jpg,images/assets/gameover.jpg,,,,,,,,,,,,,0,8,8,3,1,,,,,,,,,,,,,,,,,,,,,,,,,,,,,,,,
,,,,,,,,,,,,67fd4f955123c6d79ae66a3a,001,3,2025-04-15_11h16.00.052,avatar_quest_3AFC_legacy,2022.1.3,Win32,60.97560976,67fd4f955123c6d79ae66a3a,67fe6e666cecbc9329ddf6d6,67fe759218bc917acc053e81,,,,,,,,,,,,,,,,,,,,,,With Brainslug Difficult 1 With Money,6,images/assets/snowy_money.jpg,learning,20,images/assets/success_money.jpg,images/assets/gameover.jpg,,,,,,,,,,,,,0,9,9,0,1,,,,,,,,,,,,,,,,,,,,,,,,,,,,,,,,
,,,,,,,,,,,,67fd4f955123c6d79ae66a3a,001,3,2025-04-15_11h16.00.052,avatar_quest_3AFC_legacy,2022.1.3,Win32,60.97560976,67fd4f955123c6d79ae66a3a,67fe6e666cecbc9329ddf6d6,67fe759218bc917acc053e81,,,,,,,,,,,,,,,,,,,,,,No Brainslug Difficult 1 No Money,6,images/assets/snowy_original.jpg,learning,20,images/assets/success.jpg,images/assets/gameover.jpg,,,,,,,,,,,,,0,10,10,6,1,,,,,,,,,,,,,,,,,,,,,,,,,,,,,,,,
,,,,,,,,,,,,67fd4f955123c6d79ae66a3a,001,3,2025-04-15_11h16.00.052,avatar_quest_3AFC_legacy,2022.1.3,Win32,60.97560976,67fd4f955123c6d79ae66a3a,67fe6e666cecbc9329ddf6d6,67fe759218bc917acc053e81,,,,,,,,,,,,,,,,,,,,,,,,,,,,,,,,,,,,,,,,,,,,,,,,,,,,,,,8,0,8,0,1,,,,,,,,,,,,,,,,,,
,,,,,,,,,,,,67fd4f955123c6d79ae66a3a,001,3,2025-04-15_11h16.00.052,avatar_quest_3AFC_legacy,2022.1.3,Win32,60.97560976,67fd4f955123c6d79ae66a3a,67fe6e666cecbc9329ddf6d6,67fe759218bc917acc053e81,"[""left"",""right"",""left"",""right"",""right"",""right"",""right"",""left"",""right"",""left"",""right"",""left"",""right"",""right"",""right"",""right"",""right"",""right"",""right"",""right"",""right"",""right"",""right"",""right"",""right"",""right"",""right"",""right"",""left"",""right"",""right"",""right"",""right"",""down"",""down""]","[0.6276999999992086,1.1946999999992158,5.167800000000739,5.547900000000368,5.828099999999608,6.0143000000007305,6.379199999999287,6.432300000000737,6.664300000000708,6.797199999999293,6.881900000000314,7.329800000000773,7.523500000000013,7.74030000000073,7.928999999999974,8.141699999999219,8.329300000000785,8.534400000000346,8.750400000000354,8.98059999999964,9.209500000000048,9.427699999999277,9.687300000000732,9.885099999999625,10.08540000000039,10.271099999999592,10.49030000000073,10.9651999999993,11.084599999999568,11.446000000000026,11.665199999999231,11.856900000000337,12.020900000000324,12.572300000000723,12.930400000000418]",,calibration,With Brainslug Difficult 2 With Money,13,13.0668,13.072,8,2,0,FALSE,na,na,na,na,,,,,,,,,,,,,,,,,,,,With Brainslug Difficult 2 With Money,With Brainslug Difficult 1 No Money,right,0.178,"[""With Brainslug Difficult 1 No Money"",""With Brainslug Difficult 2 No Money""]",,,,,,,,,,0,0,0,0,1,,,,,,,,,,,,,,,,,,,,,,,
,,,,,,,,,,,,67fd4f955123c6d79ae66a3a,001,3,2025-04-15_11h16.00.052,avatar_quest_3AFC_legacy,2022.1.3,Win32,60.97560976,67fd4f955123c6d79ae66a3a,67fe6e666cecbc9329ddf6d6,67fe759218bc917acc053e81,,,,,,,,,,,,,,,,,,,,,,With Brainslug Difficult 2 With Money,12,images/assets/snowy_money.jpg,learning,20,images/assets/success_money.jpg,images/assets/gameover.jpg,,,,,,,,,,,,,0,0,0,2,1,,,,,,,,,,,,,,,,,,,,,,,,,,,,,,,,
,,,,,,,,,,,,67fd4f955123c6d79ae66a3a,001,3,2025-04-15_11h16.00.052,avatar_quest_3AFC_legacy,2022.1.3,Win32,60.97560976,67fd4f955123c6d79ae66a3a,67fe6e666cecbc9329ddf6d6,67fe759218bc917acc053e81,,,,,,,,,,,,,,,,,,,,,,No Brainslug No Barriers With Money,0,images/assets/snowy_money.jpg,learning,10,images/assets/success_money.jpg,images/assets/gameover.jpg,,,,,,,,,,,,,0,1,1,9,1,,,,,,,,,,,,,,,,,,,,,,,,,,,,,,,,
,,,,,,,,,,,,67fd4f955123c6d79ae66a3a,001,3,2025-04-15_11h16.00.052,avatar_quest_3AFC_legacy,2022.1.3,Win32,60.97560976,67fd4f955123c6d79ae66a3a,67fe6e666cecbc9329ddf6d6,67fe759218bc917acc053e81,,,,,,,,,,,,,,,,,,,,,,With Brainslug Difficult 1 No Money,6,images/assets/snowy_original.jpg,learning,20,images/assets/success.jpg,images/assets/gameover.jpg,,,,,,,,,,,,,0,2,2,1,1,,,,,,,,,,,,,,,,,,,,,,,,,,,,,,,,
,,,,,,,,,,,,67fd4f955123c6d79ae66a3a,001,3,2025-04-15_11h16.00.052,avatar_quest_3AFC_legacy,2022.1.3,Win32,60.97560976,67fd4f955123c6d79ae66a3a,67fe6e666cecbc9329ddf6d6,67fe759218bc917acc053e81,,,,,,,,,,,,,,,,,,,,,,With Brainslug No Barriers With Money,0,images/assets/snowy_money.jpg,learning,10,images/assets/success_money.jpg,images/assets/gameover.jpg,,,,,,,,,,,,,0,3,3,4,1,,,,,,,,,,,,,,,,,,,,,,,,,,,,,,,,
,,,,,,,,,,,,67fd4f955123c6d79ae66a3a,001,3,2025-04-15_11h16.00.052,avatar_quest_3AFC_legacy,2022.1.3,Win32,60.97560976,67fd4f955123c6d79ae66a3a,67fe6e666cecbc9329ddf6d6,67fe759218bc917acc053e81,,,,,,,,,,,,,,,,,,,,,,With Brainslug No Barriers No Money,0,images/assets/snowy_original.jpg,learning,10,images/assets/success.jpg,images/assets/gameover.jpg,,,,,,,,,,,,,0,4,4,5,1,,,,,,,,,,,,,,,,,,,,,,,,,,,,,,,,
,,,,,,,,,,,,67fd4f955123c6d79ae66a3a,001,3,2025-04-15_11h16.00.052,avatar_quest_3AFC_legacy,2022.1.3,Win32,60.97560976,67fd4f955123c6d79ae66a3a,67fe6e666cecbc9329ddf6d6,67fe759218bc917acc053e81,,,,,,,,,,,,,,,,,,,,,,With Brainslug Difficult 2 No Money,12,images/assets/snowy_original.jpg,learning,20,images/assets/success.jpg,images/assets/gameover.jpg,,,,,,,,,,,,,0,5,5,3,1,,,,,,,,,,,,,,,,,,,,,,,,,,,,,,,,
,,,,,,,,,,,,67fd4f955123c6d79ae66a3a,001,3,2025-04-15_11h16.00.052,avatar_quest_3AFC_legacy,2022.1.3,Win32,60.97560976,67fd4f955123c6d79ae66a3a,67fe6e666cecbc9329ddf6d6,67fe759218bc917acc053e81,,,,,,,,,,,,,,,,,,,,,,No Brainslug Difficult 1 No Money,6,images/assets/snowy_original.jpg,learning,20,images/assets/success.jpg,images/assets/gameover.jpg,,,,,,,,,,,,,0,6,6,6,1,,,,,,,,,,,,,,,,,,,,,,,,,,,,,,,,
,,,,,,,,,,,,67fd4f955123c6d79ae66a3a,001,3,2025-04-15_11h16.00.052,avatar_quest_3AFC_legacy,2022.1.3,Win32,60.97560976,67fd4f955123c6d79ae66a3a,67fe6e666cecbc9329ddf6d6,67fe759218bc917acc053e81,,,,,,,,,,,,,,,,,,,,,,No Brainslug No Barriers No Money,0,images/assets/snowy_original.jpg,learning,10,images/assets/success.jpg,images/assets/gameover.jpg,,,,,,,,,,,,,0,7,7,10,1,,,,,,,,,,,,,,,,,,,,,,,,,,,,,,,,
,,,,,,,,,,,,67fd4f955123c6d79ae66a3a,001,3,2025-04-15_11h16.00.052,avatar_quest_3AFC_legacy,2022.1.3,Win32,60.97560976,67fd4f955123c6d79ae66a3a,67fe6e666cecbc9329ddf6d6,67fe759218bc917acc053e81,,,,,,,,,,,,,,,,,,,,,,No Brainslug Difficult 2 With Money,12,images/assets/snowy_money.jpg,learning,20,images/assets/success_money.jpg,images/assets/gameover.jpg,,,,,,,,,,,,,0,8,8,7,1,,,,,,,,,,,,,,,,,,,,,,,,,,,,,,,,
,,,,,,,,,,,,67fd4f955123c6d79ae66a3a,001,3,2025-04-15_11h16.00.052,avatar_quest_3AFC_legacy,2022.1.3,Win32,60.97560976,67fd4f955123c6d79ae66a3a,67fe6e666cecbc9329ddf6d6,67fe759218bc917acc053e81,,,,,,,,,,,,,,,,,,,,,,No Brainslug Difficult 2 No Money,12,images/assets/snowy_original.jpg,learning,20,images/assets/success.jpg,images/assets/gameover.jpg,,,,,,,,,,,,,0,9,9,8,1,,,,,,,,,,,,,,,,,,,,,,,,,,,,,,,,
,,,,,,,,,,,,67fd4f955123c6d79ae66a3a,001,3,2025-04-15_11h16.00.052,avatar_quest_3AFC_legacy,2022.1.3,Win32,60.97560976,67fd4f955123c6d79ae66a3a,67fe6e666cecbc9329ddf6d6,67fe759218bc917acc053e81,,,,,,,,,,,,,,,,,,,,,,With Brainslug Difficult 1 With Money,6,images/assets/snowy_money.jpg,learning,20,images/assets/success_money.jpg,images/assets/gameover.jpg,,,,,,,,,,,,,0,10,10,0,1,,,,,,,,,,,,,,,,,,,,,,,,,,,,,,,,
,,,,,,,,,,,,67fd4f955123c6d79ae66a3a,001,3,2025-04-15_11h16.00.052,avatar_quest_3AFC_legacy,2022.1.3,Win32,60.97560976,67fd4f955123c6d79ae66a3a,67fe6e666cecbc9329ddf6d6,67fe759218bc917acc053e81,,,,,,,,,,,,,,,,,,,,,,,,,,,,,,,,,,,,,,,,,,,,,,,,,,,,,,,9,0,9,0,1,,,,,,,,,,,,,,,,,,
,,,,,,,,,,,,67fd4f955123c6d79ae66a3a,001,3,2025-04-15_11h16.00.052,avatar_quest_3AFC_legacy,2022.1.3,Win32,60.97560976,67fd4f955123c6d79ae66a3a,67fe6e666cecbc9329ddf6d6,67fe759218bc917acc053e81,,,,,,,,,,,,,,,,,,,,,,No Brainslug Difficult 1 No Money,6,images/assets/snowy_original.jpg,learning,20,images/assets/success.jpg,images/assets/gameover.jpg,,,,,,,,With Brainslug Difficult 2 No Money,With Brainslug Difficult 1 No Money,down,0.0424,"[""With Brainslug Difficult 1 No Money"",""With Brainslug Difficult 2 With Money""]",0,0,0,6,1,,,,,,,,,,,,,,,,,,,,,,,,,,,,,,,,
,,,,,,,,,,,,67fd4f955123c6d79ae66a3a,001,3,2025-04-15_11h16.00.052,avatar_quest_3AFC_legacy,2022.1.3,Win32,60.97560976,67fd4f955123c6d79ae66a3a,67fe6e666cecbc9329ddf6d6,67fe759218bc917acc053e81,,,,,,,,,,,,,,,,,,,,,,With Brainslug Difficult 2 With Money,12,images/assets/snowy_money.jpg,learning,20,images/assets/success_money.jpg,images/assets/gameover.jpg,,,,,,,,,,,,,0,1,1,2,1,,,,,,,,,,,,,,,,,,,,,,,,,,,,,,,,
,,,,,,,,,,,,67fd4f955123c6d79ae66a3a,001,3,2025-04-15_11h16.00.052,avatar_quest_3AFC_legacy,2022.1.3,Win32,60.97560976,67fd4f955123c6d79ae66a3a,67fe6e666cecbc9329ddf6d6,67fe759218bc917acc053e81,,,,,,,,,,,,,,,,,,,,,,With Brainslug No Barriers No Money,0,images/assets/snowy_original.jpg,learning,10,images/assets/success.jpg,images/assets/gameover.jpg,,,,,,,,,,,,,0,2,2,5,1,,,,,,,,,,,,,,,,,,,,,,,,,,,,,,,,
,,,,,,,,,,,,67fd4f955123c6d79ae66a3a,001,3,2025-04-15_11h16.00.052,avatar_quest_3AFC_legacy,2022.1.3,Win32,60.97560976,67fd4f955123c6d79ae66a3a,67fe6e666cecbc9329ddf6d6,67fe759218bc917acc053e81,,,,,,,,,,,,,,,,,,,,,,With Brainslug No Barriers With Money,0,images/assets/snowy_money.jpg,learning,10,images/assets/success_money.jpg,images/assets/gameover.jpg,,,,,,,,,,,,,0,3,3,4,1,,,,,,,,,,,,,,,,,,,,,,,,,,,,,,,,
,,,,,,,,,,,,67fd4f955123c6d79ae66a3a,001,3,2025-04-15_11h16.00.052,avatar_quest_3AFC_legacy,2022.1.3,Win32,60.97560976,67fd4f955123c6d79ae66a3a,67fe6e666cecbc9329ddf6d6,67fe759218bc917acc053e81,,,,,,,,,,,,,,,,,,,,,,With Brainslug Difficult 1 With Money,6,images/assets/snowy_money.jpg,learning,20,images/assets/success_money.jpg,images/assets/gameover.jpg,,,,,,,,,,,,,0,4,4,0,1,,,,,,,,,,,,,,,,,,,,,,,,,,,,,,,,
,,,,,,,,,,,,67fd4f955123c6d79ae66a3a,001,3,2025-04-15_11h16.00.052,avatar_quest_3AFC_legacy,2022.1.3,Win32,60.97560976,67fd4f955123c6d79ae66a3a,67fe6e666cecbc9329ddf6d6,67fe759218bc917acc053e81,,,,,,,,,,,,,,,,,,,,,,No Brainslug Difficult 2 No Money,12,images/assets/snowy_original.jpg,learning,20,images/assets/success.jpg,images/assets/gameover.jpg,,,,,,,,,,,,,0,5,5,8,1,,,,,,,,,,,,,,,,,,,,,,,,,,,,,,,,
,,,,,,,,,,,,67fd4f955123c6d79ae66a3a,001,3,2025-04-15_11h16.00.052,avatar_quest_3AFC_legacy,2022.1.3,Win32,60.97560976,67fd4f955123c6d79ae66a3a,67fe6e666cecbc9329ddf6d6,67fe759218bc917acc053e81,"[""left""]",[12.77129999999886],,calibration,With Brainslug Difficult 2 No Money,14,13.0668,13.0741,1,3,0,FALSE,na,na,na,na,,,,,,,,,,,,,,,,,,,,,,,,,,,,,,,,,,0,0,0,0,1,,,,,,,,,,,,,,,,,,,,,,,
,,,,,,,,,,,,67fd4f955123c6d79ae66a3a,001,3,2025-04-15_11h16.00.052,avatar_quest_3AFC_legacy,2022.1.3,Win32,60.97560976,67fd4f955123c6d79ae66a3a,67fe6e666cecbc9329ddf6d6,67fe759218bc917acc053e81,,,,,,,,,,,,,,,,,,,,,,With Brainslug Difficult 2 No Money,12,images/assets/snowy_original.jpg,learning,20,images/assets/success.jpg,images/assets/gameover.jpg,,,,,,,,,,,,,0,6,6,3,1,,,,,,,,,,,,,,,,,,,,,,,,,,,,,,,,
,,,,,,,,,,,,67fd4f955123c6d79ae66a3a,001,3,2025-04-15_11h16.00.052,avatar_quest_3AFC_legacy,2022.1.3,Win32,60.97560976,67fd4f955123c6d79ae66a3a,67fe6e666cecbc9329ddf6d6,67fe759218bc917acc053e81,,,,,,,,,,,,,,,,,,,,,,With Brainslug Difficult 1 No Money,6,images/assets/snowy_original.jpg,learning,20,images/assets/success.jpg,images/assets/gameover.jpg,,,,,,,,,,,,,0,7,7,1,1,,,,,,,,,,,,,,,,,,,,,,,,,,,,,,,,
,,,,,,,,,,,,67fd4f955123c6d79ae66a3a,001,3,2025-04-15_11h16.00.052,avatar_quest_3AFC_legacy,2022.1.3,Win32,60.97560976,67fd4f955123c6d79ae66a3a,67fe6e666cecbc9329ddf6d6,67fe759218bc917acc053e81,,,,,,,,,,,,,,,,,,,,,,No Brainslug No Barriers No Money,0,images/assets/snowy_original.jpg,learning,10,images/assets/success.jpg,images/assets/gameover.jpg,,,,,,,,,,,,,0,8,8,10,1,,,,,,,,,,,,,,,,,,,,,,,,,,,,,,,,
,,,,,,,,,,,,67fd4f955123c6d79ae66a3a,001,3,2025-04-15_11h16.00.052,avatar_quest_3AFC_legacy,2022.1.3,Win32,60.97560976,67fd4f955123c6d79ae66a3a,67fe6e666cecbc9329ddf6d6,67fe759218bc917acc053e81,,,,,,,,,,,,,,,,,,,,,,No Brainslug No Barriers With Money,0,images/assets/snowy_money.jpg,learning,10,images/assets/success_money.jpg,images/assets/gameover.jpg,,,,,,,,,,,,,0,9,9,9,1,,,,,,,,,,,,,,,,,,,,,,,,,,,,,,,,
,,,,,,,,,,,,67fd4f955123c6d79ae66a3a,001,3,2025-04-15_11h16.00.052,avatar_quest_3AFC_legacy,2022.1.3,Win32,60.97560976,67fd4f955123c6d79ae66a3a,67fe6e666cecbc9329ddf6d6,67fe759218bc917acc053e81,,,,,,,,,,,,,,,,,,,,,,No Brainslug Difficult 2 With Money,12,images/assets/snowy_money.jpg,learning,20,images/assets/success_money.jpg,images/assets/gameover.jpg,,,,,,,,,,,,,0,10,10,7,1,,,,,,,,,,,,,,,,,,,,,,,,,,,,,,,,
,,,,,,,,,,,,67fd4f955123c6d79ae66a3a,001,3,2025-04-15_11h16.00.052,avatar_quest_3AFC_legacy,2022.1.3,Win32,60.97560976,67fd4f955123c6d79ae66a3a,67fe6e666cecbc9329ddf6d6,67fe759218bc917acc053e81,,,,,,,,,,,,,,,,,,,,,,,,,,,,,,,,,,,,,,,,,,,,,,,,,,,,,,,10,0,10,0,1,,,,,,,,,,,,,,,,,,
,,,,,,,,,,,,67fd4f955123c6d79ae66a3a,001,3,2025-04-15_11h16.00.052,avatar_quest_3AFC_legacy,2022.1.3,Win32,60.97560976,67fd4f955123c6d79ae66a3a,67fe6e666cecbc9329ddf6d6,67fe759218bc917acc053e81,,,,,,,,,,,,,,,,,,,,,,With Brainslug No Barriers With Money,0,images/assets/snowy_money.jpg,learning,10,images/assets/success_money.jpg,images/assets/gameover.jpg,,,,,,,,With Brainslug Difficult 2 With Money,With Brainslug Difficult 1 No Money,right,0.0345,"[""With Brainslug Difficult 1 No Money"",""With Brainslug Difficult 2 No Money""]",0,0,0,4,1,,,,,,,,,,,,,,,,,,,,,,,,,,,,,,,,
,,,,,,,,,,,,67fd4f955123c6d79ae66a3a,001,3,2025-04-15_11h16.00.052,avatar_quest_3AFC_legacy,2022.1.3,Win32,60.97560976,67fd4f955123c6d79ae66a3a,67fe6e666cecbc9329ddf6d6,67fe759218bc917acc053e81,"[""right"",""right"",""left"",""right"",""right"",""left"",""right"",""right"",""right"",""up"",""right"",""right"",""right"",""right"",""right"",""up"",""up"",""up"",""up"",""up"",""left"",""right"",""right"",""right"",""right"",""left"",""right"",""right"",""left"",""right"",""right"",""left"",""right""]","[0.04940000000033251,0.34030000000063865,0.6579000000002679,0.8910999999995965,1.7489000000002761,1.8658000000007178,2.0984000000003107,2.3344000000003007,2.566099999999551,3.771099999999592,4.138999999999896,4.361999999999966,4.6184000000002925,5.212099999999623,5.479099999999562,6.584700000001021,6.874800000000732,7.105800000000727,7.308400000000347,7.474499999999921,7.762300000000664,8.017599999999561,8.51159999999959,8.890700000001061,9.184900000000312,9.400700000001052,9.73820000000103,9.943099999999617,10.201200000001108,10.480200000001105,10.680999999999926,11.003900000000272,11.35130000000072]",,calibration,With Brainslug Difficult 2 With Money,15,13.0668,13.0722,5,1,0,FALSE,na,na,na,na,,,,,,,,,,,,,,,,,,,,,,,,,,,,,,,,,,0,0,0,0,1,,,,,,,,,,,,,,,,,,,,,,,
,,,,,,,,,,,,67fd4f955123c6d79ae66a3a,001,3,2025-04-15_11h16.00.052,avatar_quest_3AFC_legacy,2022.1.3,Win32,60.97560976,67fd4f955123c6d79ae66a3a,67fe6e666cecbc9329ddf6d6,67fe759218bc917acc053e81,,,,,,,,,,,,,,,,,,,,,,With Brainslug Difficult 2 With Money,12,images/assets/snowy_money.jpg,learning,20,images/assets/success_money.jpg,images/assets/gameover.jpg,,,,,,,,,,,,,0,1,1,2,1,,,,,,,,,,,,,,,,,,,,,,,,,,,,,,,,
,,,,,,,,,,,,67fd4f955123c6d79ae66a3a,001,3,2025-04-15_11h16.00.052,avatar_quest_3AFC_legacy,2022.1.3,Win32,60.97560976,67fd4f955123c6d79ae66a3a,67fe6e666cecbc9329ddf6d6,67fe759218bc917acc053e81,,,,,,,,,,,,,,,,,,,,,,With Brainslug Difficult 1 No Money,6,images/assets/snowy_original.jpg,learning,20,images/assets/success.jpg,images/assets/gameover.jpg,,,,,,,,,,,,,0,2,2,1,1,,,,,,,,,,,,,,,,,,,,,,,,,,,,,,,,
,,,,,,,,,,,,67fd4f955123c6d79ae66a3a,001,3,2025-04-15_11h16.00.052,avatar_quest_3AFC_legacy,2022.1.3,Win32,60.97560976,67fd4f955123c6d79ae66a3a,67fe6e666cecbc9329ddf6d6,67fe759218bc917acc053e81,,,,,,,,,,,,,,,,,,,,,,With Brainslug No Barriers No Money,0,images/assets/snowy_original.jpg,learning,10,images/assets/success.jpg,images/assets/gameover.jpg,,,,,,,,,,,,,0,3,3,5,1,,,,,,,,,,,,,,,,,,,,,,,,,,,,,,,,
,,,,,,,,,,,,67fd4f955123c6d79ae66a3a,001,3,2025-04-15_11h16.00.052,avatar_quest_3AFC_legacy,2022.1.3,Win32,60.97560976,67fd4f955123c6d79ae66a3a,67fe6e666cecbc9329ddf6d6,67fe759218bc917acc053e81,,,,,,,,,,,,,,,,,,,,,,No Brainslug Difficult 2 No Money,12,images/assets/snowy_original.jpg,learning,20,images/assets/success.jpg,images/assets/gameover.jpg,,,,,,,,,,,,,0,4,4,8,1,,,,,,,,,,,,,,,,,,,,,,,,,,,,,,,,
,,,,,,,,,,,,67fd4f955123c6d79ae66a3a,001,3,2025-04-15_11h16.00.052,avatar_quest_3AFC_legacy,2022.1.3,Win32,60.97560976,67fd4f955123c6d79ae66a3a,67fe6e666cecbc9329ddf6d6,67fe759218bc917acc053e81,,,,,,,,,,,,,,,,,,,,,,No Brainslug No Barriers With Money,0,images/assets/snowy_money.jpg,learning,10,images/assets/success_money.jpg,images/assets/gameover.jpg,,,,,,,,,,,,,0,5,5,9,1,,,,,,,,,,,,,,,,,,,,,,,,,,,,,,,,
,,,,,,,,,,,,67fd4f955123c6d79ae66a3a,001,3,2025-04-15_11h16.00.052,avatar_quest_3AFC_legacy,2022.1.3,Win32,60.97560976,67fd4f955123c6d79ae66a3a,67fe6e666cecbc9329ddf6d6,67fe759218bc917acc053e81,,,,,,,,,,,,,,,,,,,,,,No Brainslug No Barriers No Money,0,images/assets/snowy_original.jpg,learning,10,images/assets/success.jpg,images/assets/gameover.jpg,,,,,,,,,,,,,0,6,6,10,1,,,,,,,,,,,,,,,,,,,,,,,,,,,,,,,,
,,,,,,,,,,,,67fd4f955123c6d79ae66a3a,001,3,2025-04-15_11h16.00.052,avatar_quest_3AFC_legacy,2022.1.3,Win32,60.97560976,67fd4f955123c6d79ae66a3a,67fe6e666cecbc9329ddf6d6,67fe759218bc917acc053e81,,,,,,,,,,,,,,,,,,,,,,No Brainslug Difficult 1 No Money,6,images/assets/snowy_original.jpg,learning,20,images/assets/success.jpg,images/assets/gameover.jpg,,,,,,,,,,,,,0,7,7,6,1,,,,,,,,,,,,,,,,,,,,,,,,,,,,,,,,
,,,,,,,,,,,,67fd4f955123c6d79ae66a3a,001,3,2025-04-15_11h16.00.052,avatar_quest_3AFC_legacy,2022.1.3,Win32,60.97560976,67fd4f955123c6d79ae66a3a,67fe6e666cecbc9329ddf6d6,67fe759218bc917acc053e81,,,,,,,,,,,,,,,,,,,,,,With Brainslug Difficult 1 With Money,6,images/assets/snowy_money.jpg,learning,20,images/assets/success_money.jpg,images/assets/gameover.jpg,,,,,,,,,,,,,0,8,8,0,1,,,,,,,,,,,,,,,,,,,,,,,,,,,,,,,,
,,,,,,,,,,,,67fd4f955123c6d79ae66a3a,001,3,2025-04-15_11h16.00.052,avatar_quest_3AFC_legacy,2022.1.3,Win32,60.97560976,67fd4f955123c6d79ae66a3a,67fe6e666cecbc9329ddf6d6,67fe759218bc917acc053e81,,,,,,,,,,,,,,,,,,,,,,No Brainslug Difficult 2 With Money,12,images/assets/snowy_money.jpg,learning,20,images/assets/success_money.jpg,images/assets/gameover.jpg,,,,,,,,,,,,,0,9,9,7,1,,,,,,,,,,,,,,,,,,,,,,,,,,,,,,,,
,,,,,,,,,,,,67fd4f955123c6d79ae66a3a,001,3,2025-04-15_11h16.00.052,avatar_quest_3AFC_legacy,2022.1.3,Win32,60.97560976,67fd4f955123c6d79ae66a3a,67fe6e666cecbc9329ddf6d6,67fe759218bc917acc053e81,,,,,,,,,,,,,,,,,,,,,,With Brainslug Difficult 2 No Money,12,images/assets/snowy_original.jpg,learning,20,images/assets/success.jpg,images/assets/gameover.jpg,,,,,,,,,,,,,0,10,10,3,1,,,,,,,,,,,,,,,,,,,,,,,,,,,,,,,,
,,,,,,,,,,,,67fd4f955123c6d79ae66a3a,001,3,2025-04-15_11h16.00.052,avatar_quest_3AFC_legacy,2022.1.3,Win32,60.97560976,67fd4f955123c6d79ae66a3a,67fe6e666cecbc9329ddf6d6,67fe759218bc917acc053e81,,,,,,,,,,,,,,,,,,,,,,,,,,,,,,,,,,,,,,,,,,,,,,,,,,,,,,,11,0,11,0,1,,,,,,,,,,,,,,,,,,
,,,,,,,,,,,,67fd4f955123c6d79ae66a3a,001,3,2025-04-15_11h16.00.052,avatar_quest_3AFC_legacy,2022.1.3,Win32,60.97560976,67fd4f955123c6d79ae66a3a,67fe6e666cecbc9329ddf6d6,67fe759218bc917acc053e81,,,,,,,,,,,,,,,,,,,,,,,,,,,,,,,,,,,,,,,,,,,,,,,,,,,,,,,,,,,,0,0,0,0,1,1,With Brainslug Difficult 1 No Money,images/assets/With Brainslug Difficult 1 No Money.png,With Brainslug Difficult 2 No Money,images/assets/With Brainslug Difficult 2 No Money.png,With Brainslug Difficult 2 With Money,images/assets/With Brainslug Difficult 2 With Money.png,Achievement vs. money,,,,,
,,,,,,,,,,,,67fd4f955123c6d79ae66a3a,001,3,2025-04-15_11h16.00.052,avatar_quest_3AFC_legacy,2022.1.3,Win32,60.97560976,67fd4f955123c6d79ae66a3a,67fe6e666cecbc9329ddf6d6,67fe759218bc917acc053e81,,,,,,,,,,,,,,,,,,,,,,With Brainslug No Barriers With Money,0,images/assets/snowy_money.jpg,learning,10,images/assets/success_money.jpg,images/assets/gameover.jpg,,,,,,,,No Brainslug No Barriers With Money,No Brainslug No Barriers No Money,right,0.7558,"[""No Brainslug No Barriers No Money"",""No Brainslug Difficult 1 No Money""]",0,0,0,4,1,,,,,,,,,,,,,,,,,,,,,,,,,,,,,,,,
,,,,,,,,,,,,67fd4f955123c6d79ae66a3a,001,3,2025-04-15_11h16.00.052,avatar_quest_3AFC_legacy,2022.1.3,Win32,60.97560976,67fd4f955123c6d79ae66a3a,67fe6e666cecbc9329ddf6d6,67fe759218bc917acc053e81,,,,,,,,,,,,,,,,,,,,,,With Brainslug No Barriers No Money,0,images/assets/snowy_original.jpg,learning,10,images/assets/success.jpg,images/assets/gameover.jpg,,,,,,,,,,,,,0,1,1,5,1,,,,,,,,,,,,,,,,,,,,,,,,,,,,,,,,
,,,,,,,,,,,,67fd4f955123c6d79ae66a3a,001,3,2025-04-15_11h16.00.052,avatar_quest_3AFC_legacy,2022.1.3,Win32,60.97560976,67fd4f955123c6d79ae66a3a,67fe6e666cecbc9329ddf6d6,67fe759218bc917acc053e81,,,,,,,,,,,,,,,,,,,,,,No Brainslug No Barriers No Money,0,images/assets/snowy_original.jpg,learning,10,images/assets/success.jpg,images/assets/gameover.jpg,,,,,,,,,,,,,0,2,2,10,1,,,,,,,,,,,,,,,,,,,,,,,,,,,,,,,,
,,,,,,,,,,,,67fd4f955123c6d79ae66a3a,001,3,2025-04-15_11h16.00.052,avatar_quest_3AFC_legacy,2022.1.3,Win32,60.97560976,67fd4f955123c6d79ae66a3a,67fe6e666cecbc9329ddf6d6,67fe759218bc917acc053e81,,,,,,,,,,,,,,,,,,,,,,No Brainslug Difficult 2 With Money,12,images/assets/snowy_money.jpg,learning,20,images/assets/success_money.jpg,images/assets/gameover.jpg,,,,,,,,,,,,,0,3,3,7,1,,,,,,,,,,,,,,,,,,,,,,,,,,,,,,,,
,,,,,,,,,,,,67fd4f955123c6d79ae66a3a,001,3,2025-04-15_11h16.00.052,avatar_quest_3AFC_legacy,2022.1.3,Win32,60.97560976,67fd4f955123c6d79ae66a3a,67fe6e666cecbc9329ddf6d6,67fe759218bc917acc053e81,,,,,,,,,,,,,,,,,,,,,,No Brainslug Difficult 1 No Money,6,images/assets/snowy_original.jpg,learning,20,images/assets/success.jpg,images/assets/gameover.jpg,,,,,,,,,,,,,0,4,4,6,1,,,,,,,,,,,,,,,,,,,,,,,,,,,,,,,,
,,,,,,,,,,,,67fd4f955123c6d79ae66a3a,001,3,2025-04-15_11h16.00.052,avatar_quest_3AFC_legacy,2022.1.3,Win32,60.97560976,67fd4f955123c6d79ae66a3a,67fe6e666cecbc9329ddf6d6,67fe759218bc917acc053e81,,,,,,,,,,,,,,,,,,,,,,With Brainslug Difficult 1 With Money,6,images/assets/snowy_money.jpg,learning,20,images/assets/success_money.jpg,images/assets/gameover.jpg,,,,,,,,,,,,,0,5,5,0,1,,,,,,,,,,,,,,,,,,,,,,,,,,,,,,,,
,,,,,,,,,,,,67fd4f955123c6d79ae66a3a,001,3,2025-04-15_11h16.00.052,avatar_quest_3AFC_legacy,2022.1.3,Win32,60.97560976,67fd4f955123c6d79ae66a3a,67fe6e666cecbc9329ddf6d6,67fe759218bc917acc053e81,,,,,,,,,,,,,,,,,,,,,,No Brainslug Difficult 2 No Money,12,images/assets/snowy_original.jpg,learning,20,images/assets/success.jpg,images/assets/gameover.jpg,,,,,,,,,,,,,0,6,6,8,1,,,,,,,,,,,,,,,,,,,,,,,,,,,,,,,,
,,,,,,,,,,,,67fd4f955123c6d79ae66a3a,001,3,2025-04-15_11h16.00.052,avatar_quest_3AFC_legacy,2022.1.3,Win32,60.97560976,67fd4f955123c6d79ae66a3a,67fe6e666cecbc9329ddf6d6,67fe759218bc917acc053e81,,,,,,,,,,,,,,,,,,,,,,With Brainslug Difficult 1 No Money,6,images/assets/snowy_original.jpg,learning,20,images/assets/success.jpg,images/assets/gameover.jpg,,,,,,,,,,,,,0,7,7,1,1,,,,,,,,,,,,,,,,,,,,,,,,,,,,,,,,
,,,,,,,,,,,,67fd4f955123c6d79ae66a3a,001,3,2025-04-15_11h16.00.052,avatar_quest_3AFC_legacy,2022.1.3,Win32,60.97560976,67fd4f955123c6d79ae66a3a,67fe6e666cecbc9329ddf6d6,67fe759218bc917acc053e81,,,,,,,,,,,,,,,,,,,,,,With Brainslug Difficult 2 No Money,12,images/assets/snowy_original.jpg,learning,20,images/assets/success.jpg,images/assets/gameover.jpg,,,,,,,,,,,,,0,8,8,3,1,,,,,,,,,,,,,,,,,,,,,,,,,,,,,,,,
,,,,,,,,,,,,67fd4f955123c6d79ae66a3a,001,3,2025-04-15_11h16.00.052,avatar_quest_3AFC_legacy,2022.1.3,Win32,60.97560976,67fd4f955123c6d79ae66a3a,67fe6e666cecbc9329ddf6d6,67fe759218bc917acc053e81,,,,,,,,,,,,,,,,,,,,,,With Brainslug Difficult 2 With Money,12,images/assets/snowy_money.jpg,learning,20,images/assets/success_money.jpg,images/assets/gameover.jpg,,,,,,,,,,,,,0,9,9,2,1,,,,,,,,,,,,,,,,,,,,,,,,,,,,,,,,
,,,,,,,,,,,,67fd4f955123c6d79ae66a3a,001,3,2025-04-15_11h16.00.052,avatar_quest_3AFC_legacy,2022.1.3,Win32,60.97560976,67fd4f955123c6d79ae66a3a,67fe6e666cecbc9329ddf6d6,67fe759218bc917acc053e81,"[""right"",""right"",""right"",""right"",""right"",""right"",""down"",""down"",""down""]","[3.594599999999673,3.848699999999326,4.029599999999618,4.1806999999993195,4.3770999999997,4.649000000000001,5.209199999999328,5.508900000000381,5.715400000000386]",,calibration,No Brainslug No Barriers With Money,16,10.45344,10.4558,1,0,454,FALSE,na,na,na,na,,,,,,,,,,,,,,,,,,,,,,,,,,,,,,,,,,0,0,0,0,1,,,,,,,,,,,,,,,,,,,,,,,
,,,,,,,,,,,,67fd4f955123c6d79ae66a3a,001,3,2025-04-15_11h16.00.052,avatar_quest_3AFC_legacy,2022.1.3,Win32,60.97560976,67fd4f955123c6d79ae66a3a,67fe6e666cecbc9329ddf6d6,67fe759218bc917acc053e81,,,,,,,,,,,,,,,,,,,,,,No Brainslug No Barriers With Money,0,images/assets/snowy_money.jpg,learning,10,images/assets/success_money.jpg,images/assets/gameover.jpg,,,,,,,,,,,,,0,10,10,9,1,,,,,,,,,,,,,,,,,,,,,,,,,,,,,,,,
,,,,,,,,,,,,67fd4f955123c6d79ae66a3a,001,3,2025-04-15_11h16.00.052,avatar_quest_3AFC_legacy,2022.1.3,Win32,60.97560976,67fd4f955123c6d79ae66a3a,67fe6e666cecbc9329ddf6d6,67fe759218bc917acc053e81,,,,,,,,,,,,,,,,,,,,,,,,,,,,,,,,,,,,,,,,,,,,,,,,,,,,,,,0,0,0,0,1,,,,,,,,,,,,,,,,,,
,,,,,,,,,,,,67fd4f955123c6d79ae66a3a,001,3,2025-04-15_11h16.00.052,avatar_quest_3AFC_legacy,2022.1.3,Win32,60.97560976,67fd4f955123c6d79ae66a3a,67fe6e666cecbc9329ddf6d6,67fe759218bc917acc053e81,,,,,,,,,,,,,,,,,,,,,,With Brainslug Difficult 1 No Money,6,images/assets/snowy_original.jpg,learning,20,images/assets/success.jpg,images/assets/gameover.jpg,,,,,,,,No Brainslug No Barriers With Money,No Brainslug No Barriers No Money,right,3.3143,"[""No Brainslug No Barriers No Money"",""No Brainslug Difficult 1 No Money""]",0,0,0,1,1,,,,,,,,,,,,,,,,,,,,,,,,,,,,,,,,
,,,,,,,,,,,,67fd4f955123c6d79ae66a3a,001,3,2025-04-15_11h16.00.052,avatar_quest_3AFC_legacy,2022.1.3,Win32,60.97560976,67fd4f955123c6d79ae66a3a,67fe6e666cecbc9329ddf6d6,67fe759218bc917acc053e81,,,,,,,,,,,,,,,,,,,,,,No Brainslug Difficult 2 No Money,12,images/assets/snowy_original.jpg,learning,20,images/assets/success.jpg,images/assets/gameover.jpg,,,,,,,,,,,,,0,1,1,8,1,,,,,,,,,,,,,,,,,,,,,,,,,,,,,,,,
,,,,,,,,,,,,67fd4f955123c6d79ae66a3a,001,3,2025-04-15_11h16.00.052,avatar_quest_3AFC_legacy,2022.1.3,Win32,60.97560976,67fd4f955123c6d79ae66a3a,67fe6e666cecbc9329ddf6d6,67fe759218bc917acc053e81,,,,,,,,,,,,,,,,,,,,,,With Brainslug Difficult 2 With Money,12,images/assets/snowy_money.jpg,learning,20,images/assets/success_money.jpg,images/assets/gameover.jpg,,,,,,,,,,,,,0,2,2,2,1,,,,,,,,,,,,,,,,,,,,,,,,,,,,,,,,
,,,,,,,,,,,,67fd4f955123c6d79ae66a3a,001,3,2025-04-15_11h16.00.052,avatar_quest_3AFC_legacy,2022.1.3,Win32,60.97560976,67fd4f955123c6d79ae66a3a,67fe6e666cecbc9329ddf6d6,67fe759218bc917acc053e81,,,,,,,,,,,,,,,,,,,,,,No Brainslug No Barriers No Money,0,images/assets/snowy_original.jpg,learning,10,images/assets/success.jpg,images/assets/gameover.jpg,,,,,,,,,,,,,0,3,3,10,1,,,,,,,,,,,,,,,,,,,,,,,,,,,,,,,,
,,,,,,,,,,,,67fd4f955123c6d79ae66a3a,001,3,2025-04-15_11h16.00.052,avatar_quest_3AFC_legacy,2022.1.3,Win32,60.97560976,67fd4f955123c6d79ae66a3a,67fe6e666cecbc9329ddf6d6,67fe759218bc917acc053e81,,,,,,,,,,,,,,,,,,,,,,No Brainslug Difficult 2 With Money,12,images/assets/snowy_money.jpg,learning,20,images/assets/success_money.jpg,images/assets/gameover.jpg,,,,,,,,,,,,,0,4,4,7,1,,,,,,,,,,,,,,,,,,,,,,,,,,,,,,,,
,,,,,,,,,,,,67fd4f955123c6d79ae66a3a,001,3,2025-04-15_11h16.00.052,avatar_quest_3AFC_legacy,2022.1.3,Win32,60.97560976,67fd4f955123c6d79ae66a3a,67fe6e666cecbc9329ddf6d6,67fe759218bc917acc053e81,,,,,,,,,,,,,,,,,,,,,,With Brainslug Difficult 1 With Money,6,images/assets/snowy_money.jpg,learning,20,images/assets/success_money.jpg,images/assets/gameover.jpg,,,,,,,,,,,,,0,5,5,0,1,,,,,,,,,,,,,,,,,,,,,,,,,,,,,,,,
,,,,,,,,,,,,67fd4f955123c6d79ae66a3a,001,3,2025-04-15_11h16.00.052,avatar_quest_3AFC_legacy,2022.1.3,Win32,60.97560976,67fd4f955123c6d79ae66a3a,67fe6e666cecbc9329ddf6d6,67fe759218bc917acc053e81,,,,,,,,,,,,,,,,,,,,,,With Brainslug No Barriers With Money,0,images/assets/snowy_money.jpg,learning,10,images/assets/success_money.jpg,images/assets/gameover.jpg,,,,,,,,,,,,,0,6,6,4,1,,,,,,,,,,,,,,,,,,,,,,,,,,,,,,,,
,,,,,,,,,,,,67fd4f955123c6d79ae66a3a,001,3,2025-04-15_11h16.00.052,avatar_quest_3AFC_legacy,2022.1.3,Win32,60.97560976,67fd4f955123c6d79ae66a3a,67fe6e666cecbc9329ddf6d6,67fe759218bc917acc053e81,,,,,,,,,,,,,,,,,,,,,,With Brainslug Difficult 2 No Money,12,images/assets/snowy_original.jpg,learning,20,images/assets/success.jpg,images/assets/gameover.jpg,,,,,,,,,,,,,0,7,7,3,1,,,,,,,,,,,,,,,,,,,,,,,,,,,,,,,,
,,,,,,,,,,,,67fd4f955123c6d79ae66a3a,001,3,2025-04-15_11h16.00.052,avatar_quest_3AFC_legacy,2022.1.3,Win32,60.97560976,67fd4f955123c6d79ae66a3a,67fe6e666cecbc9329ddf6d6,67fe759218bc917acc053e81,"[""right""]",[2.7455999999996266],,calibration,No Brainslug No Barriers With Money,17,10.45344,10.4559,1,0,455,FALSE,na,na,na,na,,,,,,,,,,,,,,,,,,,,,,,,,,,,,,,,,,0,0,0,0,1,,,,,,,,,,,,,,,,,,,,,,,
,,,,,,,,,,,,67fd4f955123c6d79ae66a3a,001,3,2025-04-15_11h16.00.052,avatar_quest_3AFC_legacy,2022.1.3,Win32,60.97560976,67fd4f955123c6d79ae66a3a,67fe6e666cecbc9329ddf6d6,67fe759218bc917acc053e81,,,,,,,,,,,,,,,,,,,,,,No Brainslug No Barriers With Money,0,images/assets/snowy_money.jpg,learning,10,images/assets/success_money.jpg,images/assets/gameover.jpg,,,,,,,,,,,,,0,8,8,9,1,,,,,,,,,,,,,,,,,,,,,,,,,,,,,,,,
,,,,,,,,,,,,67fd4f955123c6d79ae66a3a,001,3,2025-04-15_11h16.00.052,avatar_quest_3AFC_legacy,2022.1.3,Win32,60.97560976,67fd4f955123c6d79ae66a3a,67fe6e666cecbc9329ddf6d6,67fe759218bc917acc053e81,,,,,,,,,,,,,,,,,,,,,,No Brainslug Difficult 1 No Money,6,images/assets/snowy_original.jpg,learning,20,images/assets/success.jpg,images/assets/gameover.jpg,,,,,,,,,,,,,0,9,9,6,1,,,,,,,,,,,,,,,,,,,,,,,,,,,,,,,,
,,,,,,,,,,,,67fd4f955123c6d79ae66a3a,001,3,2025-04-15_11h16.00.052,avatar_quest_3AFC_legacy,2022.1.3,Win32,60.97560976,67fd4f955123c6d79ae66a3a,67fe6e666cecbc9329ddf6d6,67fe759218bc917acc053e81,,,,,,,,,,,,,,,,,,,,,,With Brainslug No Barriers No Money,0,images/assets/snowy_original.jpg,learning,10,images/assets/success.jpg,images/assets/gameover.jpg,,,,,,,,,,,,,0,10,10,5,1,,,,,,,,,,,,,,,,,,,,,,,,,,,,,,,,
,,,,,,,,,,,,67fd4f955123c6d79ae66a3a,001,3,2025-04-15_11h16.00.052,avatar_quest_3AFC_legacy,2022.1.3,Win32,60.97560976,67fd4f955123c6d79ae66a3a,67fe6e666cecbc9329ddf6d6,67fe759218bc917acc053e81,,,,,,,,,,,,,,,,,,,,,,,,,,,,,,,,,,,,,,,,,,,,,,,,,,,,,,,1,0,1,0,1,,,,,,,,,,,,,,,,,,
,,,,,,,,,,,,67fd4f955123c6d79ae66a3a,001,3,2025-04-15_11h16.00.052,avatar_quest_3AFC_legacy,2022.1.3,Win32,60.97560976,67fd4f955123c6d79ae66a3a,67fe6e666cecbc9329ddf6d6,67fe759218bc917acc053e81,,,,,,,,,,,,,,,,,,,,,,With Brainslug Difficult 1 With Money,6,images/assets/snowy_money.jpg,learning,20,images/assets/success_money.jpg,images/assets/gameover.jpg,,,,,,,,No Brainslug No Barriers With Money,No Brainslug No Barriers No Money,right,0.8516,"[""No Brainslug No Barriers No Money"",""No Brainslug Difficult 1 No Money""]",0,0,0,0,1,,,,,,,,,,,,,,,,,,,,,,,,,,,,,,,,
,,,,,,,,,,,,67fd4f955123c6d79ae66a3a,001,3,2025-04-15_11h16.00.052,avatar_quest_3AFC_legacy,2022.1.3,Win32,60.97560976,67fd4f955123c6d79ae66a3a,67fe6e666cecbc9329ddf6d6,67fe759218bc917acc053e81,,,,,,,,,,,,,,,,,,,,,,No Brainslug Difficult 2 No Money,12,images/assets/snowy_original.jpg,learning,20,images/assets/success.jpg,images/assets/gameover.jpg,,,,,,,,,,,,,0,1,1,8,1,,,,,,,,,,,,,,,,,,,,,,,,,,,,,,,,
,,,,,,,,,,,,67fd4f955123c6d79ae66a3a,001,3,2025-04-15_11h16.00.052,avatar_quest_3AFC_legacy,2022.1.3,Win32,60.97560976,67fd4f955123c6d79ae66a3a,67fe6e666cecbc9329ddf6d6,67fe759218bc917acc053e81,"[""right"",""right"",""right""]","[2.19609999999966,2.379799999998909,2.546799999998825]",,calibration,No Brainslug No Barriers With Money,18,10.45344,10.4561,1,0,454,FALSE,na,na,na,na,,,,,,,,,,,,,,,,,,,,,,,,,,,,,,,,,,0,0,0,0,1,,,,,,,,,,,,,,,,,,,,,,,
,,,,,,,,,,,,67fd4f955123c6d79ae66a3a,001,3,2025-04-15_11h16.00.052,avatar_quest_3AFC_legacy,2022.1.3,Win32,60.97560976,67fd4f955123c6d79ae66a3a,67fe6e666cecbc9329ddf6d6,67fe759218bc917acc053e81,,,,,,,,,,,,,,,,,,,,,,No Brainslug No Barriers With Money,0,images/assets/snowy_money.jpg,learning,10,images/assets/success_money.jpg,images/assets/gameover.jpg,,,,,,,,,,,,,0,2,2,9,1,,,,,,,,,,,,,,,,,,,,,,,,,,,,,,,,
,,,,,,,,,,,,67fd4f955123c6d79ae66a3a,001,3,2025-04-15_11h16.00.052,avatar_quest_3AFC_legacy,2022.1.3,Win32,60.97560976,67fd4f955123c6d79ae66a3a,67fe6e666cecbc9329ddf6d6,67fe759218bc917acc053e81,,,,,,,,,,,,,,,,,,,,,,No Brainslug No Barriers No Money,0,images/assets/snowy_original.jpg,learning,10,images/assets/success.jpg,images/assets/gameover.jpg,,,,,,,,,,,,,0,3,3,10,1,,,,,,,,,,,,,,,,,,,,,,,,,,,,,,,,
,,,,,,,,,,,,67fd4f955123c6d79ae66a3a,001,3,2025-04-15_11h16.00.052,avatar_quest_3AFC_legacy,2022.1.3,Win32,60.97560976,67fd4f955123c6d79ae66a3a,67fe6e666cecbc9329ddf6d6,67fe759218bc917acc053e81,,,,,,,,,,,,,,,,,,,,,,With Brainslug Difficult 2 No Money,12,images/assets/snowy_original.jpg,learning,20,images/assets/success.jpg,images/assets/gameover.jpg,,,,,,,,,,,,,0,4,4,3,1,,,,,,,,,,,,,,,,,,,,,,,,,,,,,,,,
,,,,,,,,,,,,67fd4f955123c6d79ae66a3a,001,3,2025-04-15_11h16.00.052,avatar_quest_3AFC_legacy,2022.1.3,Win32,60.97560976,67fd4f955123c6d79ae66a3a,67fe6e666cecbc9329ddf6d6,67fe759218bc917acc053e81,,,,,,,,,,,,,,,,,,,,,,With Brainslug Difficult 1 No Money,6,images/assets/snowy_original.jpg,learning,20,images/assets/success.jpg,images/assets/gameover.jpg,,,,,,,,,,,,,0,5,5,1,1,,,,,,,,,,,,,,,,,,,,,,,,,,,,,,,,
,,,,,,,,,,,,67fd4f955123c6d79ae66a3a,001,3,2025-04-15_11h16.00.052,avatar_quest_3AFC_legacy,2022.1.3,Win32,60.97560976,67fd4f955123c6d79ae66a3a,67fe6e666cecbc9329ddf6d6,67fe759218bc917acc053e81,,,,,,,,,,,,,,,,,,,,,,With Brainslug Difficult 2 With Money,12,images/assets/snowy_money.jpg,learning,20,images/assets/success_money.jpg,images/assets/gameover.jpg,,,,,,,,,,,,,0,6,6,2,1,,,,,,,,,,,,,,,,,,,,,,,,,,,,,,,,
,,,,,,,,,,,,67fd4f955123c6d79ae66a3a,001,3,2025-04-15_11h16.00.052,avatar_quest_3AFC_legacy,2022.1.3,Win32,60.97560976,67fd4f955123c6d79ae66a3a,67fe6e666cecbc9329ddf6d6,67fe759218bc917acc053e81,,,,,,,,,,,,,,,,,,,,,,With Brainslug No Barriers No Money,0,images/assets/snowy_original.jpg,learning,10,images/assets/success.jpg,images/assets/gameover.jpg,,,,,,,,,,,,,0,7,7,5,1,,,,,,,,,,,,,,,,,,,,,,,,,,,,,,,,
,,,,,,,,,,,,67fd4f955123c6d79ae66a3a,001,3,2025-04-15_11h16.00.052,avatar_quest_3AFC_legacy,2022.1.3,Win32,60.97560976,67fd4f955123c6d79ae66a3a,67fe6e666cecbc9329ddf6d6,67fe759218bc917acc053e81,,,,,,,,,,,,,,,,,,,,,,With Brainslug No Barriers With Money,0,images/assets/snowy_money.jpg,learning,10,images/assets/success_money.jpg,images/assets/gameover.jpg,,,,,,,,,,,,,0,8,8,4,1,,,,,,,,,,,,,,,,,,,,,,,,,,,,,,,,
,,,,,,,,,,,,67fd4f955123c6d79ae66a3a,001,3,2025-04-15_11h16.00.052,avatar_quest_3AFC_legacy,2022.1.3,Win32,60.97560976,67fd4f955123c6d79ae66a3a,67fe6e666cecbc9329ddf6d6,67fe759218bc917acc053e81,,,,,,,,,,,,,,,,,,,,,,No Brainslug Difficult 1 No Money,6,images/assets/snowy_original.jpg,learning,20,images/assets/success.jpg,images/assets/gameover.jpg,,,,,,,,,,,,,0,9,9,6,1,,,,,,,,,,,,,,,,,,,,,,,,,,,,,,,,
,,,,,,,,,,,,67fd4f955123c6d79ae66a3a,001,3,2025-04-15_11h16.00.052,avatar_quest_3AFC_legacy,2022.1.3,Win32,60.97560976,67fd4f955123c6d79ae66a3a,67fe6e666cecbc9329ddf6d6,67fe759218bc917acc053e81,,,,,,,,,,,,,,,,,,,,,,No Brainslug Difficult 2 With Money,12,images/assets/snowy_money.jpg,learning,20,images/assets/success_money.jpg,images/assets/gameover.jpg,,,,,,,,,,,,,0,10,10,7,1,,,,,,,,,,,,,,,,,,,,,,,,,,,,,,,,
,,,,,,,,,,,,67fd4f955123c6d79ae66a3a,001,3,2025-04-15_11h16.00.052,avatar_quest_3AFC_legacy,2022.1.3,Win32,60.97560976,67fd4f955123c6d79ae66a3a,67fe6e666cecbc9329ddf6d6,67fe759218bc917acc053e81,,,,,,,,,,,,,,,,,,,,,,,,,,,,,,,,,,,,,,,,,,,,,,,,,,,,,,,2,0,2,0,1,,,,,,,,,,,,,,,,,,
